"Time (s)","Acceleration x (m/s^2)","Acceleration y (m/s^2)","Acceleration z (m/s^2)"
5.408734300E-2,-9.987043738E-1,-1.342971683E0,-1.031306505E0
6.379979100E-2,-2.351247311E0,-1.505683661E0,-2.206780672E0
7.351140600E-2,-3.433401346E0,-2.041975021E0,-5.275874615E0
8.322229100E-2,-4.633102894E0,-2.923131943E0,-7.660322666E0
9.293401000E-2,-6.069394588E0,-4.615755081E0,-7.581359386E0
1.026465100E-1,-6.512365818E0,-8.252246857E0,-3.832404613E0
1.123581240E-1,-5.808577061E0,-1.333011627E1,-9.511470050E-2
1.220690100E-1,-5.190929413E0,-1.839841270E1,1.544866085E0
1.317807290E-1,-3.802195072E0,-2.269352913E1,4.884648323E0
1.414931760E-1,-1.726421595E0,-2.711067963E1,3.455235958E0
1.512047910E-1,1.773679733E0,-2.969851875E1,-7.205686092E0
1.609156760E-1,3.514159203E0,-2.798196793E1,-8.256733894E0
1.706273950E-1,-1.587637782E0,-2.788146782E1,1.022931695E0
1.803398430E-1,-8.130811691E0,-2.847518730E1,4.606781960E0
1.900514580E-1,-1.213370419E1,-2.588465881E1,2.940479994E0
1.997623430E-1,-1.088166046E1,-2.417049980E1,5.775675774E-1
2.094740620E-1,-8.539983749E0,-2.374696922E1,5.895316601E-1
2.191865100E-1,-7.582555771E0,-2.389532471E1,1.887338877E0
2.288981240E-1,-6.854539394E0,-2.349781799E1,2.617448807E0
2.386090100E-1,-5.279464245E0,-2.261456680E1,2.485843658E0
2.483207290E-1,-3.050549746E0,-2.168316078E1,1.408475280E0
2.580332290E-1,-1.298106313E-1,-2.012692833E1,4.603192508E-1
2.677448430E-1,1.910070658E0,-1.796022797E1,3.861417472E-1
2.774556760E-1,2.652144909E0,-1.581057549E1,-4.247260094E-2
2.871674470E-1,2.309971094E0,-1.373240948E1,-5.333003402E-1
2.968798950E-1,1.419242978E0,-1.147717381E1,-3.343969584E-1
3.065915100E-1,1.408774406E-1,-8.889037132E0,-3.631108403E-1
3.163023950E-1,-1.025025368E0,-6.248258114E0,-1.258624673E0
3.260140100E-1,-1.527817249E0,-3.315554857E0,-2.493919373E0
3.357265620E-1,-2.229213476E0,1.226321608E-2,-4.540979385E0
3.454381760E-1,-2.899502754E0,2.714956284E0,-7.150651455E0
3.551490100E-1,-2.870789051E0,4.041477680E0,-7.792226791E0
3.648607810E-1,-2.447259426E0,4.130012035E0,-5.745167255E0
3.745732290E-1,-1.264606714E0,3.452543974E0,-3.281756163E0
3.842848430E-1,-4.193421602E-1,1.577767372E0,-1.888236165E0
3.939957290E-1,4.037888348E-2,3.975076675E-1,-1.155733347E0
4.037074470E-1,2.988037169E-1,-5.096712112E-1,-6.840481758E-1
4.134198950E-1,5.623133183E-1,-1.376471281E0,4.127619043E-2
4.231315100E-1,8.231309652E-1,-1.934298038E0,3.741776347E-1
4.328423950E-1,1.649253011E0,-2.262114763E0,-1.854437590E-2
4.425541140E-1,2.494218588E0,-2.164009094E0,-1.012163997E0
4.522665620E-1,2.539682150E0,-1.644467354E0,-1.988734722E0
4.619781760E-1,1.979462504E0,-1.091426253E0,-1.471585870E0
4.716890620E-1,1.364207983E0,-7.827520967E-1,2.425723970E-1
4.814007810E-1,1.057926655E0,-5.862415433E-1,1.506580949E0
4.911132290E-1,1.108175993E0,-4.115654826E-1,2.038086653E0
5.008248430E-1,1.091426253E0,-2.297109663E-1,2.184048891E0
5.105357290E-1,4.088735580E-1,4.097708687E-2,1.262213945E0
5.202474470E-1,-5.581258535E-1,2.874378264E-1,-2.003988922E-1
5.299598950E-1,-1.453639746E0,1.965105534E-1,-1.086341500E0
5.396715100E-1,-1.961217284E0,-5.216353536E-1,-2.587239504E0
5.493823950E-1,-2.375474691E0,-2.166401863E0,-4.916951656E0
5.590941140E-1,-3.112763166E0,-4.567898273E0,-5.371587753E0
5.688065620E-1,-4.070490360E0,-7.629814148E0,-4.497908592E0
5.785181760E-1,-4.716851711E0,-1.122802162E1,-2.771785975E0
5.882290620E-1,-5.358427048E0,-1.571934891E1,-6.457630396E-1
5.979407810E-1,-4.724030018E0,-2.094347954E1,6.852445602E-1
6.076532290E-1,-2.789433002E0,-2.443400955E1,1.793719649E0
6.173648430E-1,-8.647062778E-1,-2.629891586E1,-4.172185421E0
6.270757290E-1,1.874178290E0,-2.815215683E1,-1.302562904E1
6.367873430E-1,2.150549293E-1,-2.738585472E1,-6.858428001E0
6.464998950E-1,-5.633601665E0,-2.666053009E1,5.502295494E0
6.562115100E-1,-1.046261692E1,-2.756531715E1,8.346464157E0
6.659223950E-1,-1.104437160E1,-2.482912445E1,2.411366940E0
6.756341140E-1,-8.638388634E0,-2.361985207E1,-1.368694544E0
6.853465620E-1,-7.570591927E0,-2.373261261E1,-8.793623000E-2
6.950581760E-1,-6.742076874E0,-2.366561508E1,1.664507270E0
7.047690100E-1,-6.710970402E0,-2.327050018E1,2.471486807E0
7.144807810E-1,-5.813362598E0,-2.249223328E1,1.257428288E0
7.241932290E-1,-3.387937784E0,-2.123061752E1,-4.615156651E-1
7.339048430E-1,-1.848455518E-1,-1.974168396E1,-1.529312730E0
7.436157290E-1,2.286042929E0,-1.799133492E1,-9.762716293E-1
7.533274470E-1,3.387339592E0,-1.611924934E1,3.095714152E-1
7.630398950E-1,2.958725214E0,-1.389512062E1,9.559326172E-1
7.727515100E-1,1.182353497E0,-1.141256714E1,5.823532343E-1
7.824623950E-1,-5.940182209E-1,-8.750253677E0,-6.242275834E-1
7.921741140E-1,-1.506281853E0,-5.635396481E0,-2.450848579E0
8.018865620E-1,-1.946860313E0,-2.125723839E0,-4.550550461E0
8.115981760E-1,-2.516651154E0,9.529415965E-1,-6.906284332E0
8.213090620E-1,-3.249154091E0,3.088535786E0,-7.626822948E0
8.310207810E-1,-3.426223040E0,3.691826344E0,-5.843272686E0
8.407332290E-1,-2.449652195E0,3.347259760E0,-3.693321705E0
8.504448430E-1,-7.761718631E-1,2.217249393E0,-1.924128532E0
8.601557290E-1,2.362912335E-2,1.362413406E0,-1.012163997E0
8.698674470E-1,2.605185509E-1,9.649057388E-1,-2.841476798E-1
8.795798950E-1,6.669992954E-2,4.597210586E-1,1.760220170E0
8.892915100E-1,2.629113793E-1,1.223330572E-1,3.163311481E0
8.990023950E-1,1.055533886E0,-4.486542661E-3,2.210369825E0
9.087141140E-1,2.264507532E0,-5.234299600E-2,3.478565812E-1
9.184265620E-1,3.351447105E0,-4.115654826E-1,-5.285146832E-1
9.281381760E-1,3.602693558E0,-9.933205247E-1,-1.549352705E-1
9.378490620E-1,3.258127213E0,-1.465005636E0,5.703890920E-1
9.475607810E-1,2.791227579E0,-1.527219057E0,7.211369276E-1
9.572732290E-1,2.099103689E0,-1.551147223E0,7.331010103E-1
9.669848430E-1,1.560718536E0,-1.160818100E0,8.219345808E-1
9.766957290E-1,-1.298106313E-1,-8.162516356E-1,8.027920127E-1
9.864074470E-1,-1.942074656E0,-2.129612118E-1,5.201398134E-1
9.961198950E-1,-3.048156977E0,2.682952285E-1,-5.428716540E-1
1.005831510E0,-3.084049225E0,3.305086195E-1,-1.967199326E0
1.015542395E0,-2.660220623E0,-1.986042857E-1,-5.254339218E0
1.025254114E0,-2.550150633E0,-1.730608940E0,-7.648358345E0
1.034966562E0,-3.024228811E0,-4.328317165E0,-7.746763229E0
1.044678281E0,-4.362414837E0,-7.703991413E0,-4.777868748E0
1.054389062E0,-5.540281773E0,-1.262871933E1,-3.272185028E-1
1.064100833E0,-6.117250919E0,-1.933699799E1,9.511470199E-1
1.073813281E0,-5.576174259E0,-2.446990204E1,1.626222134E0
1.083524895E0,-3.000300407E0,-2.682324219E1,-1.572383523E0
1.093235781E0,1.831107497E0,-2.942573738E1,-1.046620655E1
1.102947499E0,1.905285001E0,-2.830051231E1,-3.145066261E0
1.112659947E0,-3.036192894E0,-2.921247673E1,9.414261818E0
1.122371562E0,-8.116454124E0,-2.801307297E1,8.121539116E0
1.132082447E0,-1.002203846E1,-2.517847633E1,-1.605883121E0
1.141794166E0,-9.026025772E0,-2.470439911E1,-4.107579231E0
1.151506614E0,-8.595317841E0,-2.514258385E1,1.034895778E-1
1.161218229E0,-8.147561073E0,-2.507797813E1,3.735495329E0
1.170929114E0,-6.615257263E0,-2.416810608E1,2.481057882E0
1.180640833E0,-4.596911430E0,-2.293520546E1,-2.291127741E-1
1.190353333E0,-2.119143486E0,-2.165683937E1,-1.543669701E0
1.200064947E0,3.849453330E-1,-2.042393684E1,-1.203589797E0
1.209775833E0,1.526919961E0,-1.868106461E1,-3.272185028E-1
1.219487551E0,1.182353497E0,-1.631546211E1,4.100699723E-1
1.229199999E0,1.360917836E-1,-1.354547024E1,5.392823815E-1
1.238911614E0,-1.092024446E0,-1.057448101E1,1.274178028E-1
1.248622499E0,-1.860718727E0,-7.804490089E0,-4.854438901E-1
1.258334218E0,-2.061715841E0,-5.130510807E0,-1.024128079E0
1.268046718E0,-1.891825438E0,-2.537588358E0,-1.828415632E0
1.277758333E0,-1.654636860E0,-1.866401732E-1,-2.915355206E0
1.287469166E0,-1.592423439E0,1.829312921E0,-4.208077908E0
1.297180937E0,-1.738385677E0,3.212962627E0,-4.852046013E0
1.306893385E0,-1.771885157E0,3.734897137E0,-4.847260475E0
1.316604999E0,-1.513460279E0,3.373580933E0,-4.627120972E0
1.326315885E0,-1.750349760E0,2.683849812E0,-4.059722900E0
1.336027604E0,-1.951645970E0,1.896311998E0,-3.178565741E0
1.345740051E0,-1.779063582E0,1.022333503E0,-1.909771562E0
1.355451666E0,-1.125523925E0,3.379862010E-2,-3.200400174E-1
1.365162551E0,-5.084747914E-3,-9.741778970E-1,9.152546525E-1
1.374874322E0,1.392921925E0,-1.764407635E0,1.176072359E0
1.384586770E0,2.896511793E0,-2.343769789E0,9.128618240E-1
1.394298385E0,3.837489367E0,-2.647658348E0,5.225326419E-1
1.404009270E0,4.014558315E0,-2.683550596E0,2.353939265E-1
1.413720989E0,3.710370541E0,-2.475374937E0,1.734796353E-2
1.423433437E0,3.083152056E0,-2.092224360E0,-1.812563092E-1
1.433145051E0,2.247757673E0,-1.465005636E0,-2.482553422E-1
1.442855937E0,1.144068360E0,-7.157530785E-1,-2.889333367E-1
1.452567656E0,-2.111666054E-1,-9.272187948E-3,-4.187439568E-3
1.462280156E0,-1.482353687E0,7.160521746E-1,3.909274042E-1
1.471991770E0,-2.624328136E0,1.012762189E0,1.054038405E0
1.481702656E0,-3.052942514E0,6.538388133E-1,-9.065806866E-1
1.491414374E0,-3.277868032E0,-9.191430211E-1,-3.552145243E0
1.501126822E0,-3.857230186E0,-3.521636724E0,-4.423730850E0
1.510838437E0,-4.355236530E0,-7.787740231E0,-3.363112211E0
1.520549322E0,-4.858027935E0,-1.265264797E1,-1.081555843E0
1.530261041E0,-4.860421181E0,-1.755105591E1,2.145763636E0
1.539973541E0,-4.596911430E0,-2.214048958E1,4.982754230E0
1.549685156E0,-2.066501379E0,-2.524786758E1,9.439685345E-1
1.559396041E0,2.441576481E0,-2.695006180E1,-1.018863869E1
1.569107760E0,3.837489367E0,-2.822633362E1,-1.031306553E1
1.578820208E0,3.299104273E-1,-2.938266563E1,-1.026520967E0
1.588531822E0,-4.080061913E0,-3.013191795E1,2.040479422E0
1.598242708E0,-6.332904339E0,-2.946402168E1,-1.548455358E0
1.607954426E0,-6.708577156E0,-2.810400200E1,-3.375076294E0
1.617666926E0,-7.587341309E0,-2.752463913E1,4.196412563E-1
1.627378541E0,-8.312665939E0,-2.602613449E1,4.281357765E0
1.637089426E0,-7.671090126E0,-2.390728951E1,4.410570145E0
1.646801145E0,-5.842076302E0,-2.193919182E1,1.580758452E0
1.656513593E0,-3.811766386E0,-2.016760635E1,-1.225125194E0
1.666225208E0,-2.657827854E0,-1.855394745E1,-1.586740494E0
1.675936093E0,-2.341675997E0,-1.681346703E1,-1.501496136E-1
1.685647864E0,-2.257927179E0,-1.483609867E1,5.225326419E-1
1.695360312E0,-2.150250196E0,-1.261914825E1,3.502494097E-1
1.705071926E0,-2.004287958E0,-1.010997486E1,8.434699476E-2
1.714782812E0,-1.889432549E0,-7.739883900E0,-3.726821244E-1
1.724494531E0,-1.910967946E0,-5.697908878E0,-1.122233868E0
1.734206979E0,-1.704886079E0,-3.734597921E0,-2.419741869E0
1.743918697E0,-1.333998680E0,-1.589432478E0,-4.179363728E0
1.753629531E0,-1.216451168E0,6.275177598E-1,-5.694917679E0
1.763341249E0,-1.331605792E0,2.212463617E0,-5.972485542E0
1.773053697E0,-5.796613097E-1,2.966501951E0,-4.912165642E0
1.782765312E0,8.135597110E-1,2.911466837E0,-3.166601658E0
1.792476197E0,1.184746265E0,2.647957325E0,-1.339980721E0
1.802187916E0,4.232304990E-1,2.332104683E0,-2.697907388E-1
1.811900416E0,-7.115656137E-1,1.774278045E0,1.899302900E-1
1.821612031E0,-1.532602906E0,8.979067206E-1,4.292125702E-1
1.831322916E0,-1.250249863E0,-4.737788737E-1,4.127619043E-2
1.841034635E0,-1.968096644E-1,-1.668395638E0,-1.177268744E0
1.850747083E0,1.627717614E0,-2.776870728E0,-2.331207514E0
1.860458697E0,3.607479334E0,-3.495315790E0,-2.553740025E0
1.870169583E0,5.204389095E0,-3.610171080E0,-1.943271041E0
1.879881301E0,5.951249123E0,-3.222234726E0,-6.170491576E-1
1.889593801E0,5.640182018E0,-2.693121910E0,8.315058947E-1
1.899305416E0,4.514957428E0,-1.986940145E0,1.939980984E0
1.909016301E0,2.542074919E0,-1.096211910E0,2.784946442E0
1.918728020E0,3.514458239E-1,-1.962114573E-1,2.976372242E0
1.928440468E0,-1.719243050E0,7.519445419E-1,2.231905222E0
1.938152083E0,-3.670589924E0,1.455733418E0,8.027920127E-1
1.947862968E0,-4.869992256E0,1.455733418E0,-1.296909928E0
1.957574687E0,-5.473282814E0,5.988038778E-1,-5.972485542E0
1.967287187E0,-5.863611698E0,-1.713859200E0,-9.281160355E0
1.976998801E0,-4.881956577E0,-5.872584820E0,-6.853642464E0
1.986709687E0,-3.608376503E0,-1.141735363E1,2.976073027E-1
1.996421406E0,-2.214856386E0,-1.635165215E1,5.373083115E0
2.006133854E0,-1.666600943E0,-1.996182442E1,8.327322006E0
2.015845468E0,-2.976372242E0,-2.319632149E1,4.530211449E0
2.025556354E0,-3.775874138E0,-2.450340080E1,-1.019581699E1
2.035268124E0,-2.159821510E0,-2.548984146E1,-1.463928890E1
2.044980572E0,-1.944467545E0,-2.775704193E1,-1.608275890E0
2.054692187E0,-2.641077995E0,-2.878655434E1,6.732804775E0
2.064403072E0,-2.787040234E0,-2.758954430E1,4.999503613E0
2.074114791E0,-2.964408159E0,-2.605245399E1,-1.256231904E0
2.083827239E0,-4.498805523E0,-2.507079887E1,-4.172185421E0
2.093538958E0,-6.457331181E0,-2.504687119E1,-1.914557219E0
2.103249739E0,-7.455736160E0,-2.493201637E1,4.220340848E-1
2.112961510E0,-7.125227451E0,-2.407239342E1,7.211369276E-1
2.122673958E0,-5.260321617E0,-2.278206444E1,4.127619043E-2
2.132385572E0,-2.535793781E0,-2.068954086E1,-3.152543902E-1
2.142096458E0,-2.973082066E-1,-1.833380699E1,-4.639084935E-1
2.151808176E0,5.096712112E-1,-1.594935894E1,-3.391826153E-1
2.161520624E0,-1.151545867E-1,-1.347607803E1,1.974078640E-2
2.171232343E0,-1.683350682E0,-1.106770229E1,-9.511470050E-2
2.180943176E0,-2.815753937E0,-8.800502777E0,-3.511467278E-1
2.190654895E0,-3.107977629E0,-6.669693947E0,-3.032902777E-1
2.200367343E0,-2.727219582E0,-4.723432064E0,-4.088735580E-1
2.210078958E0,-1.932503343E0,-2.947060108E0,-1.040877819E0
2.219789843E0,-1.341177106E0,-1.340578914E0,-1.890628934E0
2.229501562E0,-1.175773263E0,5.084747914E-3,-3.332005501E0
2.239214010E0,-1.439282775E0,1.068096161E0,-4.825725079E0
2.248925729E0,-1.448854089E0,1.678565025E0,-5.390730381E0
2.258636562E0,-5.126622319E-1,1.525125384E0,-4.744369030E0
2.268348281E0,5.599204898E-1,1.017547846E0,-3.118745327E0
2.278060729E0,1.182353497E0,3.664009571E-1,-1.660917997E0
2.287772343E0,1.213460207E0,-1.483550072E-1,-4.902295470E-1
2.297483229E0,1.234995604E0,-7.229315639E-1,7.426723242E-1
2.307194947E0,1.493420482E0,-1.268794179E0,1.971087694E0
2.316907395E0,2.128116608E0,-1.797907114E0,2.365903378E0
2.326619114E0,2.690729141E0,-2.120938063E0,1.717149377E0
2.336329947E0,2.659323215E0,-1.805085540E0,2.928216755E-1
2.346041666E0,2.147259235E0,-1.249651670E0,-1.265803218E0
2.355754114E0,1.735394597E0,-8.377870321E-1,-2.050948143E0
2.365465729E0,1.404886007E0,-5.072783828E-1,-2.204387903E0
2.375176614E0,9.762716293E-1,-3.302095234E-1,-1.960020900E0
2.384888333E0,3.442673683E-1,-3.900300860E-1,-1.251446247E0
2.394600781E0,9.272187948E-3,-3.684946895E-1,-4.447658956E-1
2.404312499E0,-1.031904742E-1,-6.340979934E-1,7.776673418E-3
2.414023333E0,-2.518445849E-1,-1.098604679E0,-1.884347796E-1
2.423735051E0,-7.091727853E-1,-2.053939104E0,-2.603989124E0
2.433447499E0,-2.286641121E0,-3.512065411E0,-4.392624378E0
2.443159114E0,-4.520340919E0,-5.396114349E0,-4.160221100E0
2.452869999E0,-6.095715523E0,-8.367102623E0,-2.544168711E0
2.462581718E0,-6.576972008E0,-1.279860973E1,-5.165506005E-1
2.472294218E0,-6.612864494E0,-1.728276062E1,1.413260818E0
2.482005833E0,-5.578567028E0,-2.153959084E1,2.952444077E0
2.491716718E0,-1.618744493E0,-2.572673225E1,-8.554340899E-2
2.501428437E0,3.605086327E0,-2.858525658E1,-5.204090118E0
2.511140885E0,3.914059639E0,-2.932523727E1,-1.505384564E0
2.520852499E0,-8.503493667E-1,-2.952862740E1,3.101098061E0
2.530563385E0,-6.253642082E0,-2.781686211E1,1.760220170E0
2.540275104E0,-9.222537041E0,-2.584637260E1,-1.026520967E0
2.549987604E0,-9.227322578E0,-2.533670235E1,-2.853141785E0
2.559699218E0,-8.243273735E0,-2.556402016E1,-2.041376829E0
2.569410104E0,-7.850552082E0,-2.542284393E1,1.274178028E-1
2.579121822E0,-7.220940590E0,-2.424258423E1,1.520937920E0
2.588834270E0,-5.008776188E0,-2.266481590E1,1.384546995E0
2.598545885E0,-1.783849239E0,-2.111815453E1,8.554341197E-1
2.608256770E0,8.015955687E-1,-1.955953026E1,8.817551732E-1
2.617968541E0,1.397707582E0,-1.755344772E1,1.427617788E0
2.627680989E0,3.705884218E-1,-1.513280869E1,1.733899117E0
2.637392604E0,-9.412766099E-1,-1.236999607E1,1.250249863E0
2.647103489E0,-1.357926846E0,-9.717552185E0,2.952145040E-1
2.656815208E0,-1.216451168E0,-7.330412388E0,-6.768696904E-1
2.666527656E0,-1.020239711E0,-5.168796062E0,-1.541276932E0
2.676239374E0,-1.092024446E0,-3.078665495E0,-2.247458696E0
2.685950208E0,-1.147059321E0,-1.000499010E0,-3.176172972E0
2.695661926E0,-1.072881818E0,1.099202871E0,-4.160221100E0
2.705374374E0,-1.106381416E0,3.007179976E0,-4.787439823E0
2.715085989E0,-8.144569993E-1,3.876372576E0,-4.366302967E0
2.724796874E0,8.823533356E-2,3.514757395E0,-2.922533751E0
2.734508593E0,5.886343718E-1,2.308176517E0,-1.131805062E0
2.744221093E0,6.340979934E-1,9.433703423E-1,-2.602194548E-1
2.753932708E0,3.634099364E-1,-1.884347759E-2,-7.414759398E-1
2.763643593E0,-6.729813665E-2,-5.527420044E-1,-1.986341953E0
2.773355312E0,1.432702541E-1,-1.448255897E0,-2.908176899E0
2.783067760E0,4.737788737E-1,-1.831406593E0,-2.767000198E0
2.792779374E0,1.510170221E0,-2.410768747E0,-2.446063042E0
2.802490260E0,2.855833769E0,-2.583052158E0,-2.046162367E0
2.812202031E0,4.067200184E0,-2.290828466E0,-1.601097465E0
2.821914479E0,4.703989983E0,-1.829013824E0,-1.012163997E0
2.831626093E0,4.431208611E0,-1.393221021E0,-3.583251834E-1
2.841336979E0,3.329911709E0,-1.163210869E0,4.387838542E-1
2.851048697E0,2.003390789E0,-1.144068360E0,1.286142230E0
2.860761197E0,7.202396393E-1,-1.024427176E0,1.942373753E0
2.870472812E0,-4.121637046E-1,-7.947162390E-1,1.657328725E0
2.880183697E0,-1.178166032E0,-5.958128572E-1,7.235297561E-1
2.889895416E0,-1.417747378E0,-6.317051649E-1,-1.802094579E0
2.899607864E0,-2.044965982E0,-1.567897081E0,-4.830510616E0
2.909319479E0,-3.435794115E0,-3.337090254E0,-6.319743633E0
2.919030416E0,-4.975276470E0,-5.939583778E0,-5.309374332E0
2.928742135E0,-5.799005508E0,-1.039741230E1,-1.531705618E0
2.938454583E0,-5.717350483E0,-1.572892094E1,6.780661345E-1
2.948166197E0,-5.042275429E0,-2.065125656E1,1.678864241E0
2.957877083E0,-3.213261604E0,-2.461347008E1,1.760220170E0
2.967588854E0,1.117747307E0,-2.721117973E1,-5.840879917E0
2.977301301E0,3.786941051E0,-2.719921494E1,-8.278268814E0
2.987012916E0,8.901300430E-1,-2.664856720E1,1.894517303E0
2.996723801E0,-3.943371773E0,-2.565494728E1,7.695317745E0
3.006435520E0,-7.383652687E0,-2.299741936E1,4.506283283E0
3.016148020E0,-9.323035240E0,-2.164487457E1,-6.912266612E-1
3.025859635E0,-1.037168980E1,-2.202563286E1,-3.451646566E0
3.035570520E0,-1.041476059E1,-2.311975098E1,-1.605883121E0
3.045282239E0,-9.370891571E0,-2.437658119E1,1.149751306E0
3.054994739E0,-6.603293419E0,-2.506840706E1,1.753041744E0
3.064706354E0,-2.533401012E0,-2.498944283E1,4.531407952E-1
3.074417239E0,1.893320918E0,-2.390011024E1,-5.835496187E-1
3.084128958E0,4.550849438E0,-2.225773621E1,-6.266204119E-1
3.093841458E0,4.215555191E0,-2.004557228E1,8.434699476E-2
3.103553072E0,1.199103236E0,-1.717986870E1,5.536393523E-1
3.113263958E0,-2.406581402E0,-1.378265858E1,4.459623098E-1
3.122975676E0,-4.522733688E0,-1.017697334E1,-3.320041299E-1
3.132688124E0,-5.166702271E0,-7.294519901E0,-1.007378340E0
3.142399843E0,-4.515555382E0,-5.067998409E0,-1.610668778E0
3.152110676E0,-3.428615808E0,-3.296412230E0,-2.038984060E0
3.161822395E0,-2.408974171E0,-1.730608940E0,-2.707179785E0
3.171534843E0,-1.721635938E0,3.379862010E-2,-4.222434521E0
3.181246458E0,-1.127916813E0,1.666600943E0,-5.670989513E0
3.190957395E0,-3.427718580E-1,2.310569286E0,-5.577669621E0
3.200669114E0,8.662018180E-1,1.953739643E0,-3.633501291E0
3.210381562E0,2.185544491E0,8.835497499E-1,-1.395015597E0
3.220093176E0,1.989033818E0,1.944168471E-2,-1.884347796E-1
3.229804062E0,1.160818100E0,-5.838487148E-1,-7.869395614E-1
3.239515833E0,1.169492081E-1,-6.870391965E-1,-1.665703654E0
3.249228281E0,-8.694919348E-1,-6.149554253E-1,-1.660917997E0
3.258939895E0,-1.546959877E0,-6.317051649E-1,-1.347159147E0
3.268650833E0,-1.573280931E0,-6.990033388E-1,-1.167697430E0
3.278362551E0,-6.705885530E-1,-7.516453862E-1,-1.148554921E0
3.288074999E0,9.786644578E-1,-8.688937426E-1,-1.124626637E0
3.297786614E0,2.642573595E0,-9.334999323E-1,-7.989036441E-1
3.307497499E0,3.820739508E0,-9.143573642E-1,-2.027917206E-1
3.317209270E0,4.339982033E0,-9.311071038E-1,5.033900738E-1
3.326921718E0,4.191627026E0,-1.077069283E0,1.058824062E0
3.336633333E0,3.590729475E0,-1.211366415E0,1.204786181E0
3.346344218E0,2.566003084E0,-1.431506157E0,1.305284739E0
3.356055989E0,1.002891779E0,-1.213759303E0,1.298106313E0
3.365768437E0,-5.126622319E-1,-1.232901812E0,-1.043270707E0
3.375480051E0,-1.827219248E0,-1.783550143E0,-4.813760757E0
3.385190937E0,-3.519842148E0,-2.800798893E0,-6.635895252E0
3.394902708E0,-5.554638863E0,-4.965106964E0,-5.910272121E0
3.404615156E0,-6.701398849E0,-8.865108490E0,-1.790130496E0
3.414326770E0,-6.181857109E0,-1.336122227E1,8.865407705E-1
3.424037656E0,-5.300999641E0,-1.776401711E1,2.174477577E0
3.433749426E0,-4.159024715E0,-2.152523422E1,3.898207188E0
3.443461874E0,-1.791027784E0,-2.405803680E1,-2.077568293E0
3.453173489E0,2.269293070E0,-2.560948372E1,-8.021938324E0
3.462884374E0,8.733802438E-1,-2.583919525E1,-1.716850251E-1
3.472596145E0,-2.317747831E0,-2.742174721E1,5.059324265E0
3.482308593E0,-4.544269085E0,-2.636112976E1,3.471985579E0
3.492020208E0,-5.839683533E0,-2.464218521E1,-5.261218548E-1
3.501731093E0,-6.179464340E0,-2.409392929E1,-2.546561480E0
3.511442864E0,-6.536293983E0,-2.429043961E1,-2.558525562E0
3.521155312E0,-7.299903870E0,-2.441247368E1,-6.960122585E-1
3.530866926E0,-7.242475986E0,-2.414178658E1,1.728814393E-1
3.540577864E0,-5.578567028E0,-2.372064972E1,-4.423730969E-1
3.550289583E0,-2.612364054E0,-2.271985054E1,-1.194018483E0
3.560002031E0,2.030908167E-1,-2.104397774E1,-1.088734269E0
3.569713645E0,1.270887971E0,-1.948535347E1,-4.782654345E-1
3.579424583E0,-2.901297435E-2,-1.783340836E1,3.409772366E-2
3.589136301E0,-2.092822552E0,-1.549203110E1,6.520441920E-2
3.598848749E0,-3.582055569E0,-1.153938675E1,4.316053987E-1
3.608560364E0,-4.070490360E0,-8.841180801E0,1.130608693E-1
3.618271301E0,-3.579662561E0,-6.674479485E0,-7.118647546E-2
3.627983020E0,-2.775076151E0,-4.924428940E0,-4.136592150E-1
3.637695468E0,-1.834397674E0,-3.322733402E0,-1.079162955E0
3.647407083E0,-1.060917735E0,-1.725823283E0,-2.156531334E0
3.657118020E0,-6.777670383E-1,-2.129612118E-1,-3.207578659E0
3.666829739E0,-3.475574851E-1,1.017547846E0,-3.693321705E0
3.676542187E0,3.131606579E-1,1.783849239E0,-3.276970625E0
3.686253801E0,1.677966833E0,1.848455548E0,-2.340778828E0
3.695964739E0,2.714657307E0,1.331306696E0,-1.378265858E0
3.705676458E0,2.915654421E0,4.525425732E-1,-6.433702111E-1
3.715388906E0,2.089532375E0,-2.841476910E-2,-4.591228366E-1
3.725100624E0,5.024927258E-1,-1.627119333E-1,-7.414759398E-1
3.734811406E0,-1.003489971E0,-1.555334777E-1,-1.093519926E0
3.744523176E0,-2.085644007E0,-2.656033039E-1,-1.510170221E0
3.754235624E0,-2.054537296E0,-6.966105103E-1,-1.849951029E0
3.763947343E0,-1.353141189E0,-1.144068360E0,-1.931306958E0
3.773658176E0,3.849453330E-1,-1.527219057E0,-1.909771562E0
3.783369895E0,2.008176327E0,-1.790728688E0,-2.113460541E0
3.793082343E0,3.231507063E0,-1.915155411E0,-2.091925144E0
3.802794062E0,3.978665829E0,-1.991725802E0,-1.560419440E0
3.812504895E0,4.081557274E0,-1.886441588E0,-8.467600942E-1
3.822216614E0,3.159722328E0,-1.639681697E0,-2.362912297E-1
3.831929062E0,1.814357758E0,-1.421934843E0,6.469594240E-1
3.841640781E0,5.096712112E-1,-1.211366415E0,1.798505306E0
3.851351614E0,-5.820540786E-1,-1.252044439E0,2.488236427E0
3.861063333E0,-1.415354609E0,-1.469791293E0,1.875374764E-1
3.870775781E0,-2.856431961E0,-2.563909531E0,-3.015853882E0
3.880487499E0,-4.522733688E0,-4.246961117E0,-6.099604130E0
3.890198333E0,-5.212464809E0,-7.694420338E0,-7.356434345E0
3.899910051E0,-4.654638290E0,-1.387358570E1,-4.069293976E0
3.909622499E0,-4.814957142E0,-2.042154503E1,2.306082726E0
3.919334218E0,-3.615555048E0,-2.451775742E1,7.561319351E0
3.929045051E0,-1.544566989E0,-2.607638359E1,7.137490749E0
3.938756770E0,1.514955878E0,-2.637548637E1,-3.616751432E0
3.948469218E0,2.465504646E0,-2.514736938E1,-1.160130119E1
3.958180937E0,-7.666005492E-1,-2.477408981E1,-3.664607763E0
3.967891770E0,-4.175774574E0,-2.616491699E1,3.728316784E0
3.977603489E0,-6.203392506E0,-2.627977371E1,2.152942181E0
3.987315937E0,-8.312665939E0,-2.501815796E1,-3.959224224E0
3.997027656E0,-1.104676437E1,-2.335185623E1,-5.659025669E0
4.006738489E0,-1.224616718E1,-2.254517555E1,-1.919342875E0
4.016450208E0,-1.081705379E1,-2.203998947E1,1.882553220E0
4.026162656E0,-7.527521133E0,-2.153241348E1,1.848754644E0
4.035874374E0,-3.493520975E0,-2.094108582E1,-2.315055877E-1
4.045585208E0,-1.322034448E-1,-2.005035782E1,-8.778668046E-1
4.055296926E0,1.416850090E0,-1.872413635E1,-2.602194548E-1
4.065009374E0,1.136889815E0,-1.689482307E1,3.717848063E-1
4.074721093E0,-2.566302419E-1,-1.446969795E1,7.573283911E-1
4.084431926E0,-1.422533035E0,-1.191535950E1,8.506484628E-1
4.094143645E0,-2.054537296E0,-9.415757179E0,5.775675774E-1
4.103856093E0,-2.068894386E0,-7.103094101E0,8.434699476E-2
4.113567812E0,-1.645065546E0,-5.020142078E0,-4.998008311E-1
4.123278645E0,-1.082453132E0,-3.210270643E0,-1.462014675E0
4.132990364E0,-5.365904570E-1,-1.491326690E0,-3.023032188E0
4.142702812E0,-2.901297510E-1,-1.884347759E-2,-4.663012981E0
4.152414531E0,-5.084747914E-3,1.139880896E0,-5.699703693E0
4.162125364E0,3.011965454E-1,1.716850281E0,-5.919843197E0
4.171837083E0,1.791625917E-1,1.721635938E0,-5.446064472E0
4.181549531E0,-5.533402562E-1,1.465304732E0,-4.148257256E0
4.191261249E0,-1.539781332E0,1.285843015E0,-2.656930447E0
4.200972083E0,-1.927717686E0,1.039083242E0,-1.366301775E0
4.210683801E0,-1.836790442E0,6.825526357E-1,-7.103692293E-1
4.220396249E0,-1.242772222E0,1.055833027E-1,-9.978070259E-1
4.230107968E0,2.123630047E-2,-6.197410822E-1,-1.347159147E0
4.239818801E0,1.538884044E0,-1.290329576E0,-1.289731383E0
4.249530520E0,2.736192703E0,-1.809871197E0,-7.989036441E-1
4.259242968E0,3.633800268E0,-2.120938063E0,1.178465188E-1
4.268954687E0,4.160520554E0,-2.274078846E0,1.235892892E0
4.278665520E0,4.225126743E0,-2.276471615E0,2.246262312E0
4.288377239E0,3.863810301E0,-2.164009094E0,2.646162748E0
4.298089687E0,2.839084148E0,-1.656431437E0,2.186441660E0
4.307801406E0,1.129711390E0,-8.736793399E-1,1.247856975E0
4.317512239E0,-4.935196638E-1,-1.674975902E-1,-1.794616925E-3
4.327223958E0,-1.568495274E0,5.084747914E-3,-3.238685369E0
4.336936406E0,-3.021835804E0,-7.803592682E-1,-5.462814331E0
4.346648124E0,-4.621138573E0,-2.334198475E0,-5.946164131E0
4.356358958E0,-5.688636780E0,-5.247759342E0,-5.797809124E0
4.366070676E0,-5.897111416E0,-9.552147865E0,-2.695215702E0
4.375783124E0,-5.411069393E0,-1.439073467E1,1.944766641E0
4.385494843E0,-4.819743156E0,-1.861406708E1,5.243870735E0
4.395205676E0,-3.759124279E0,-2.214527512E1,2.971586704E0
4.404917395E0,-3.690928817E-1,-2.332792664E1,-6.686144829E0
4.414629895E0,2.577967405E0,-2.435504532E1,-7.193722248E0
4.424341510E0,1.000499010E0,-2.512344170E1,1.298106313E-1
4.434052395E0,-2.514258385E0,-2.551616287E1,2.339582443E0
4.443764114E0,-5.451747417E0,-2.460868454E1,9.894321561E-1
4.453476614E0,-6.897909641E0,-2.385943222E1,-3.707678795E0
4.463188229E0,-7.153941631E0,-2.429283333E1,-6.247959137E0
4.472899114E0,-6.541079998E0,-2.544437790E1,-5.266303539E0
4.482610833E0,-5.736792088E0,-2.605723953E1,-2.716751099E0
4.492323333E0,-5.281857014E0,-2.571237564E1,-5.380859971E-1
4.502034947E0,-4.398307323E0,-2.438136673E1,-1.573280841E-1
4.511745833E0,-3.029014349E0,-2.237019920E1,-6.457630396E-1
4.521457551E0,-1.951645970E0,-2.027528381E1,-7.031907439E-1
4.531170051E0,-1.764706731E0,-1.822852325E1,8.434699476E-2
4.540881666E0,-2.044965982E0,-1.589193153E1,7.139584422E-1
4.550592551E0,-2.365604401E0,-1.323918819E1,6.110670567E-1
4.560304270E0,-2.641077995E0,-1.068694401E1,1.561316848E-1
4.570016770E0,-2.748754978E0,-8.345566750E0,-8.793623000E-2
4.579728385E0,-2.480758905E0,-6.337091446E0,-7.597211748E-2
4.589439270E0,-1.980359793E0,-4.689932346E0,1.256231871E-2
4.599150989E0,-1.269392371E0,-3.241377354E0,2.213360928E-2
4.608863489E0,-4.671986103E-1,-1.955833435E0,-2.434697002E-1
4.618575104E0,1.884347759E-2,-6.269195080E-1,-1.287338614E0
4.628285989E0,6.430710852E-2,7.854440212E-1,-3.288934708E0
4.637997708E0,2.365903407E-1,1.860419631E0,-5.113162994E0
4.647710208E0,1.108175993E0,2.226820469E0,-5.469992638E0
4.657421822E0,2.149652004E0,1.604088426E0,-4.078865528E0
4.667132708E0,2.422433853E0,5.198407173E-1,-2.338385820E0
4.676844426E0,1.972284079E0,-3.349951804E-1,-1.703988791E0
4.686556926E0,4.953143001E-1,-5.647061467E-1,-1.883450508E0
4.696268541E0,-8.024929166E-1,-7.923234105E-1,-2.249851465E0
4.705979426E0,-1.322034478E0,-1.144068360E0,-2.601596355E0
4.715691197E0,-8.216354847E-1,-1.393221021E0,-2.783750057E0
4.725403645E0,4.785645306E-1,-1.996511340E0,-2.936890602E0
4.735115260E0,1.709073544E0,-2.551945448E0,-2.915355206E0
4.744826145E0,2.755335331E0,-2.784049034E0,-2.458027124E0
4.754537916E0,3.380161047E0,-2.657229662E0,-1.747059584E0
4.764250364E0,3.217149973E0,-2.278864384E0,-1.052842021E0
4.773961979E0,2.400898457E0,-1.699502230E0,-1.836491376E-1
4.783672864E0,1.084247708E0,-1.031605721E0,1.197607756E0
4.793384635E0,-7.570292354E-1,-2.919243574E-1,2.902194738E0
4.803097083E0,-2.743969440E0,3.783650696E-1,3.608675718E0
4.812808697E0,-4.304986954E0,7.184450030E-1,1.638186216E0
4.822519583E0,-5.875576019E0,-1.292124242E-1,-7.869395614E-1
4.832231354E0,-6.804290295E0,-1.965404749E0,-4.641477585E0
4.841943801E0,-5.755934715E0,-5.755336761E0,-5.987141132E0
4.851655416E0,-3.634697676E0,-1.133839035E1,-3.358326674E0
4.861366354E0,-1.618744493E0,-1.788126373E1,1.345962733E-1
4.871078072E0,-8.455637097E-1,-2.321067810E1,4.166502476E0
4.880790520E0,5.359922647E-1,-2.738585472E1,2.512164593E0
4.890502239E0,3.186043262E0,-2.820479965E1,-7.655537128E0
4.900213072E0,2.903690338E0,-2.716810799E1,-1.051914787E1
4.909924791E0,-1.298106313E-1,-2.683999252E1,-3.554538012E0
4.919637239E0,-2.901895761E0,-2.653849602E1,2.090728760E0
4.929348958E0,-5.068596363E0,-2.492244339E1,1.556830287E0
4.939059791E0,-6.900302410E0,-2.374696922E1,-2.144567251E0
4.948771510E0,-8.451449394E0,-2.284906387E1,-3.714857101E0
4.958483958E0,-9.562317848E0,-2.234387779E1,-1.804487348E0
4.968195676E0,-9.571888924E0,-2.211655998E1,6.014958024E-1
4.977906510E0,-8.157132149E0,-2.141995049E1,1.566401482E0
4.987618229E0,-5.492425442E0,-2.069672012E1,4.435695112E-1
4.997330729E0,-2.471187592E0,-2.007189369E1,-9.930213690E-1
5.007042343E0,-3.355933726E-1,-1.915484428E1,-1.270588875E0
5.016753229E0,5.742774606E-1,-1.779990768E1,-1.007378340E0
5.026464947E0,5.623133183E-1,-1.594696617E1,-7.151548862E-1
5.036177447E0,6.430710852E-2,-1.382333660E1,-4.184448719E-1
5.045889062E0,-6.370890141E-1,-1.162552929E1,-2.291127741E-1
5.055599947E0,-1.286142230E0,-9.516255379E0,-3.032902777E-1
5.065311666E0,-1.441675663E0,-7.256234646E0,-4.495515525E-1
5.075024166E0,-1.216451168E0,-4.790431023E0,-6.816553473E-1
5.084735781E0,-1.068096161E0,-2.762513638E0,-1.452443361E0
5.094446666E0,-8.024929166E-1,-8.688937426E-1,-2.781357288E0
5.104158385E0,-8.383852243E-1,1.063310504E0,-4.481158733E0
5.113870885E0,-1.266999602E0,2.583351135E0,-5.685346603E0
5.123582499E0,-1.630708575E0,3.509971619E0,-5.661418438E0
5.133293385E0,-1.668993831E0,3.632005692E0,-4.418945312E0
5.143005104E0,-1.446461320E0,2.842075109E0,-2.522633314E0
5.152717604E0,-9.819545746E-1,1.613958836E0,-5.667998791E-1
5.162429218E0,-3.379862010E-1,4.645066857E-1,5.871388316E-1
5.172140104E0,1.405783277E-2,-4.594219327E-1,1.080359459E0
5.181851822E0,1.265204996E-1,-1.134497046E0,9.056833982E-1
5.191564322E0,4.064807594E-1,-1.603789330E0,-2.811566554E-2
5.201275937E0,1.074676514E0,-1.917548299E0,-1.079162955E0
5.210986822E0,1.754537225E0,-2.120938063E0,-1.945663929E0
5.220698541E0,2.331506491E0,-2.233400822E0,-2.422134638E0
5.230411041E0,2.678465843E0,-2.235793591E0,-2.352742910E0
5.240122656E0,2.592324257E0,-1.943869352E0,-1.706381679E0
5.249833541E0,2.300399780E0,-1.783550143E0,-4.806582630E-1
5.259545260E0,1.895713687E0,-1.625324726E0,8.578268886E-1
5.269257760E0,1.361815214E0,-1.194317579E0,1.700399637E0
5.278969374E0,5.072783828E-1,-7.827520967E-1,1.724327803E0
5.288680260E0,-3.020938635E-1,-5.742774606E-1,-4.064807594E-1
5.298392031E0,-1.839183331E0,-1.247258782E0,-2.987139940E0
5.308104479E0,-3.780659676E0,-2.147259235E0,-4.086043835E0
5.317816093E0,-5.164309502E0,-5.053641319E0,-3.451646566E0
5.327526979E0,-5.729314804E0,-8.893822670E0,-3.801597059E-1
5.337238697E0,-5.832505226E0,-1.312672615E1,9.320043921E-1
5.346951197E0,-5.868397713E0,-1.763480377E1,1.681257010E0
5.356662812E0,-4.513162613E0,-2.183869362E1,1.688435435E0
5.366373697E0,-1.609173268E-1,-2.517369080E1,-2.139781713E0
5.376085416E0,4.383351803E0,-2.695484734E1,-3.916153431E0
5.385797916E0,3.693620920E0,-2.759911537E1,8.721838593E-1
5.395509531E0,-5.820540786E-1,-2.768765068E1,1.420439363E0
5.405220416E0,-6.200999737E0,-2.615773964E1,-1.921735644E0
5.414932187E0,-1.014167976E1,-2.474746895E1,-5.448457241E0
5.424644635E0,-1.119751263E1,-2.418485641E1,-6.884748936E0
5.434356249E0,-9.880862236E0,-2.441725922E1,-4.543372154E0
5.444067135E0,-8.063812256E0,-2.470439911E1,-9.978070259E-1
5.453778854E0,-6.883552551E0,-2.409871483E1,1.123430252E0
5.463491354E0,-5.183751106E0,-2.267199516E1,1.137787223E0
5.473202968E0,-2.497508526E0,-2.113729858E1,3.646063507E-1
5.482913854E0,1.121635586E-1,-1.960738754E1,1.082752272E-1
5.492625624E0,1.275673628E0,-1.792672729E1,6.230311990E-1
5.502338072E0,8.925228715E-1,-1.597328758E1,1.032503009E0
5.512049687E0,-3.020938635E-1,-1.375155163E1,8.386843204E-1
5.521760572E0,-1.822433591E0,-1.121605682E1,2.928216755E-1
5.531472291E0,-2.784647465E0,-8.740681648E0,-2.362912297E-1
5.541184791E0,-2.586043119E0,-6.607480526E0,-4.974080026E-1
5.550896406E0,-1.554138303E0,-4.926821709E0,-6.601199508E-1
5.560607291E0,-3.475574851E-1,-3.490530014E0,-9.595218897E-1
5.570319010E0,3.945166469E-1,-2.070688963E0,-1.692024708E0
5.580031510E0,5.000999570E-1,-5.048855543E-1,-2.865106106E0
5.589743124E0,2.150549293E-1,1.012762189E0,-3.760619879E0
5.599454010E0,4.037888348E-2,2.137987137E0,-3.774976730E0
5.609165729E0,-8.404789865E-2,2.585743904E0,-3.030210733E0
5.618878229E0,-2.303091735E-1,2.363211393E0,-1.694417477E0
5.628589843E0,-3.667000830E-1,1.841277003E0,-2.841476798E-1
5.638300729E0,-1.298106313E-1,1.261914849E0,4.507479668E-1
5.648012447E0,1.504487246E-1,6.586244106E-1,3.933202326E-1
5.657724947E0,2.964109182E-1,3.858426586E-2,8.913264424E-2
5.667436562E0,4.328017831E-1,-5.814558864E-1,-3.801597059E-1
5.677147447E0,6.005984545E-1,-1.043569803E0,-9.499505758E-1
5.686859166E0,1.012463093E0,-1.376471281E0,-1.337587833E0
5.696571614E0,1.618146300E0,-1.610967875E0,-1.323230863E0
5.706283333E0,2.101496458E0,-1.762014747E0,-1.040877819E0
5.715994166E0,2.343470573E0,-1.872084618E0,-4.351946115E-1
5.725705885E0,2.298007011E0,-1.900798440E0,3.191427290E-1
5.735418333E0,1.886142492E0,-1.793121457E0,8.865407705E-1
5.745130051E0,1.151246786E0,-1.649253011E0,1.104287624E0
5.754840885E0,3.083750308E-1,-1.357328653E0,9.750752449E-1
5.764552604E0,-4.552344978E-1,-1.072283626E0,6.589235067E-1
5.774265051E0,-1.149452209E0,-1.089033365E0,-1.507777333E0
5.783976770E0,-2.533401012E0,-1.879263043E0,-4.981557846E0
5.793687604E0,-4.645066738E0,-3.722633839E0,-7.423433304E0
5.803399322E0,-6.550651073E0,-7.170093060E0,-7.150651455E0
5.813111770E0,-7.213762283E0,-1.266700459E1,-4.038187504E0
5.822823385E0,-7.216155052E0,-1.881745720E1,-8.300103545E-1
5.832534322E0,-5.748756409E0,-2.337817574E1,5.509474277E0
5.842246041E0,-1.961217284E0,-2.688545609E1,8.226823807E0
5.851958489E0,3.361018419E0,-2.779293442E1,-1.591526151E0
5.861670104E0,4.555634975E0,-2.650499725E1,-8.881559372E0
5.871380989E0,-7.259225845E-1,-2.559273338E1,-2.654537678E0
5.881092760E0,-6.088537216E0,-2.585594368E1,3.694817305E0
5.890805208E0,-9.519247055E0,-2.487937355E1,3.852743626E0
5.900516822E0,-1.096780205E1,-2.369911385E1,-1.577169180E0
5.910227708E0,-1.092951679E1,-2.287777710E1,-5.338088036E0
5.919939426E0,-1.024726295E1,-2.284906387E1,-3.188436270E0
5.929651926E0,-9.122037888E0,-2.293520546E1,-1.645065546E-1
5.939363541E0,-6.888338089E0,-2.294716835E1,5.033900738E-1
5.949074426E0,-3.615555048E0,-2.248984146E1,-4.998008311E-1
5.958786145E0,-9.361918271E-2,-2.141995049E1,-1.093519926E0
5.968498645E0,1.953141451E0,-1.955474472E1,-9.451649189E-1
5.978210260E0,1.977069736E0,-1.721576118E1,-3.463610709E-1
5.987921145E0,1.624128371E-1,-1.450559044E1,3.382852972E-1
5.997632864E0,-1.855933070E0,-1.141735363E1,7.163512707E-1
6.007345364E0,-3.019443035E0,-8.345566750E0,6.804589629E-1
6.017056979E0,-3.196511984E0,-5.678467274E0,4.076771438E-1
6.026767864E0,-2.813361168E0,-3.528815269E0,4.606183618E-2
6.036479583E0,-2.078465462E0,-1.642074585E0,-4.399802685E-1
6.046192031E0,-1.180558920E0,-1.746760458E-1,-1.158126116E0
6.055903749E0,-5.365904570E-1,1.056132078E0,-2.125424623E0
6.065614583E0,-2.590230405E-1,2.075773716E0,-3.034996510E0
6.075326301E0,2.605185509E-1,2.494816780E0,-3.377469063E0
6.085038749E0,9.499505758E-1,2.344068766E0,-2.951247692E0
6.094750364E0,9.212366939E-1,1.747956991E0,-2.046162367E0
6.104461249E0,4.280161560E-1,1.135095239E0,-1.383051515E0
6.114173020E0,2.844468057E-1,6.418746710E-1,-1.342373490E0
6.123885468E0,2.318046987E-1,2.611167729E-1,-1.416550994E0
6.133597083E0,1.959123611E-1,-1.483550072E-1,-1.406979680E0
6.143307968E0,2.389831543E-1,-7.037889361E-1,-1.354337573E0
6.153019687E0,7.369893789E-1,-1.199103236E0,-1.452443361E0
6.162732187E0,1.697109461E0,-1.773978829E0,-1.902593136E0
6.172443801E0,2.810370207E0,-2.211865425E0,-2.082353830E0
6.182154687E0,3.562015533E0,-2.472982168E0,-1.744666815E0
6.191866406E0,3.746263027E0,-2.697907448E0,-5.811567903E-1
6.201578906E0,3.344268799E0,-2.755335331E0,7.477570772E-1
6.211290520E0,2.755335331E0,-2.535195589E0,1.590329766E0
6.221001406E0,1.890928149E0,-2.123331070E0,2.138585329E0
6.230713124E0,7.561319470E-1,-1.553540111E0,2.258226395E0
6.240425572E0,4.037888348E-2,-9.263214469E-1,-1.375873014E-2
6.250137187E0,-1.151844978E0,-9.095717072E-1,-3.332005501E0
6.259848124E0,-2.978765011E0,-1.290329576E0,-5.474778175E0
6.269559843E0,-4.881956577E0,-3.818346739E0,-4.603192329E0
6.279272291E0,-6.232106686E0,-8.259425163E0,-1.115055323E0
6.288983906E0,-6.984051228E0,-1.319133186E1,8.817551732E-1
6.298694791E0,-7.381259441E0,-1.828834343E1,2.150549412E0
6.308406562E0,-6.342475414E0,-2.330160522E1,1.508973837E0
6.318119010E0,-1.242772222E0,-2.600459862E1,-7.188936710E0
6.327830624E0,3.650550127E0,-2.757279396E1,-1.113679504E1
6.337541510E0,2.379363060E0,-2.752224541E1,-3.676572084E0
6.347253229E0,-1.173380375E0,-2.895883751E1,1.042074203E0
6.356965729E0,-3.419044495E0,-2.874826813E1,1.765005827E0
6.366677343E0,-5.224429131E0,-2.669163704E1,-6.580262445E-3
6.376388229E0,-7.470093250E0,-2.405564499E1,-1.179661512E0
6.386099947E0,-9.957432747E0,-2.238934326E1,-1.002592683E0
6.395812395E0,-1.133151054E1,-2.122104645E1,-7.749754190E-1
6.405524010E0,-1.053918743E1,-2.029951096E1,-9.451649189E-1
6.415234947E0,-8.269595146E0,-1.944946098E1,-1.390229940E0
6.424946666E0,-5.303392410E0,-1.883420563E1,-1.639382601E0
6.434659114E0,-2.040180445E0,-1.829073715E1,-1.179661512E0
6.444370729E0,6.436693072E-1,-1.724447441E1,-9.511470050E-2
6.454081614E0,2.164009094E0,-1.596610928E1,8.817551732E-1
6.463793385E0,2.067996979E0,-1.470688629E1,1.367797256E0
6.473505833E0,3.993022740E-1,-1.288235855E1,1.642971873E0
6.483217447E0,-1.348355532E0,-1.064626598E1,1.724327803E0
6.492928333E0,-2.111965179E0,-8.032107353E0,1.355833173E0
6.502640051E0,-2.085644007E0,-5.951548100E0,2.090728730E-1
6.512352499E0,-1.721635938E0,-3.799204111E0,-9.499505758E-1
6.522064218E0,-1.142273664E0,-1.644467354E0,-1.974377751E0
6.531775051E0,-5.413761139E-1,5.772684813E-1,-3.705285788E0
6.541486770E0,-2.422732860E-2,2.382354021E0,-5.395515919E0
6.551199218E0,7.322037220E-1,3.157927752E0,-5.165804863E0
6.560910833E0,1.361815214E0,2.985644341E0,-3.468396425E0
6.570621718E0,1.000499010E0,1.843669891E0,-2.199602127E0
6.580333489E0,3.320041299E-2,5.581258535E-1,-1.809273005E0
6.590045937E0,-1.704886183E-2,-2.153540403E-1,-2.228316069E0
6.599757551E0,1.839482337E-1,-9.287142754E-1,-2.755036116E0
6.609468437E0,4.450650215E-1,-1.634896040E0,-2.577668190E0
6.619180156E0,6.771687865E-1,-2.132902384E0,-2.228316069E0
6.628892604E0,1.184746265E0,-2.437089920E0,-1.938485503E0
6.638604322E0,1.847857237E0,-2.599801779E0,-1.605883121E0
6.648315156E0,2.269293070E0,-2.453839540E0,-1.162911773E0
6.658026874E0,2.525325298E0,-2.204686880E0,-7.079764009E-1
6.667739322E0,2.736192703E0,-1.836192250E0,2.856431901E-1
6.677450937E0,2.534896374E0,-1.462612867E0,1.465902925E0
6.687161822E0,1.936391711E0,-1.012463093E0,2.291725874E0
6.696873593E0,7.752745152E-1,-4.498506486E-1,2.488236427E0
6.706586041E0,-4.695914388E-1,3.329014480E-1,1.499402523E0
6.716297656E0,-1.654636860E0,5.916253924E-1,-1.541276932E0
6.726008541E0,-3.407080412E0,-4.755735025E-2,-4.153042793E0
6.735720260E0,-5.284249783E0,-1.613360643E0,-5.793023586E0
6.745432708E0,-6.459723949E0,-5.185545921E0,-5.436492920E0
6.755144426E0,-6.193821430E0,-1.074227810E1,-3.573680639E0
6.764855260E0,-4.716851711E0,-1.689960861E1,-1.330409408E0
6.774566979E0,-2.284248352E0,-2.221706009E1,3.426522017E0
6.784279426E0,1.340279818E0,-2.575783920E1,5.346762180E0
6.793991041E0,5.486742496E0,-2.627259445E1,-1.402194023E0
6.803701926E0,5.180460930E0,-2.457757950E1,-6.054140568E0
6.813413645E0,8.823533356E-2,-2.301416779E1,-2.233101845E0
6.823126145E0,-4.345664978E0,-2.323221397E1,1.343868971E0
6.832837760E0,-7.623233795E0,-2.294238281E1,1.846361756E0
6.842548645E0,-1.042672443E1,-2.304288292E1,-2.395813704E0
6.852260364E0,-1.181755257E1,-2.349781799E1,-6.472884178E0
6.861972812E0,-1.148255730E1,-2.420908356E1,-3.456432343E0
6.871684531E0,-9.244071960E0,-2.456082916E1,1.824826360E0
6.881395312E0,-6.043073654E0,-2.416332054E1,2.770589590E0
6.891107083E0,-2.665006161E0,-2.335664177E1,1.044467092E0
6.900819531E0,6.909275055E-2,-2.209981155E1,-9.667003751E-1
6.910531145E0,1.194317579E0,-2.046222305E1,-1.768594980E0
6.920242031E0,3.011965454E-1,-1.827877235E1,-1.222732425E0
6.929953749E0,-1.551745534E0,-1.584646797E1,-4.758726060E-1
6.939666249E0,-3.186940670E0,-1.324876022E1,-3.607180119E-1
6.949377864E0,-3.799802303E0,-1.075424194E1,-7.558328509E-1
6.959088749E0,-3.570091486E0,-8.453244209E0,-1.172483087E0
6.968800468E0,-2.870789051E0,-6.530910492E0,-1.337587833E0
6.978512916E0,-1.633101463E0,-5.039284706E0,-1.328016520E0
6.988224531E0,-2.422732860E-1,-3.648456335E0,-1.651346684E0
6.997935416E0,6.819544435E-1,-2.058724880E0,-3.087638617E0
7.007647187E0,8.111668825E-1,-2.464607358E-1,-5.180161953E0
7.017359635E0,2.748754919E-1,1.479661703E0,-6.532704830E0
7.027071249E0,4.546363056E-1,2.126022816E0,-5.840879917E0
7.036782135E0,1.680359721E0,1.735992789E0,-3.576073408E0
7.046493854E0,2.527718067E0,6.610172391E-1,-1.507777333E0
7.056206301E0,2.082353830E0,-3.732803464E-1,-9.738788009E-1
7.065918020E0,9.020941257E-1,-8.258228898E-1,-1.289731383E0
7.075628801E0,-3.858426586E-2,-1.275972724E0,-1.414158225E0
7.085340572E0,-4.959124923E-1,-1.649253011E0,-1.251446247E0
7.095053020E0,-2.685943544E-1,-1.884048700E0,-8.994022012E-1
7.104764635E0,3.921238184E-1,-1.876870275E0,-6.266204119E-1
7.114475520E0,1.196710467E0,-1.733001828E0,-6.505486369E-1
7.124187239E0,1.967498422E0,-1.398006678E0,-3.391826153E-1
7.133899687E0,2.577967405E0,-1.062712312E0,4.100699723E-1
7.143611301E0,2.702693224E0,-8.234301209E-1,1.611865163E0
7.153322239E0,2.350649118E0,-7.396813035E-1,2.658126831E0
7.163033958E0,1.357029557E0,-1.603191197E-1,3.098705292E0
7.172746406E0,-1.896311939E-1,1.797607988E-1,2.909373283E0
7.182458020E0,-1.566102386E0,5.102694035E-1,1.149751306E0
7.192168906E0,-2.973979473E0,2.802593410E-1,-2.546561480E0
7.201880624E0,-4.587339878E0,-7.301099896E-1,-5.673382282E0
7.211593072E0,-6.055037498E0,-2.709871531E0,-6.786643028E0
7.221304791E0,-6.541079998E0,-6.758228302E0,-4.375874519E0
7.231015624E0,-6.598507404E0,-1.143888855E1,-8.108677864E-1
7.240727343E0,-6.371189594E0,-1.642583084E1,1.257428288E0
7.250439791E0,-5.320142269E0,-2.103919220E1,2.890230656E0
7.260151406E0,-2.413759947E0,-2.549702072E1,1.659721613E0
7.269862291E0,2.989831924E0,-2.854218674E1,-3.705285788E0
7.279574010E0,6.064010620E0,-2.949273491E1,-5.438885689E0
7.289286510E0,4.433601379E0,-2.987827873E1,-2.465205431E0
7.298998124E0,8.344969153E-2,-2.891337395E1,3.311068416E-1
7.308709010E0,-5.640780449E0,-2.634677124E1,2.552842617E0
7.318420729E0,-9.253643036E0,-2.430718994E1,6.302096844E-1
7.328133176E0,-1.030947590E1,-2.265045929E1,-2.536990166E0
7.337844791E0,-9.856933594E0,-2.201606178E1,-3.420539856E0
7.347555676E0,-8.717351913E0,-2.166880417E1,-2.201995134E0
7.357267395E0,-6.641578197E0,-2.126172447E1,-3.777668774E-1
7.366979895E0,-3.661018610E0,-2.100329971E1,5.344967842E-1
7.376691510E0,-2.279163599E-1,-1.972732735E1,4.746761918E-1
7.386402395E0,2.353041887E0,-1.777358818E1,5.392823815E-1
7.396114114E0,2.520539522E0,-1.544178200E1,7.908278704E-1
7.405826562E0,5.527420044E-1,-1.299272823E1,7.668996453E-1
7.415538176E0,-1.688136339E0,-1.038784122E1,5.895316601E-1
7.425249062E0,-3.445365429E0,-7.854739666E0,1.609173268E-1
7.434960781E0,-4.462913513E0,-5.597111225E0,-7.510471940E-1
7.444673281E0,-4.584947109E0,-3.576671600E0,-1.737488389E0
7.454384895E0,-4.012763500E0,-1.879263043E0,-2.379063845E0
7.464095781E0,-3.122334480E0,-5.144568682E-1,-2.546561480E0
7.473807499E0,-1.913360834E0,5.222335458E-1,-2.123031855E0
7.483519947E0,-3.978067636E-1,1.245165110E0,-1.471585870E0
7.493231562E0,9.619147182E-1,1.826920033E0,-1.189232826E0
7.502942447E0,1.376172066E0,2.322533369E0,-1.354337573E0
7.512654166E0,8.327022791E-1,2.353640079E0,-1.454836130E0
7.522366666E0,-4.336991161E-2,1.898704767E0,-1.428515077E0
7.532078281E0,-2.542374134E-1,1.190130115E0,-1.625025630E0
7.541789166E0,-7.686942816E-2,4.022932947E-1,-1.799701691E0
7.551500885E0,1.791625917E-1,-4.737788737E-1,-1.773380637E0
7.561213333E0,6.939185858E-1,-1.326221943E0,-1.598704576E0
7.570924947E0,1.567897081E0,-1.898405671E0,-1.426122308E0
7.580635833E0,2.518146753E0,-2.108973980E0,-1.217946768E0
7.590347551E0,3.178864956E0,-2.144866467E0,-9.185447693E-1
7.600060051E0,3.557229996E0,-2.231008053E0,-2.817548811E-1
7.609771666E0,3.401696444E0,-2.209472656E0,5.081757307E-1
7.619482551E0,2.616252422E0,-1.951047778E0,1.185643673E0
7.629194270E0,1.464706540E0,-1.448255897E0,1.391725421E0
7.638906718E0,2.581257522E-1,-8.401798606E-1,6.876373887E-1
7.648618333E0,-8.718847632E-1,-4.929214716E-1,-1.115055323E0
7.658329218E0,-2.025823355E0,-7.803592682E-1,-4.200899124E0
7.668040989E0,-3.821337700E0,-1.946262121E0,-6.336493492E0
7.677753437E0,-5.616852283E0,-4.462315083E0,-4.856831551E0
7.687465051E0,-6.421438694E0,-8.707182884E0,-7.247261405E-1
7.697175937E0,-6.390331745E0,-1.317218971E1,1.724327803E0
7.706887656E0,-6.210571289E0,-1.711526299E1,3.881457329E0
7.716600156E0,-5.128417015E0,-2.027528381E1,7.688138962E0
7.726311770E0,-2.550150633E0,-2.287299156E1,4.334000111E0
7.736022656E0,1.884347759E-2,-2.369432831E1,-5.781059742E0
7.745734374E0,-1.101595759E0,-2.294956207E1,-7.610073090E0
7.755446822E0,-5.394319534E0,-2.491048050E1,-8.498408318E0
7.765158437E0,-8.501698494E0,-2.666292381E1,-9.642776489E0
7.774869322E0,-8.846564293E0,-2.646910477E1,-2.149353027E0
7.784581041E0,-9.373284340E0,-2.703411102E1,6.186942101E0
7.794293541E0,-9.533603668E0,-2.816651344E1,8.059326172E0
7.804005156E0,-8.188239098E0,-2.545873642E1,2.406581402E0
7.813716041E0,-6.002395630E0,-2.361745834E1,-1.294517040E0
7.823427760E0,-4.197309971E0,-2.290170479E1,-1.670489311E0
7.833140208E0,-2.538186550E0,-2.194637108E1,-2.673979402E-1
7.842851926E0,-1.218844056E0,-2.041436577E1,1.168893814E0
7.852562760E0,-2.829512656E-1,-1.846302032E1,1.877767563E0
7.862274479E0,5.120640397E-1,-1.591346741E1,1.544866085E0
7.871986926E0,9.284151793E-1,-1.311476135E1,3.741776347E-1
7.881698541E0,-2.422732860E-2,-1.043569756E1,-4.495515525E-1
7.891409426E0,-1.994716763E0,-8.094321251E0,-4.375874400E-1
7.901121197E0,-3.151048422E0,-6.212365627E0,-1.812563092E-1
7.910833645E0,-3.258725405E0,-4.857429981E0,-1.740778536E-1
7.920545260E0,-2.442473650E0,-3.586242914E0,-7.414759398E-1
7.930256145E0,-1.276570916E0,-2.132902384E0,-2.283350945E0
7.939967864E0,-6.753742099E-1,-4.618147612E-1,-4.316053867E0
7.949680364E0,-3.834498227E-1,1.111167073E0,-5.431707382E0
7.959391979E0,2.413759828E-1,1.946561217E0,-4.854438782E0
7.969102864E0,1.206281662E0,2.049452543E0,-3.391826153E0
7.978814583E0,1.575075507E0,2.070987940E0,-2.132603168E0
7.988527031E0,8.446664214E-1,1.941775560E0,-1.124626637E0
7.998238645E0,2.485544533E-1,1.781456470E0,-6.170491576E-1
8.007949583E0,-1.465603858E-1,1.374377489E0,-1.024128079E0
8.017661301E0,-1.175474152E-1,8.021938205E-1,-1.275374413E0
8.027373749E0,1.576271951E-1,2.662015148E-2,-1.086341500E0
8.037085364E0,8.470591903E-1,-8.856434822E-1,-8.108677864E-1
8.046796249E0,1.713859200E0,-1.627717614E0,-7.677969933E-1
8.056507968E0,2.621038198E0,-2.245364904E0,-7.007979155E-1
8.066220468E0,3.463909864E0,-2.693121910E0,-2.243271172E-1
8.075932083E0,3.928416491E0,-2.956631422E0,4.722833633E-1
8.085642968E0,3.873381615E0,-2.913560629E0,1.188036442E0
8.095354687E0,3.396910906E0,-2.563909531E0,1.709970832E0
8.105067187E0,2.439183474E0,-2.085045815E0,1.786541224E0
8.114778801E0,9.308080077E-1,-1.084247708E0,7.932206988E-1
8.124489687E0,-8.575277925E-1,-6.631109715E-1,-2.249851465E0
8.134201406E0,-3.117548704E0,-1.000499010E0,-5.084448814E0
8.143913854E0,-5.360819817E0,-2.226222277E0,-5.034199715E0
8.153625468E0,-6.866802692E0,-5.293222904E0,-3.233899832E0
8.163336354E0,-7.649554729E0,-9.758230209E0,-1.665703654E0
8.173048124E0,-7.931908131E0,-1.476670647E1,-5.476573110E-1
8.182760572E0,-7.508378506E0,-1.972014809E1,1.585544109E0
8.192472187E0,-5.588138103E0,-2.379004097E1,3.103491068E0
8.202183072E0,-1.460818172E0,-2.588944435E1,-2.072782516E0
8.211894843E0,2.611466885E0,-2.659353256E1,-8.771190643E0
8.221607291E0,2.839084148E0,-2.778575516E1,-9.398708344E0
8.231318906E0,2.222333997E-1,-2.930130959E1,-7.208079338E0
8.241029791E0,-3.308974504E0,-2.911915588E1,-4.593621254E0
8.250741510E0,-8.549854279E0,-2.701975250E1,1.978266120E0
8.260454010E0,-1.187737370E1,-2.597588348E1,7.793423176E0
8.270165624E0,-1.122144127E1,-2.387139702E1,5.310869694E0
8.279876510E0,-8.741280556E0,-2.201366997E1,1.180858016E0
8.289588229E0,-6.586543560E0,-2.080439568E1,-6.888338327E-1
8.299300729E0,-5.078167915E0,-1.966720772E1,-3.463610709E-1
8.309012343E0,-3.751945972E0,-1.859701729E1,1.290927768E0
8.318723229E0,-2.272284269E0,-1.758934021E1,2.420938253E0
8.328434947E0,-6.179464459E-1,-1.632503319E1,1.973480463E0
8.338147395E0,2.868396044E-1,-1.441226959E1,3.598206937E-1
8.347859114E0,1.719841212E-1,-1.218574810E1,-8.515457511E-1
8.357569947E0,-8.072785139E-1,-1.015543842E1,-1.215553880E0
8.367281666E0,-2.095215321E0,-8.300103188E0,-1.038485050E0
8.376994114E0,-2.614757061E0,-6.588337898E0,-6.649056077E-1
8.386705729E0,-2.375474691E0,-4.807180882E0,-9.547362328E-1
8.396416666E0,-1.719243050E0,-2.896811008E0,-2.084746838E0
8.406128385E0,-1.307677627E0,-9.741778970E-1,-3.245863914E0
8.415840833E0,-1.271785259E0,6.179464459E-1,-3.327219963E0
8.425552447E0,-5.844469070E-1,1.517946839E0,-2.113460541E0
8.435263333E0,8.518448472E-1,1.850848317E0,-8.300103545E-1
8.444975104E0,2.115853310E0,1.944168448E0,-3.753740489E-1
8.454687551E0,2.398505688E0,1.972882271E0,-2.721835673E-1
8.464399166E0,1.687538147E0,2.078166485E0,-5.763711333E-1
8.474110051E0,5.694918036E-1,2.109273195E0,-1.079162955E0
8.483821770E0,-2.877369225E-1,1.654636860E0,-1.617847204E0
8.493534270E0,-4.695914388E-1,8.644071817E-1,-1.794916034E0
8.503245885E0,8.823533356E-2,-1.818545163E-1,-1.711167336E0
8.512956770E0,8.877372146E-1,-1.153639674E0,-1.318445325E0
8.522668489E0,1.969891191E0,-1.951047778E0,-6.314060688E-1
8.532380989E0,2.812762976E0,-2.420340061E0,-1.136590727E-2
8.542092604E0,3.478266716E0,-2.793620348E0,3.861417472E-1
8.551803489E0,4.205984116E0,-3.167199850E0,6.086742878E-1
8.561515208E0,4.351946354E0,-3.155235767E0,6.852445602E-1
8.571227656E0,3.205185890E0,-2.700300455E0,3.765704632E-1
8.580939374E0,1.618146300E0,-2.075474501E0,-1.286142170E-1
8.590650208E0,2.820539773E-1,-1.503290772E0,-1.548455358E0
8.600361926E0,-9.532406926E-1,-1.548754454E0,-4.813760757E0
8.610074374E0,-2.950051308E0,-2.202294111E0,-6.822535515E0
8.619786093E0,-5.961717606E0,-3.703491211E0,-6.645466805E0
8.629496926E0,-8.236095428E0,-7.272984505E0,-3.865904093E0
8.639208645E0,-8.817850113E0,-1.210199928E1,-1.354337573E0
8.648921093E0,-8.271987915E0,-1.660529137E1,1.918445587E0
8.658632708E0,-5.559424400E0,-2.030190277E1,5.751149178E0
8.668343593E0,-1.621137381E0,-2.355763817E1,3.175275564E0
8.678055364E0,3.032902718E0,-2.514258385E1,-5.900700569E0
8.687767812E0,3.428017616E0,-2.617688179E1,-8.431409836E0
8.697479426E0,-1.185344458E0,-2.709871674E1,-5.568098068E0
8.707190312E0,-4.850849628E0,-2.759193611E1,-4.624728203E0
8.716902083E0,-6.763612270E0,-2.655285454E1,-1.349551916E0
8.726614531E0,-8.300702095E0,-2.530290222E1,3.302095175E0
8.736326145E0,-8.669495583E0,-2.449143791E1,6.218048573E0
8.746037031E0,-8.080561638E0,-2.266242409E1,4.338785648E0
8.755748749E0,-7.019943237E0,-2.130479622E1,1.916052699E0
8.765461249E0,-5.858826160E0,-2.048375893E1,-5.691927075E-1
8.775172864E0,-4.393521309E0,-1.983979034E1,-1.663310885E0
8.784883749E0,-3.091227770E0,-1.903998947E1,-9.089735150E-1
8.794595520E0,-1.511067510E0,-1.803470421E1,3.957130313E-1
8.804307968E0,-1.175474152E-1,-1.655025673E1,1.099501967E0
8.814019583E0,4.378865361E-1,-1.468535042E1,9.822536707E-1
8.823730468E0,-1.103689447E-1,-1.252343559E1,3.669991791E-1
8.833442187E0,-1.353141189E0,-1.023948669E1,-6.640082598E-2
8.843154687E0,-2.404188633E0,-8.144570351E0,-3.320041299E-1
8.852866301E0,-2.667398930E0,-6.202794552E0,-8.826524615E-1
8.862577187E0,-2.454437733E0,-4.215854168E0,-1.546062589E0
8.872288906E0,-2.126322031E0,-2.173580170E0,-2.386242390E0
8.882001406E0,-1.791027784E0,-2.823530734E-1,-3.367897987E0
8.891713020E0,-1.444068432E0,1.216451168E0,-3.645465374E0
8.901423906E0,-9.412766099E-1,2.070987940E0,-3.324826956E0
8.911135624E0,-2.997010350E-1,2.300997972E0,-2.615953445E0
8.920848124E0,1.289133132E-1,2.068595171E0,-1.670489311E0
8.930559739E0,1.097707376E-1,1.692921996E0,-6.361917257E-1
8.940270624E0,-1.298106313E-1,1.242772222E0,-2.817548811E-1
8.949982343E0,-6.107679605E-1,1.127916813E0,-7.582256794E-1
8.959694791E0,-1.290927768E0,1.139880896E0,-1.356730461E0
8.969406510E0,-1.630708575E0,7.974081635E-1,-1.759023786E0
8.979117343E0,-1.329213023E0,1.079761237E-1,-2.146960020E0
8.988829062E0,-1.752742529E-1,-8.234301209E-1,-2.474776745E0
8.998541510E0,1.541276932E0,-1.742573142E0,-2.328814745E0
9.008253229E0,3.040081263E0,-2.463410854E0,-1.651346684E0
9.017964062E0,3.770191193E0,-2.980559587E0,-8.611170650E-1
9.027675781E0,3.892524242E0,-3.136093140E0,-1.525424421E-1
9.037388229E0,3.650550127E0,-2.978166819E0,4.076771438E-1
9.047099947E0,2.992224693E0,-2.666800737E0,6.900302172E-1
9.056810729E0,1.993819475E0,-2.286042929E0,-3.873381615E-1
9.066522499E0,5.718846321E-1,-2.360519648E0,-1.991127491E0
9.076234947E0,-1.355534077E0,-3.277269602E0,-3.463610888E0
9.085946562E0,-3.442972660E0,-5.479863167E0,-3.241078377E0
9.095657447E0,-4.855635166E0,-9.509077072E0,-1.634596944E0
9.105369218E0,-6.442974091E0,-1.494138241E1,-6.361917257E-1
9.115081666E0,-7.359724045E0,-2.072303963E1,1.695613980E0
9.124793281E0,-4.939383984E0,-2.527179718E1,5.303691387E0
9.134504166E0,2.964109182E-1,-2.778336334E1,-1.057627559E0
9.144215937E0,4.890630245E0,-2.814976311E1,-1.129950714E1
9.153928385E0,2.563610315E0,-2.590649223E1,-7.253542900E0
9.163639999E0,-3.414258718E0,-2.550898552E1,1.427617788E0
9.173350885E0,-7.673482895E0,-2.417767906E1,5.674578667E0
9.183062656E0,-1.013928699E1,-2.193680000E1,4.281357765E0
9.192775104E0,-1.127886868E1,-1.954995918E1,7.597211599E-1
9.202486718E0,-1.189173031E1,-1.831705666E1,-2.961117923E-1
9.212197604E0,-1.161655617E1,-1.857308960E1,7.354938388E-1
9.221909322E0,-1.042911720E1,-1.907827377E1,2.497807741E0
9.231621822E0,-8.588139534E0,-1.931307030E1,2.452344179E0
9.241333437E0,-4.989633560E0,-1.958585167E1,1.403689623E0
9.251044322E0,-8.120641708E-1,-1.932264137E1,1.252642632E0
9.260756041E0,1.773679733E0,-1.810648918E1,1.827219248E0
9.270468541E0,2.989831924E0,-1.651436424E1,1.834397674E0
9.280180156E0,2.736192703E0,-1.476431370E1,1.226321578E0
9.289891041E0,6.197410822E-1,-1.262632656E1,4.483551383E-1
9.299602760E0,-1.805384636E0,-1.015543842E1,-2.721835673E-1
9.309315260E0,-3.119941711E0,-7.658527851E0,-8.324031830E-1
9.319026874E0,-3.074477911E0,-5.496612549E0,-1.270588875E0
9.328737760E0,-2.119143486E0,-3.353840113E0,-2.407777786E0
9.338449479E0,-1.226022482E0,-1.144068360E0,-4.279862404E0
9.348161979E0,-8.096713424E-1,9.601200819E-1,-6.063711643E0
9.357873593E0,-5.150550604E-1,2.451745987E0,-6.503991127E0
9.367584479E0,3.107678294E-1,2.834896564E0,-5.271089077E0
9.377296197E0,1.893320918E0,2.068595171E0,-3.214757204E0
9.387008697E0,2.463111877E0,1.194915771E0,-1.526919961E0
9.396720312E0,2.195115566E0,5.485545993E-1,-1.237089276E0
9.406431197E0,1.601396561E0,4.815555736E-2,-1.658525229E0
9.416142916E0,8.877372146E-1,-3.780659735E-1,-1.957628012E0
9.425855416E0,1.983051747E-1,-8.234301209E-1,-2.115853310E0
9.435567031E0,-1.079761237E-1,-1.316650629E0,-2.067996979E0
9.445277916E0,1.193420291E-1,-1.637288928E0,-1.826022744E0
9.454989635E0,9.499505758E-1,-1.862513304E0,-1.572383523E0
9.464702135E0,2.072782516E0,-1.934298038E0,-1.174875975E0
9.474413749E0,2.661715984E0,-1.862513304E0,-4.543372095E-1
9.484124635E0,2.717050076E0,-1.737787485E0,6.684948206E-1
9.493836354E0,2.501396894E0,-1.522433400E0,1.968694806E0
9.503548854E0,2.082353830E0,-1.146461129E0,3.108276606E0
9.513260468E0,1.438385487E0,-8.018946648E-1,3.469592810E0
9.522971354E0,5.886343718E-1,-4.354937077E-1,1.025324464E0
9.532683072E0,-1.089631557E0,-5.527420044E-1,-3.422932863E0
9.542395572E0,-3.684946775E0,-1.287936807E0,-7.401897907E0
9.552107187E0,-5.272285461E0,-4.256532192E0,-6.994818687E0
9.561818072E0,-6.160321712E0,-9.394221306E0,-3.183650494E0
9.571529791E0,-7.000801086E0,-1.384487152E1,-9.185447693E-1
9.581242291E0,-6.900302410E0,-1.760848236E1,2.813660383E0
9.590953906E0,-6.438188553E0,-2.121386909E1,4.312464714E0
9.600664791E0,-2.772683144E0,-2.345953178E1,-3.186043262E0
9.610376510E0,8.877372146E-1,-2.379961205E1,-6.425027847E0
9.620089010E0,8.015955687E-1,-2.408914375E1,-1.186840057E0
9.629800624E0,-1.427318692E0,-2.441486740E1,3.273381472E0
9.639511510E0,-4.527519703E0,-2.436461830E1,4.195216179E0
9.649223229E0,-7.034300327E0,-2.391925430E1,-3.050848842E-2
9.658935729E0,-8.240880966E0,-2.392403984E1,-4.354339123E0
9.668647343E0,-8.126026154E0,-2.470200539E1,-3.698107481E0
9.678358229E0,-6.909873486E0,-2.557119751E1,-8.826524615E-1
9.688069947E0,-5.451747417E0,-2.575783920E1,7.788637877E-1
9.697782447E0,-3.692125320E0,-2.515454865E1,-3.050848842E-2
9.707494062E0,-1.558923960E0,-2.380439758E1,-1.579562068E0
9.717204947E0,4.136592150E-1,-2.201845551E1,-2.101496458E0
9.726916718E0,1.029212832E0,-1.993071747E1,-1.232303619E0
9.736629166E0,4.516452923E-2,-1.744068527E1,-5.682953820E-2
9.746340781E0,-1.839183331E0,-1.460848141E1,-5.682953820E-2
9.756051718E0,-3.364009619E0,-1.138863945E1,-7.151548862E-1
9.765763437E0,-4.214059830E0,-8.532505989E0,-1.435693622E0
9.775475885E0,-4.295415878E0,-6.449554443E0,-1.546062589E0
9.785187499E0,-3.747160196E0,-4.845465660E0,-1.275374413E0
9.794898437E0,-2.684148788E0,-3.524029493E0,-1.048056364E0
9.804610156E0,-1.405783296E0,-2.269293070E0,-1.103091240E0
9.814322604E0,-2.422732860E-1,-1.081854939E0,-1.632204175E0
9.824034322E0,3.825525343E-1,2.060818523E-1,-2.867498875E0
9.833745156E0,5.599204898E-1,1.405484200E0,-3.899403572E0
9.843456874E0,7.537391186E-1,2.200499535E0,-3.719642878E0
9.853169374E0,1.469492197E0,1.855633974E0,-2.434098721E0
9.862880989E0,1.471885085E0,1.156630635E0,-9.379864931E-1
9.872591874E0,8.159525394E-1,5.078766346E-1,2.808575630E-1
9.882303593E0,-2.781656384E-1,1.534397453E-1,8.769695163E-1
9.892016093E0,-1.245165110E0,-7.627122104E-2,5.081757307E-1
9.901727708E0,-1.451246977E0,-3.517449200E-1,-5.404788256E-1
9.911438593E0,-6.634100676E-1,-7.779664397E-1,-1.581954837E0
9.921150312E0,7.202396393E-1,-1.331007600E0,-2.101496458E0
9.930862812E0,2.443969250E0,-1.879263043E0,-2.106282234E0
9.940574426E0,3.926023722E0,-2.386840582E0,-1.948056698E0
9.950285312E0,4.660919189E0,-2.717050076E0,-1.646561027E0
9.959997083E0,4.754239559E0,-2.815155745E0,-1.265803218E0
9.969709531E0,3.887738705E0,-2.578266382E0,-1.131805062E0
9.979421249E0,2.120938063E0,-1.982154489E0,-8.228318691E-1
9.989132083E0,2.892324328E-1,-1.393221021E0,-2.267199457E-1
9.998843801E0,-1.228415370E0,-9.526425004E-1,-8.850452900E-1
1.000855625E1,-2.923431158E0,-9.406784177E-1,-3.226721287E0
1.001826797E1,-5.116453171E0,-1.520040631E0,-4.596014023E0
1.002797880E1,-6.993622303E0,-3.650849104E0,-2.781357288E0
1.003769052E1,-7.299903870E0,-7.388139248E0,1.518545032E0
1.004740302E1,-6.507580280E0,-1.197039413E1,1.317547917E0
1.005711464E1,-5.418247700E0,-1.623889160E1,-1.908276081E-1
1.006682552E1,-4.443770885E0,-2.103201294E1,1.104287624E0
1.007653729E1,-1.515853167E0,-2.560948372E1,-3.595216036E0
1.008624974E1,2.472683191E0,-2.735953331E1,-6.657430649E0
1.009596146E1,1.666002750E0,-2.797478867E1,-1.464407444E0
1.010567229E1,-3.930211067E-1,-2.773550606E1,-8.874381185E-1
1.011538401E1,-2.928216696E0,-2.682563591E1,-1.884347796E-1
1.012509651E1,-4.757529736E0,-2.583440971E1,1.561316848E-1
1.013480812E1,-5.583352566E0,-2.498226547E1,-2.243271172E-1
1.014451901E1,-6.840182781E0,-2.400539589E1,1.164108157E0
1.015423078E1,-8.341380119E0,-2.278206444E1,2.114656925E0
1.016394323E1,-8.923134804E0,-2.145584297E1,2.660519600E0
1.017365484E1,-7.632805347E0,-2.024657059E1,2.408974171E0
1.018336578E1,-4.771886349E0,-1.934417725E1,1.111466169E0
1.019307750E1,-1.554138303E0,-1.835294914E1,-2.338984162E-1
1.020279000E1,8.446664214E-1,-1.723968887E1,-6.505486369E-1
1.021250161E1,1.642074585E0,-1.588714600E1,-1.549352705E-1
1.022221250E1,9.164510965E-1,-1.420409393E1,4.052843451E-1
1.023192422E1,-8.623134494E-1,-1.207567883E1,6.493522525E-1
1.024163672E1,-2.348854542E0,-9.501898766E0,4.890331328E-1
1.025134833E1,-3.086441994E0,-7.148557663E0,-3.607180119E-1
1.026105927E1,-3.390330553E0,-4.871787071E0,-1.311266780E0
1.027077099E1,-3.505485058E0,-2.690729141E0,-1.787737608E0
1.028048344E1,-3.383152008E0,-7.181459069E-1,-2.096710920E0
1.029019516E1,-3.256332397E0,1.000798106E0,-2.948854923E0
1.029990599E1,-3.115155935E0,2.336890459E0,-3.808476448E0
1.030961771E1,-2.382653236E0,3.064607620E0,-4.112364769E0
1.031933021E1,-6.777670383E-1,2.889931440E0,-3.846761465E0
1.032904182E1,1.811964989E0,1.802991867E0,-3.046960592E0
1.033875276E1,3.138186932E0,4.959124923E-1,-2.213959217E0
1.034846448E1,3.308376312E0,-7.396813035E-1,-1.708774447E0
1.035817693E1,2.549253464E0,-1.474576950E0,-1.397408366E0
1.036788864E1,1.486241937E0,-1.879263043E0,-1.339980721E0
1.037759948E1,6.460621357E-1,-2.010868311E0,-1.546062589E0
1.038731125E1,2.700898647E-1,-1.939083695E0,-1.952842355E0
1.039702370E1,4.040879309E-1,-1.764407635E0,-2.115853310E0
1.040673531E1,1.189531922E0,-1.673181176E0,-1.677667737E0
1.041644625E1,2.314756870E0,-1.778764486E0,-8.682954907E-1
1.042615797E1,3.186043262E0,-1.967797518E0,-5.922235921E-2
1.043587047E1,3.351447105E0,-2.125723839E0,5.871388316E-1
1.044558208E1,2.630609512E0,-2.027618170E0,1.075573802E0
1.045529297E1,1.165603757E0,-1.781157374E0,1.257428288E0
1.046500474E1,-2.279163599E-1,-1.455434322E0,5.440680385E-1
1.047471719E1,-1.743171334E0,-1.302293777E0,-1.904985905E0
1.048442891E1,-4.017549038E0,-1.857727647E0,-4.598406792E0
1.049413974E1,-6.586543560E0,-3.248555899E0,-6.011069775E0
1.050385146E1,-7.244868755E0,-7.048058987E0,-3.106781006E0
1.051356396E1,-6.055037498E0,-1.195364475E1,3.358924687E-1
1.052327557E1,-4.300201416E0,-1.683978844E1,1.973480463E0
1.053298646E1,-2.550150633E0,-2.067757607E1,4.954040051E0
1.054269823E1,-4.097708762E-1,-2.370150566E1,4.300500393E0
1.055241068E1,2.250150681E0,-2.494158745E1,-4.316053867E0
1.056212240E1,2.807977438E0,-2.460868454E1,-8.187042236E0
1.057183323E1,-1.436890006E0,-2.432154655E1,-1.196411371E0
1.058154500E1,-5.595316887E0,-2.444597435E1,2.921337366E0
1.059125745E1,-8.379665375E0,-2.355524445E1,2.239083767E0
1.060096917E1,-9.821041107E0,-2.260021019E1,-6.433702111E-1
1.061068000E1,-9.495318413E0,-2.223620224E1,-3.396611691E0
1.062039172E1,-8.702995300E0,-2.261935234E1,-2.441277266E0
1.063010422E1,-7.797909737E0,-2.294238281E1,1.800599098E-1
1.063981583E1,-6.222535133E0,-2.265763855E1,1.463510156E0
1.064952677E1,-3.866801500E0,-2.174058914E1,1.032503009E0
1.065923849E1,-1.479960799E0,-2.044547272E1,-2.434697002E-1
1.066895094E1,-1.824527234E-1,-1.892752647E1,-8.754739761E-1
1.067866266E1,-3.188436031E-1,-1.713440514E1,-8.682954907E-1
1.068837349E1,-1.144666553E0,-1.500598907E1,-5.572285652E-1
1.069808526E1,-1.810469389E0,-1.272921848E1,-2.099701911E-1
1.070779771E1,-2.174178362E0,-1.041894817E1,-1.597209126E-1
1.071750943E1,-2.159821510E0,-8.197212219E0,-1.070788130E-1
1.072722026E1,-1.839183331E0,-6.219544411E0,-2.333002165E-2
1.073693198E1,-1.070489049E0,-4.488636017E0,-3.343969584E-1
1.074664448E1,-4.025924206E-1,-2.939881802E0,-1.007378340E0
1.075635609E1,-2.422732860E-2,-1.546361685E0,-1.864308000E0
1.076606703E1,-5.772684515E-2,-2.368894368E-1,-2.793321371E0
1.077577875E1,-1.151545867E-1,8.333004713E-1,-3.513859987E0
1.078549125E1,2.341975123E-1,1.422233939E0,-3.540181160E0
1.079520286E1,8.542376757E-1,1.563410521E0,-2.893819809E0
1.080491375E1,1.208674550E0,1.326521039E0,-2.003091574E0
1.081462552E1,1.043569803E0,9.816554785E-1,-1.217946768E0
1.082433797E1,2.964109182E-1,7.136593461E-1,-1.088734269E0
1.083404969E1,-5.605186820E-1,5.916253924E-1,-1.485942841E0
1.084376052E1,-9.005986452E-1,3.041875660E-1,-1.725524187E0
1.085347224E1,-7.737790346E-1,-1.866401732E-1,-1.682453394E0
1.086318474E1,8.344969153E-2,-8.186444640E-1,-1.229910851E0
1.087289646E1,1.301994562E0,-1.565504193E0,-4.423730969E-1
1.088260729E1,2.563610315E0,-2.171187401E0,5.656034350E-1
1.089231901E1,3.595515013E0,-2.535195589E0,1.140179992E0
1.090203151E1,4.246662140E0,-2.578266382E0,1.422832131E0
1.091174312E1,4.292125702E0,-2.360519648E0,1.597508192E0
1.092145406E1,3.468695641E0,-2.020439625E0,1.339083314E0
1.093116578E1,1.850250125E0,-1.395613790E0,2.617149651E-1
1.094087828E1,-4.767699242E-1,-8.904291391E-1,-2.747857809E0
1.095058990E1,-3.723232031E0,-1.259222865E0,-5.046164036E0
1.096030083E1,-6.842575550E0,-2.733799934E0,-4.497908592E0
1.097001255E1,-8.243273735E0,-6.562016964E0,-1.227517962E0
1.097972505E1,-8.508877754E0,-1.100309563E1,1.345962733E-1
1.098943667E1,-8.446663857E0,-1.529103374E1,7.788637877E-1
1.099914755E1,-7.218547821E0,-1.994746780E1,4.794618487E-1
1.100885932E1,-2.772683144E0,-2.467568398E1,-4.440480709E0
1.101857182E1,3.131008387E0,-2.725903511E1,-8.737690926E0
1.102828344E1,4.040879250E0,-2.764697266E1,-2.991925716E0
1.103799432E1,6.795616150E-1,-2.801307297E1,1.542473316E0
1.104770609E1,-3.723232031E0,-2.692613411E1,2.241476536E0
1.105741854E1,-7.568199158E0,-2.449622345E1,6.230311990E-1
1.106713026E1,-9.141180992E0,-2.345474625E1,-1.502991676E0
1.107684109E1,-8.566604614E0,-2.296631241E1,-1.112662554E0
1.108655286E1,-7.395616531E0,-2.308356094E1,3.933202326E-1
1.109626531E1,-6.553043842E0,-2.271506500E1,2.035693884E0
1.110597703E1,-5.887540340E0,-2.155634117E1,2.732304335E0
1.111568786E1,-4.340879440E0,-2.025853348E1,2.215155602E0
1.112539964E1,-1.750349760E0,-1.901605988E1,1.286142230E0
1.113511208E1,9.786644578E-1,-1.760369682E1,5.679962635E-1
1.114482380E1,2.582752943E0,-1.609532166E1,2.928216755E-1
1.115453464E1,2.314756870E0,-1.456541061E1,4.268197417E-1
1.116424641E1,3.155534863E-1,-1.272443295E1,7.259225845E-1
1.117395885E1,-1.724028707E0,-1.004058266E1,6.421737671E-1
1.118367057E1,-2.866003275E0,-7.538887024E0,-6.400800496E-2
1.119338141E1,-3.198904753E0,-5.250152111E0,-9.667003751E-1
1.120309318E1,-3.000300407E0,-3.116950512E0,-1.763809443E0
1.121280562E1,-2.739183664E0,-1.179960608E0,-2.271386862E0
1.122251734E1,-2.602792740E0,4.788636267E-1,-2.532204628E0
1.123222818E1,-2.004287958E0,1.611566067E0,-2.572882652E0
1.124193995E1,-1.307677627E0,2.269891262E0,-2.328814745E0
1.125165240E1,-2.590230405E-1,2.356033087E0,-1.794916034E0
1.126136411E1,8.829515576E-1,1.936989903E0,-1.268195987E0
1.127107495E1,1.618146300E0,1.288235903E0,-1.076770186E0
1.128078667E1,1.768894196E0,5.892325640E-1,-1.217946768E0
1.129049917E1,1.261316657E0,4.815555736E-2,-1.203589797E0
1.130021088E1,6.245267391E-1,-4.809573591E-1,-8.970093727E-1
1.130992172E1,-1.079761237E-1,-8.928219676E-1,-5.524429083E-1
1.131963349E1,-4.313062727E-1,-1.074676514E0,-2.961117923E-1
1.132934594E1,-2.422732860E-1,-1.115354419E0,-4.447658956E-1
1.133905766E1,4.785645306E-1,-1.165603757E0,-7.965108156E-1
1.134876849E1,1.510170221E0,-1.405185103E0,-7.797610760E-1
1.135848021E1,2.343470573E0,-1.769193292E0,-2.697907388E-1
1.136819271E1,2.724228621E0,-2.022832394E0,1.752742529E-1
1.137790443E1,2.666501760E0,-2.094617128E0,6.759724021E-2
1.138761526E1,2.152044773E0,-2.065903187E0,-6.601199508E-1
1.139732703E1,1.390529037E0,-1.994118571E0,-1.399801254E0
1.140703948E1,6.891329288E-1,-2.245364904E0,-2.640180588E0
1.141675120E1,-6.299105883E-1,-3.071486950E0,-3.497110367E0
1.142646203E1,-3.000300407E0,-4.498207569E0,-3.901796341E0
1.143617375E1,-5.767899036E0,-6.978667259E0,-3.125923634E0
1.144588625E1,-8.181060791E0,-1.093848991E1,-9.352945685E-1
1.145559797E1,-9.725328445E0,-1.531017685E1,7.836494446E-1
1.146530880E1,-8.741280556E0,-1.912852287E1,3.237488985E0
1.147502057E1,-3.833301783E0,-2.246112633E1,2.045265198E0
1.148473302E1,2.625823736E0,-2.554966354E1,-7.176972389E0
1.149444474E1,5.374279499E0,-2.723749924E1,-1.006899738E1
1.150415557E1,2.551646233E0,-2.924597549E1,-1.084696388E1
1.151386729E1,-1.250249863E0,-2.939941597E1,-8.065009117E0
1.152357979E1,-5.461318493E0,-2.747678185E1,5.751747489E-1
1.153329151E1,-9.959825516E0,-2.648824692E1,7.419844151E0
1.154300234E1,-1.078325558E1,-2.411546516E1,7.724031448E0
1.155271411E1,-1.014167976E1,-2.153480530E1,3.768994808E0
1.156242656E1,-8.791529655E0,-2.014846420E1,1.231107235E0
1.157213828E1,-7.484450340E0,-1.986132431E1,7.450651526E-1
1.158184911E1,-5.968895912E0,-1.934896278E1,1.463510156E0
1.159156089E1,-4.348057747E0,-1.830270004E1,2.093121529E0
1.160127333E1,-2.696112871E0,-1.702912140E1,1.932802439E0
1.161098505E1,-1.161416292E0,-1.532692623E1,7.932206988E-1
1.162069588E1,-5.174478889E-1,-1.312194061E1,-7.151548862E-1
1.163040766E1,-5.964110494E-1,-1.108923721E1,-1.490728498E0
1.164012010E1,-1.178166032E0,-9.408578873E0,-1.284945726E0
1.164983182E1,-1.714457393E0,-7.737491131E0,-9.427721500E-1
1.165954266E1,-1.618744493E0,-6.001797199E0,-9.667003751E-1
1.166925443E1,-1.137488008E0,-4.316352844E0,-1.648953915E0
1.167896687E1,-7.857431173E-1,-2.353341103E0,-3.250649452E0
1.168867859E1,-6.753742099E-1,-3.110669553E-1,-5.311767101E0
1.169838943E1,-7.761718631E-1,1.486840129E0,-6.255137444E0
1.170810120E1,-8.096713424E-1,2.492423773E0,-5.496313572E0
1.171781365E1,-6.059823632E-1,2.523530483E0,-3.540181160E0
1.172752536E1,-1.585244983E-1,1.898704767E0,-1.708774447E0
1.173723620E1,4.666004181E-1,1.259521961E0,-9.379864931E-1
1.174694797E1,1.077069283E0,8.261220455E-1,-8.778668046E-1
1.175666047E1,1.359422326E0,3.927220106E-1,-6.649056077E-1
1.176637208E1,1.309173107E0,-2.225325108E-1,-1.381855011E-1
1.177608297E1,1.244566917E0,-9.239286184E-1,1.345962733E-1
1.178579474E1,1.584646821E0,-1.625324726E0,9.631111473E-2
1.179550724E1,2.293221474E0,-2.197508574E0,1.734796353E-2
1.180521885E1,2.944368362E0,-2.551945448E0,-1.375873014E-2
1.181492979E1,3.289233923E0,-2.492124796E0,4.606183618E-2
1.182464151E1,3.236292601E0,-2.271686077E0,3.311068416E-1
1.183435401E1,2.958725214E0,-2.041975021E0,6.732804775E-1
1.184406562E1,2.420041084E0,-1.701895118E0,7.402794957E-1
1.185377656E1,1.603789330E0,-1.287936807E0,-4.758726060E-1
1.186348828E1,7.148557901E-2,-1.371685624E0,-3.559323788E0
1.187320078E1,-2.600399971E0,-1.996511340E0,-5.615954876E0
1.188291240E1,-5.583352566E0,-3.334697485E0,-4.861617565E0
1.189262333E1,-7.754838943E0,-6.698407650E0,-1.660917997E0
1.190233505E1,-8.494520187E0,-1.061515903E1,1.250249892E-1
1.191204755E1,-8.520841599E0,-1.505623817E1,7.477571070E-2
1.192175917E1,-7.366902828E0,-1.973211288E1,-6.505486369E-1
1.193147010E1,-3.840480328E0,-2.412025070E1,-3.774976730E0
1.194118182E1,3.169293642E0,-2.693331337E1,-1.029392338E1
1.195089432E1,5.288137913E0,-2.725664330E1,-4.584050179E0
1.196060604E1,1.124925733E0,-2.745763969E1,4.467998028E0
1.197031687E1,-3.799802303E0,-2.584637260E1,6.632306099E0
1.198002859E1,-8.432307243E0,-2.225773621E1,4.520640373E0
1.198974109E1,-1.194945717E1,-1.988286018E1,-2.721835673E-1
1.199945281E1,-1.300259781E1,-1.923410606E1,-2.869891644E0
1.200916365E1,-1.161655617E1,-2.077089691E1,-1.768594980E0
1.201887542E1,-9.437891006E0,-2.221227264E1,1.274178028E-1
1.202858786E1,-6.596114635E0,-2.312693024E1,7.812566161E-1
1.203829958E1,-2.581257343E0,-2.323221397E1,1.704886109E-1
1.204801042E1,1.481456280E0,-2.239652061E1,-3.945166469E-1
1.205772219E1,3.346661568E0,-2.069672012E1,-3.056831062E-1
1.206743464E1,2.922832966E0,-1.862124443E1,1.800599098E-1
1.207714635E1,5.144568682E-1,-1.587757492E1,6.469594240E-1
1.208685719E1,-1.664208174E0,-1.274118233E1,5.727819204E-1
1.209656896E1,-2.904288530E0,-9.607182503E0,-1.615155302E-2
1.210628141E1,-3.134298563E0,-6.753442764E0,-4.663013220E-1
1.211599312E1,-2.715255499E0,-4.364209175E0,-5.428716540E-1
1.212570396E1,-2.097608089E0,-2.353341103E0,-5.811567903E-1
1.213541573E1,-1.597209096E0,-5.910272002E-1,-8.180462122E-1
1.214512823E1,-1.211665511E0,9.170492887E-1,-1.457229018E0
1.215483984E1,-1.003489971E0,2.097309113E0,-2.312064886E0
1.216455078E1,-6.753742099E-1,2.736790895E0,-2.891427040E0
1.217426250E1,3.825525343E-1,2.573779821E0,-3.164208889E0
1.218397500E1,1.776072621E0,1.704886079E0,-2.900998354E0
1.219368661E1,2.264507532E0,6.346961856E-1,-2.288136721E0
1.220339755E1,1.905285001E0,-1.579262912E-1,-1.701596022E0
1.221310927E1,1.194317579E0,-6.487540603E-1,-1.471585870E0
1.222282177E1,4.402793646E-1,-1.031605721E0,-1.256231904E0
1.223253338E1,-2.590230405E-1,-1.333400369E0,-9.281160831E-1
1.224224432E1,-6.418746710E-1,-1.522433400E0,-6.768696904E-1
1.225195604E1,-6.251249313E-1,-1.575075507E0,-5.859424472E-1
1.226166854E1,3.320041299E-2,-1.532004714E0,-6.026921868E-1
1.227138026E1,1.115354419E0,-1.476969719E0,-6.888338327E-1
1.228109109E1,1.977069736E0,-1.486541033E0,-5.548357368E-1
1.229080281E1,2.503789902E0,-1.553540111E0,-7.357929647E-2
1.230051531E1,2.661715984E0,-1.649253011E0,4.339981973E-1
1.231022703E1,2.250150681E0,-1.733001828E0,8.123632669E-1
1.231993786E1,1.194317579E0,-1.749751568E0,5.201398134E-1
1.232964964E1,-6.323033571E-1,-1.955833435E0,-1.749452472E0
1.233936208E1,-3.320938826E0,-2.942274570E0,-4.679762840E0
1.234907380E1,-6.114858150E0,-5.079962254E0,-5.919843197E0
1.235878464E1,-7.419844151E0,-9.255437851E0,-3.729214191E0
1.236849641E1,-7.829016685E0,-1.450798321E1,-8.706883192E-1
1.237820885E1,-7.400402069E0,-1.934417725E1,2.210369825E0
1.238792057E1,-4.877170563E0,-2.288734818E1,7.144669533E0
1.239763141E1,-6.753742099E-1,-2.513061905E1,3.955634832E0
1.240734318E1,4.363910198E0,-2.547309303E1,-6.968497753E0
1.241705568E1,3.985844374E0,-2.513301277E1,-8.210970879E0
1.242676729E1,-3.523431420E-1,-2.549462891E1,-1.411765337E0
1.243647823E1,-3.962514400E0,-2.594717026E1,3.247060299E0
1.244618995E1,-5.655137062E0,-2.567648315E1,2.603091955E0
1.245590245E1,-7.470093250E0,-2.396710968E1,-1.038485050E0
1.246561406E1,-9.856933594E0,-2.198016930E1,-2.958425999E0
1.247532500E1,-1.115204906E1,-2.035693932E1,-1.797308922E0
1.248503672E1,-1.005075264E1,-1.941835403E1,1.008574724E0
1.249474922E1,-7.333403111E0,-1.862842369E1,2.940479994E0
1.250446083E1,-4.472484589E0,-1.776162338E1,3.230310678E0
1.251417177E1,-2.432902336E0,-1.673929024E1,2.469093800E0
1.252388349E1,-1.606780410E0,-1.538674736E1,1.173679471E0
1.253359599E1,-1.683350682E0,-1.357448292E1,1.345962733E-1
1.254330771E1,-2.205285072E0,-1.173799133E1,-3.439682424E-1
1.255301854E1,-2.554936409E0,-1.007168961E1,-3.777668774E-1
1.256273031E1,-2.739183664E0,-8.359924316E0,-4.447658956E-1
1.257244276E1,-2.753540754E0,-6.650551319E0,-6.361917257E-1
1.258215448E1,-2.322533369E0,-5.192724228E0,-8.539385796E-1
1.259186531E1,-1.800599098E0,-3.832703590E0,-1.100698471E0
1.260157708E1,-1.451246977E0,-2.595016241E0,-1.402194023E0
1.261128958E1,-1.151844978E0,-1.512862086E0,-1.811665893E0
1.262100120E1,-7.235297561E-1,-5.766702294E-1,-2.125424623E0
1.263071214E1,2.841476910E-2,1.103689447E-1,-2.326421738E0
1.264042385E1,1.010070205E0,4.190430641E-1,-2.067996979E0
1.265013635E1,1.771286964E0,5.030909777E-1,-1.591526151E0
1.265984797E1,1.912463546E0,5.820540786E-1,-1.416550994E0
1.266955891E1,1.531705618E0,7.016952634E-1,-1.653739572E0
1.267927068E1,1.079462171E0,7.016952634E-1,-1.969592094E0
1.268898312E1,7.322037220E-1,3.951148391E-1,-2.031805515E0
1.269869484E1,6.532405615E-1,-1.004985496E-1,-1.818844318E0
1.270840568E1,8.614161611E-1,-7.085745931E-1,-1.495514154E0
1.271811745E1,1.481456280E0,-1.371685624E0,-1.079162955E0
1.272782995E1,2.178365946E0,-1.941476464E0,-5.835496187E-1
1.273754156E1,2.616252422E0,-2.317149639E0,-2.572284266E-2
1.274725250E1,2.745764017E0,-2.451446772E0,3.957130313E-1
1.275696422E1,2.575574398E0,-2.425125837E0,6.589235067E-1
1.276667672E1,2.010569334E0,-2.073081732E0,7.450651526E-1
1.277638844E1,1.333101273E0,-1.668395638E0,-7.175477147E-1
1.278609927E1,5.952146277E-2,-1.632503271E0,-3.638286829E0
1.279581104E1,-2.088036776E0,-2.140080690E0,-5.333302498E0
1.280552349E1,-4.580161572E0,-3.681955814E0,-4.768297195E0
1.281523521E1,-5.705386639E0,-7.213163853E0,-2.335993052E0
1.282494604E1,-5.667101383E0,-1.101027393E1,-8.371888399E-1
1.283465781E1,-5.944967747E0,-1.484327698E1,6.254240274E-1
1.284437031E1,-6.691827774E0,-1.867149353E1,2.351546526E0
1.285408193E1,-5.289035320E0,-2.221227264E1,-1.284945726E0
1.286379286E1,-7.857431173E-1,-2.336621284E1,-7.978867054E0
1.287350464E1,5.694918036E-1,-2.433351135E1,-2.522633314E0
1.288321708E1,-2.805584669E-1,-2.607159805E1,1.918445587E0
1.289292880E1,-7.905287743E-1,-2.610270309E1,1.556830287E0
1.290263969E1,-1.692921996E0,-2.591606331E1,1.561316848E-1
1.291235141E1,-3.344866991E0,-2.568605423E1,-3.190829039E0
1.292206391E1,-5.849255085E0,-2.478366089E1,-5.161019325E0
1.293177562E1,-8.827422142E0,-2.400060844E1,-2.118246317E0
1.294148646E1,-1.034297562E1,-2.315564346E1,1.430010676E0
1.295119823E1,-9.201001167E0,-2.179562378E1,2.172084808E0
1.296091073E1,-6.177071571E0,-2.014128494E1,4.603192508E-1
1.297062234E1,-3.344866991E0,-1.881984901E1,-1.201196909E0
1.298033328E1,-2.236391783E0,-1.767308807E1,-1.016949654E0
1.299004500E1,-2.485544443E0,-1.648086548E1,-4.965107143E-2
1.299975750E1,-3.062513828E0,-1.499881077E1,3.119642437E-1
1.300946922E1,-3.878765583E0,-1.255693531E1,2.377867550E-1
1.301918010E1,-4.357629299E0,-1.070369434E1,-5.572285652E-1
1.302889182E1,-4.570590496E0,-8.726325035E0,-1.361516118E0
1.303860432E1,-4.355236530E0,-6.914061069E0,-1.586740494E0
1.304831604E1,-3.641875982E0,-5.412863731E0,-1.256231904E0
1.305802687E1,-2.535793781E0,-4.014857292E0,-1.043270707E0
1.306773864E1,-1.283749342E0,-2.475374937E0,-1.158126116E0
1.307745115E1,-4.097708687E-2,-9.693922997E-1,-1.895414591E0
1.308716286E1,1.325922847E0,4.238287210E-1,-2.889034271E0
1.309687370E1,2.851048231E0,1.331306696E0,-3.391826153E0
1.310658547E1,4.330410957E0,1.328913927E0,-3.111566782E0
1.311629797E1,5.178068161E0,5.413761139E-1,-2.101496458E0
1.312600958E1,4.421637058E0,-3.014956415E-1,-9.571290612E-1
1.313572052E1,2.266900301E0,-5.407779217E-1,-5.715855360E-1
1.314543229E1,-1.585244983E-1,-2.847459018E-1,-8.778668046E-1
1.315514479E1,-1.776670814E0,-4.037888348E-2,-1.550848126E0
1.316485641E1,-2.605185747E0,1.701895148E-1,-2.106282234E0
1.317456734E1,-2.174178362E0,-3.206382394E-1,-2.206780672E0
1.318427911E1,-9.840483218E-2,-1.175175071E0,-2.161317110E0
1.319399161E1,1.929213285E0,-1.618146300E0,-1.969592094E0
1.320370323E1,3.621836185E0,-2.020439625E0,-1.751845241E0
1.321341417E1,5.003392220E0,-2.305185556E0,-9.403793216E-1
1.322312594E1,5.747859001E0,-2.374876499E0,1.130608693E-1
1.323283844E1,5.335994720E0,-2.252543449E0,9.535398483E-1
1.324255005E1,3.423231840E0,-1.965404749E0,1.389332652E0
1.325226099E1,1.043569803E0,-1.744965911E0,1.559223056E0
1.326197276E1,-1.228415370E0,-1.747358680E0,2.808575630E-1
1.327168526E1,-3.747160196E0,-2.211865425E0,-1.845165372E0
1.328139698E1,-6.153143406E0,-3.102593660E0,-3.595216036E0
1.329110781E1,-7.946264744E0,-5.568397522E0,-3.753441334E0
1.330081958E1,-7.907979965E0,-1.027537823E1,-3.343969584E-1
1.331053208E1,-7.812266827E0,-1.551595974E1,1.458724499E0
1.332024380E1,-7.541877747E0,-1.987568283E1,2.856731176E0
1.332995464E1,-5.068596363E0,-2.368475723E1,3.358924687E-1
1.333966641E1,7.513462901E-1,-2.635395050E1,-8.936594009E0
1.334937891E1,4.759025097E0,-2.775704193E1,-1.033938694E1
1.335909062E1,3.030509949E0,-2.879612541E1,-4.969593525E0
1.336880151E1,-1.949253201E0,-2.822394180E1,-1.574776411E0
1.337851323E1,-5.650351524E0,-2.618884468E1,-4.040879309E-1
1.338822573E1,-8.126026154E0,-2.399582291E1,-6.696912646E-1
1.339793745E1,-9.425926208E0,-2.197299194E1,-4.007977992E-2
1.340764833E1,-1.000050354E1,-2.055554199E1,1.087537885E0
1.341736010E1,-9.911968231E0,-1.945903206E1,1.755434513E0
1.342707260E1,-8.655138969E0,-1.870020866E1,1.508973837E0
1.343678432E1,-6.407081604E0,-1.818066597E1,7.668996453E-1
1.344649516E1,-3.478864908E0,-1.787169266E1,3.334996700E-1
1.345620693E1,-5.054838061E-1,-1.748884201E1,4.220340848E-1
1.346591943E1,1.096211910E0,-1.633221054E1,6.326025128E-1
1.347563115E1,1.486241937E0,-1.463719559E1,1.010967612E0
1.348534203E1,7.680960894E-1,-1.270768261E1,1.144965649E0
1.349505380E1,-6.179464459E-1,-1.071565819E1,1.063609719E0
1.350476630E1,-1.664208174E0,-8.793324471E0,7.211369276E-1
1.351447792E1,-1.901396751E0,-7.115057945E0,5.129613280E-1
1.352418885E1,-1.417747378E0,-5.463113308E0,8.195417374E-2
1.353390062E1,-7.259225845E-1,-3.756133318E0,-1.124626637E0
1.354361312E1,-2.063809484E-1,-1.879263043E0,-3.015853882E0
1.355332484E1,-2.303091735E-1,2.108674943E-1,-4.823332310E0
1.356303573E1,-3.379862010E-2,1.204487085E0,-4.837689400E0
1.357274745E1,5.670989752E-1,1.812563181E0,-3.082852840E0
1.358245995E1,4.426721931E-1,2.210070848E0,-1.165304661E0
1.359217167E1,-7.666005492E-1,2.327319145E0,-1.812563092E-1
1.360188255E1,-1.966002941E0,2.461317301E0,-1.932204217E-1
1.361159432E1,-3.005086184E0,2.279462576E0,-3.726821244E-1
1.362130682E1,-3.241975546E0,1.599302888E0,-7.079764009E-1
1.363101854E1,-2.578864574E0,5.796613097E-1,-1.366301775E0
1.364072943E1,-1.228415370E0,-5.694918036E-1,-2.007877350E0
1.365044114E1,2.341975123E-1,-1.453041553E0,-2.402992249E0
1.366015370E1,1.282852054E0,-1.960619092E0,-2.285743713E0
1.366986531E1,2.333899498E0,-2.199901342E0,-1.608275890E0
1.367957625E1,3.423231840E0,-2.293221474E0,-6.457630396E-1
1.368928802E1,4.000201225E0,-2.250150681E0,2.330010980E-1
1.369900052E1,3.801297903E0,-1.907976985E0,6.852445602E-1
1.370871224E1,2.910868645E0,-1.601396561E0,1.027717352E0
1.371842312E1,1.811964989E0,-1.273579836E0,-3.296113312E-1
1.372813490E1,-9.840483218E-2,-1.833799481E0,-2.462812662E0
1.373784740E1,-2.767897606E0,-3.224627733E0,-3.875475407E0
1.374755911E1,-5.348855972E0,-5.843871117E0,-2.939283609E0
1.375726995E1,-6.672685146E0,-1.022273636E1,7.043871880E-1
1.376698172E1,-6.478866577E0,-1.583450413E1,1.240678549E0
1.377669427E1,-4.970490932E0,-2.094826508E1,1.815255046E0
1.378640588E1,-2.913859844E0,-2.501097870E1,2.392224550E0
1.379611682E1,1.900499344E0,-2.711785889E1,-3.638286829E0
1.380582859E1,3.186043262E0,-2.660788918E1,-4.993521690E0
1.381554109E1,-3.619144112E-2,-2.477887535E1,2.976073027E-1
1.382525281E1,-4.537090778E0,-2.387378883E1,1.317547917E0
1.383496370E1,-9.049954414E0,-2.293281174E1,-1.016949654E0
1.384467547E1,-1.254317665E1,-2.215963173E1,-4.165007114E0
1.385438797E1,-1.410628796E1,-2.154437637E1,-3.899403572E0
1.386409969E1,-1.287099266E1,-2.158983994E1,-5.620142221E-1
1.387381057E1,-9.461818695E0,-2.135983086E1,2.255833626E0
1.388352234E1,-6.122036934E0,-2.061297035E1,3.007778168E0
1.389323484E1,-3.131905794E0,-1.952842331E1,1.719542146E0
1.390294656E1,-1.125523925E0,-1.824287987E1,4.507479668E-1
1.391265745E1,-3.355933726E-1,-1.686371613E1,1.393819153E-1
1.392236917E1,-2.183450609E-1,-1.528385544E1,3.502494097E-1
1.393208172E1,-5.054838061E-1,-1.356251907E1,5.608177781E-1
1.394179344E1,-1.075274706E0,-1.157527924E1,3.622135222E-1
1.395150427E1,-1.551745534E0,-9.513862610E0,4.606183618E-2
1.396121604E1,-1.546959877E0,-7.581957817E0,-2.195414752E-1
1.397092859E1,-1.190130115E0,-5.676074505E0,-4.256233275E-1
1.398064021E1,-4.719842672E-1,-3.990629911E0,-7.558328509E-1
1.399035114E1,2.006980032E-1,-2.449054003E0,-1.495514154E0
1.400006292E1,4.426721931E-1,-9.502496719E-1,-2.635395050E0
1.400977542E1,1.217348501E-1,3.448655605E-1,-3.485146284E0
1.401948714E1,-3.260220885E-1,1.151844978E0,-3.724428415E0
1.402919802E1,-6.394818425E-1,1.412662625E0,-3.573680639E0
1.403890979E1,-5.461617708E-1,1.084846020E0,-3.209971666E0
1.404862229E1,-3.619144261E-1,5.102694035E-1,-2.953640461E0
1.405833401E1,-2.853440940E-1,9.601201117E-2,-2.891427040E0
1.406804490E1,-3.810569942E-1,-1.052841991E-1,-2.778964281E0
1.407775667E1,-4.935196638E-1,-1.866401732E-1,-2.642573595E0
1.408746917E1,-4.576273263E-2,-4.067798555E-1,-2.525026083E0
1.409718088E1,1.057926655E0,-9.358927608E-1,-2.362314224E0
1.410689177E1,2.513360977E0,-1.692323804E0,-2.099103689E0
1.411660354E1,3.664906979E0,-2.429911375E0,-1.926521301E0
1.412631604E1,4.119842529E0,-2.944667339E0,-1.433300734E0
1.413602776E1,3.760619879E0,-3.291626692E0,-5.356931686E-1
1.414573865E1,2.944368362E0,-3.224627733E0,3.981058598E-1
1.415545042E1,1.862214208E0,-2.815155745E0,1.030110121E0
1.416516292E1,6.317051649E-1,-2.592623234E0,6.661019921E-1
1.417487464E1,-9.819545746E-1,-2.396411896E0,-5.955137610E-1
1.418458552E1,-3.519842148E0,-2.343769789E0,-2.065604210E0
1.419429729E1,-6.722934246E0,-3.021237612E0,-4.095614910E0
1.420400979E1,-9.571888924E0,-6.495018005E0,-6.056533337E0
1.421372151E1,-9.672686577E0,-1.234846020E1,-5.251946449E0
1.422343240E1,-6.924230576E0,-1.773769569E1,-9.786644578E-1
1.423314417E1,-3.143869877E0,-2.371107864E1,2.473879576E0
1.424285667E1,1.144068360E0,-2.745046043E1,2.059622049E0
1.425256838E1,4.646562576E0,-2.888944435E1,-2.889333367E-1
1.426227927E1,4.308875561E0,-2.840818787E1,-6.385845542E-1
1.427199104E1,-3.595215976E-1,-2.648824692E1,2.181656122E0
1.428170354E1,-5.992824078E0,-2.447947311E1,3.623032570E0
1.429141531E1,-1.047458076E1,-2.251376915E1,9.296116233E-1
1.430112615E1,-1.272024536E1,-2.114686966E1,-2.838784933E0
1.431083792E1,-1.255753326E1,-2.069911194E1,-4.581656933E0
1.432055047E1,-1.069711399E1,-2.081875420E1,-3.911367655E0
1.433026219E1,-7.951050758E0,-2.115165520E1,-2.283350945E0
1.433997307E1,-4.630710125E0,-2.111815453E1,-1.464407444E0
1.434968484E1,-1.783849239E0,-2.036890221E1,-1.514955878E0
1.435939734E1,-1.800599098E-1,-1.912613106E1,-1.895414591E0
1.436910906E1,-6.729813665E-2,-1.707697678E1,-2.031805515E0
1.437881995E1,-6.996015310E-1,-1.458455276E1,-1.775773525E0
1.438853172E1,-1.436890006E0,-1.190578842E1,-1.438086390E0
1.439824422E1,-2.040180445E0,-9.317651749E0,-1.119840980E0
1.440795594E1,-2.375474691E0,-7.050451756E0,-8.012964725E-1
1.441766682E1,-2.334497690E0,-5.290830135E0,-3.678964674E-1
1.442737859E1,-2.126322031E0,-3.918845177E0,-1.094716340E-1
1.443709109E1,-1.812862277E0,-2.585444927E0,-3.296113312E-1
1.444680286E1,-1.010668516E0,-1.517647743E0,-7.965108156E-1
1.445651375E1,2.006980032E-1,-8.138588071E-1,-1.392622828E0
1.446622552E1,1.378564954E0,-3.637090325E-1,-2.096710920E0
1.447593802E1,2.214258194E0,-4.277170449E-2,-2.580060959E0
1.448564974E1,2.944368362E0,5.084747914E-3,-2.412563324E0
1.449536062E1,2.901297569E0,-6.191428751E-2,-1.447657704E0
1.450507240E1,1.589432478E0,3.379862010E-2,-5.404788256E-1
1.451478490E1,-9.840483218E-2,3.592225015E-1,-2.147558331E-1
1.452449661E1,-1.511067510E0,8.668000102E-1,-4.758726060E-1
1.453420750E1,-2.459223509E0,1.147059321E0,-1.220339537E0
1.454391927E1,-2.190928221E0,7.950153351E-1,-1.763809443E0
1.455363182E1,-8.335995674E-1,5.772684515E-2,-1.971984982E0
1.456334354E1,1.163210869E0,-8.688937426E-1,-1.909771562E0
1.457305443E1,3.032902718E0,-1.862513304E0,-1.536491275E0
1.458276620E1,4.284946918E0,-2.647658348E0,-6.266204119E-1
1.459247870E1,4.344767570E0,-2.930310488E0,3.382852972E-1
1.460219042E1,3.334697485E0,-2.707478762E0,8.027920127E-1
1.461190130E1,1.943570137E0,-2.384447813E0,1.049252748E0
1.462161307E1,4.857429862E-1,-1.965404749E0,6.876373887E-1
1.463132562E1,-8.120641708E-1,-1.517647743E0,-2.197209358E0
1.464103734E1,-2.736790895E0,-1.900798440E0,-4.830510616E0
1.465074823E1,-5.324927807E0,-2.429911375E0,-4.545764923E0
1.466046000E1,-7.378866673E0,-4.943571568E0,-1.000199914E0
1.467017250E1,-7.685447216E0,-9.075976372E0,2.416152716E0
1.467988422E1,-6.852146626E0,-1.305254841E1,2.734697104E0
1.468959510E1,-5.387141228E0,-1.693340683E1,2.377867460E0
1.469930687E1,-3.072085142E0,-2.127847481E1,-6.816553473E-1
1.470901943E1,1.519741535E0,-2.524547577E1,-8.014759064E0
1.471873115E1,4.816452980E0,-2.784078979E1,-6.597609997E0
1.472844203E1,3.504587889E0,-2.877937508E1,-3.777668774E-1
1.473815380E1,-3.403790295E-1,-2.809203720E1,-2.865405083E-1
1.474786630E1,-5.609673500E0,-2.565973282E1,-1.632204175E0
1.475757802E1,-1.034297562E1,-2.277488518E1,-7.103692293E-1
1.476728891E1,-1.359900951E1,-2.132872391E1,5.919244885E-1
1.477700068E1,-1.400818157E1,-2.098176384E1,2.490629196E0
1.478671323E1,-1.152323532E1,-2.097219276E1,3.412165165E0
1.479642495E1,-8.425128937E0,-2.075414658E1,1.992623091E0
1.480613583E1,-5.332106113E0,-2.032343864E1,5.560321808E-1
1.481584760E1,-2.945265532E0,-1.964328003E1,3.167499006E-1
1.482556016E1,-9.101698995E-1,-1.879352760E1,7.307082415E-1
1.483527187E1,3.705884218E-1,-1.746461487E1,1.156929731E0
1.484498276E1,6.939185858E-1,-1.569781399E1,1.030110121E0
1.485469453E1,4.833501875E-1,-1.373480225E1,5.632106066E-1
1.486440703E1,-2.374876440E-1,-1.157288647E1,9.391828626E-2
1.487411875E1,-1.017846942E0,-9.480362892E0,-2.410768867E-1
1.488382964E1,-1.362712502E0,-7.514958382E0,-6.912266612E-1
1.489354146E1,-1.130309582E0,-5.640182018E0,-1.320838094E0
1.490325396E1,-3.643072546E-1,-3.880560160E0,-2.302493572E0
1.491296568E1,6.053841114E-1,-1.994118571E0,-3.633501291E0
1.492267656E1,1.141675472E0,-2.560320199E-1,-4.320839405E0
1.493238833E1,1.096211910E0,1.144666553E0,-3.746263027E0
1.494210083E1,7.920243144E-1,1.800599098E0,-2.402992249E0
1.495181260E1,-3.930211067E-1,1.860419631E0,-1.241874933E0
1.496152349E1,-1.791027784E0,2.312962294E0,-9.352945685E-1
1.497123526E1,-2.748754978E0,2.779861689E0,-1.682453394E0
1.498094776E1,-3.637090445E0,2.779861689E0,-2.486740828E0
1.499065948E1,-3.728017569E0,1.992024899E0,-2.984747171E0
1.500037036E1,-2.229213476E0,4.405784607E-1,-3.487539053E0
1.501008219E1,-3.858426586E-2,-1.244866014E0,-3.623929977E0
1.501979469E1,2.051247120E0,-2.721835852E0,-2.977568626E0
1.502950641E1,4.000201225E0,-3.837489367E0,-1.598704576E0
1.503921729E1,5.321637630E0,-4.383351803E0,-9.511470050E-2
1.504892906E1,5.621039391E0,-4.416851521E0,1.044467092E0
1.505864161E1,5.474778175E0,-3.949951887E0,1.645364642E0
