"Time (s)","Gyroscope x (rad/s)","Gyroscope y (rad/s)","Gyroscope z (rad/s)"
6.870140600E-2,-1.977618039E-1,-7.895200700E-2,-3.651339412E-1
7.841229100E-2,-6.730009913E-1,-7.838697433E-1,-2.771719396E-1
8.812401000E-2,-1.219098449E0,-1.146713018E0,-1.317902952E-1
9.783651000E-2,-1.634474516E0,-1.125944257E0,1.088835225E-1
1.075481240E-1,-1.743205309E0,-1.006218195E0,3.422271907E-1
1.172590100E-1,-1.535517335E0,-6.861341596E-1,4.949389994E-1
1.269707290E-1,-1.128692985E0,1.458397806E-1,6.171084642E-1
1.366831760E-1,-6.387935281E-1,6.418477297E-1,6.562026739E-1
1.463947910E-1,-4.726430774E-1,4.769189954E-1,4.790569544E-1
1.561056760E-1,-9.283351302E-1,4.598152637E-1,4.046862945E-2
1.658173950E-1,-1.437781692E0,1.702736765E-1,-5.325061083E-1
1.755298430E-1,-1.425564766E0,-5.346440673E-1,-8.489249945E-1
1.852414580E-1,-9.686510563E-1,-7.692093849E-1,-7.206470370E-1
1.949523430E-1,-4.262186885E-1,-4.894413650E-1,-2.661767006E-1
2.046640620E-1,-4.871506989E-2,-1.864611208E-1,1.479777545E-1
2.143765100E-1,2.579302490E-1,6.642963737E-2,4.216373265E-1
2.240881240E-1,5.938962698E-1,2.802261710E-1,6.293253899E-1
2.337990100E-1,8.883246183E-1,3.779617548E-1,7.675296068E-1
2.435107290E-1,1.082574010E0,3.254288733E-1,8.005153537E-1
2.532232290E-1,1.221847177E0,2.631224692E-1,7.321004272E-1
2.629348430E-1,1.351346850E0,3.119902313E-1,5.499152541E-1
2.726456760E-1,1.480846524E0,3.999522328E-1,2.958027720E-1
2.823574470E-1,1.567586780E0,4.133908749E-1,3.924693540E-2
2.920698950E-1,1.607902646E0,3.009949923E-1,-1.672194302E-1
3.017815100E-1,1.621341348E0,7.375980914E-2,-2.967190444E-1
3.114923950E-1,1.598129153E0,-2.060082406E-1,-3.443651497E-1
3.212040100E-1,1.538266063E0,-4.234698713E-1,-3.480302393E-1
3.309165620E-1,1.439308882E0,-5.212054253E-1,-3.309265077E-1
3.406281760E-1,1.231620789E0,-4.662291706E-1,-2.356343269E-1
3.503390100E-1,8.980981708E-1,-2.292204350E-1,-6.337540597E-2
3.600507810E-1,5.291464329E-1,7.742489129E-2,1.174353883E-1
3.697632290E-1,2.225011140E-1,3.938437700E-1,2.542651594E-1
3.794748430E-1,-2.290677279E-3,6.394043565E-1,3.177932799E-1
3.891857290E-1,-1.818797737E-1,5.416688323E-1,3.141281903E-1
3.988974470E-1,-3.077143133E-1,1.605001241E-1,2.078407854E-1
4.086098950E-1,-3.455868363E-1,-3.374931216E-2,7.834116369E-2
4.183215100E-1,-2.612899244E-1,5.176930502E-2,-1.068982761E-3
4.280323950E-1,-1.146865711E-1,2.325800955E-1,-2.183778957E-2
4.377441140E-1,-1.206423342E-2,4.182776511E-1,-5.726693198E-2
4.474565620E-1,-1.206423342E-2,5.795413256E-1,-1.232384369E-1
4.571681760E-1,-1.122431830E-1,7.151494026E-1,-1.733279079E-1
4.668790620E-1,-2.270824611E-1,7.823426127E-1,-1.892099380E-1
4.765907810E-1,-2.661767006E-1,7.456917763E-1,-2.026485801E-1
4.863032290E-1,-2.258607745E-1,6.369609833E-1,-2.417428046E-1
4.960148430E-1,-1.317902952E-1,5.367820263E-1,-3.138227761E-1
5.057257290E-1,-3.038965166E-2,4.805840850E-1,-3.846810758E-1
5.154374470E-1,1.114796288E-2,4.720322192E-1,-4.042281806E-1
5.251498950E-1,-3.527642787E-2,4.708105326E-1,-3.578037918E-1
5.348615100E-1,-1.501157135E-1,3.950654566E-1,-2.735068500E-1
5.445723950E-1,-3.614688516E-1,2.338017821E-1,-2.002051920E-1
5.542841140E-1,-6.901046634E-1,1.018587798E-1,-1.647760421E-1
5.639965620E-1,-1.055391312E0,-2.397575416E-2,-1.220167428E-1
5.737081760E-1,-1.417012930E0,-1.192679256E-1,-1.572931744E-2
5.834190620E-1,-1.671125412E0,-3.416163325E-1,1.675248593E-1
5.931307810E-1,-1.617370844E0,-6.470399499E-1,3.788780272E-1
6.028432290E-1,-1.298508525E0,-4.295783341E-1,4.973823726E-1
6.125548430E-1,-1.077381849E0,-3.990359604E-1,4.411844313E-1
6.222657290E-1,-1.289956689E0,-5.798467398E-1,1.382041872E-1
6.319773430E-1,-1.628366113E0,1.030804738E-1,-3.077143133E-1
6.416898950E-1,-1.570946455E0,5.331169367E-1,-5.202891231E-1
6.514015100E-1,-1.099372387E0,1.605001241E-1,-4.396573007E-1
6.611123950E-1,-6.131379604E-1,-4.857762754E-1,-1.953184158E-1
6.708241140E-1,-3.407000601E-1,-6.543701291E-1,1.186570823E-1
6.805365620E-1,-2.038702667E-1,-5.419742465E-1,3.507790267E-1
6.902481760E-1,5.635065958E-2,-3.257342875E-1,4.973823726E-1
6.999590100E-1,4.924955964E-1,9.819369763E-2,6.146650314E-1
7.096707810E-1,9.017632604E-1,3.535278440E-1,7.284353375E-1
7.193832290E-1,1.119224906E0,3.535278440E-1,7.797465324E-1
7.290948430E-1,1.163205862E0,2.276933193E-1,7.235485911E-1
7.388057290E-1,1.138772011E0,1.446180940E-1,5.425850749E-1
7.485174470E-1,1.150988936E0,9.452861547E-2,2.677038014E-1
7.582298950E-1,1.232842445E0,1.267508045E-2,-4.382828996E-2
7.679415100E-1,1.342795014E0,-1.290414780E-1,-3.040492237E-1
7.776523950E-1,1.419761777E0,-3.538332880E-1,-4.445441067E-1
7.873641140E-1,1.409988165E0,-6.079457402E-1,-4.738647640E-1
7.970765620E-1,1.304922462E0,-7.875348330E-1,-4.396573007E-1
8.067881760E-1,1.091125965E0,-8.437327743E-1,-3.565820754E-1
8.164990620E-1,7.502731681E-1,-7.325585485E-1,-2.160872221E-1
8.262107810E-1,3.849864900E-1,-4.760027230E-1,6.261184346E-3
8.359232290E-1,1.223221645E-1,-2.255553454E-1,2.359397560E-1
8.456348430E-1,-2.305948362E-2,-9.972081333E-2,3.471139669E-1
8.553457290E-1,-6.948387623E-2,-1.082726792E-1,2.994678617E-1
8.650574470E-1,-5.238015205E-2,-2.519745007E-2,1.821851879E-1
8.747698950E-1,1.527118147E-4,2.447970361E-1,7.956285775E-2
8.844815100E-1,1.430909634E-1,4.414898455E-1,4.169032723E-2
8.941923950E-1,3.226800561E-1,4.903576374E-1,3.802524135E-2
9.039041140E-1,4.033119082E-1,5.575508475E-1,3.802524135E-2
9.136165620E-1,3.495573401E-1,6.858287454E-1,1.359135192E-2
9.233281760E-1,2.444916219E-1,8.165500760E-1,-6.459710002E-2
9.330390620E-1,1.736333370E-1,8.605310917E-1,-1.904316396E-1
9.427507810E-1,1.601946950E-1,8.055548072E-1,-3.248180151E-1
9.524632290E-1,1.687465608E-1,7.139277458E-1,-4.274403751E-1
9.621748430E-1,1.772984117E-1,5.795413256E-1,-4.897467792E-1
9.718857290E-1,1.687465608E-1,3.828485310E-1,-5.202891231E-1
9.815974470E-1,1.259872466E-1,1.348445266E-1,-4.873034060E-1
9.913098950E-1,4.413371533E-2,-1.363716573E-1,-3.663556576E-1
1.001021510E0,-8.414421231E-2,-3.648285270E-1,-1.867665499E-1
1.010732395E0,-2.673983872E-1,-5.126535892E-1,-3.161134571E-2
1.020444114E0,-5.752654076E-1,-5.150969625E-1,5.146388337E-2
1.030156562E0,-9.735378027E-1,-2.304421216E-1,7.711946964E-2
1.039868281E0,-1.447555304E0,1.079672500E-1,1.003316641E-1
1.049579062E0,-1.785964727E0,1.605001241E-1,1.540862173E-1
1.059290833E0,-1.715106368E0,-7.528692484E-2,2.383831441E-1
1.069003281E0,-1.352263093E0,2.545706034E-1,3.336753249E-1
1.078714895E0,-9.930849075E-1,9.509364963E-1,4.497362971E-1
1.088425781E0,-9.295567870E-1,8.947384953E-1,3.935383558E-1
1.098137499E0,-1.227650285E0,9.362761378E-1,-1.084253844E-2
1.107849947E0,-1.270409584E0,5.050179958E-1,-4.066715539E-1
1.117561562E0,-7.744016051E-1,-2.573194206E-1,-5.838172436E-1
1.127272447E0,-2.796153426E-1,-5.688515306E-1,-4.506525695E-1
1.136984166E0,-2.099787444E-1,-5.957288146E-1,-1.574458778E-1
1.146696614E0,-2.295258641E-1,-6.555918455E-1,3.558185324E-2
1.156408229E0,4.902049154E-2,-4.979932308E-1,2.188360244E-1
1.166119114E0,4.961606860E-1,-1.998997629E-1,4.179722369E-1
1.175830833E0,7.576032877E-1,3.222219273E-2,5.425850749E-1
1.185543333E0,7.844805717E-1,1.250709742E-1,5.621321797E-1
1.195254947E0,7.307260633E-1,1.030804738E-1,4.607315361E-1
1.204965833E0,7.478297353E-1,7.498150319E-2,2.371614426E-1
1.214677551E0,8.761076927E-1,1.116323397E-1,-2.672456764E-2
1.224389999E0,1.047144890E0,1.507265568E-1,-2.429644912E-1
1.234101614E0,1.174201131E0,9.330692142E-2,-3.724641204E-1
1.243812499E0,1.216960430E0,-5.696150661E-2,-4.054498672E-1
1.253524218E0,1.191304922E0,-2.304421216E-1,-3.687990308E-1
1.263236718E0,1.109451294E0,-3.831539452E-1,-2.954973578E-1
1.272948333E0,9.652913809E-1,-4.992149174E-1,-2.026485801E-1
1.282659166E0,7.722636461E-1,-5.615213513E-1,-1.146865711E-1
1.292370937E0,5.499152541E-1,-5.065450668E-1,-2.550287358E-2
1.302083385E0,3.336753249E-1,-3.220692277E-1,7.223268598E-2
1.311794999E0,1.663031727E-1,-8.093725890E-3,1.504211426E-1
1.321505885E0,6.490252167E-2,3.437542915E-1,1.797417998E-1
1.331217604E0,5.039489828E-3,5.783196688E-1,1.944021434E-1
1.340930051E0,-3.527642787E-2,7.175928354E-1,2.029540092E-1
1.350641666E0,-5.482354015E-2,8.202151656E-1,2.102841735E-1
1.360352551E0,-4.504998401E-2,8.214368224E-1,2.127275616E-1
1.370064322E0,-3.512371797E-3,7.786775231E-1,1.992889196E-1
1.379776770E0,1.969982497E-2,7.627955079E-1,1.553079188E-1
1.389488385E0,-1.450762246E-2,7.456917763E-1,5.879404768E-2
1.399199270E0,-9.391776472E-2,6.687250137E-1,-8.658760041E-2
1.408910989E0,-1.769929975E-1,5.489989519E-1,-2.515163720E-1
1.418623437E0,-2.258607745E-1,4.659237564E-1,-4.054498672E-1
1.428335051E0,-2.319692522E-1,4.451549351E-1,-5.288410187E-1
1.438045937E0,-2.185306102E-1,4.512633979E-1,-6.021426916E-1
1.447757656E0,-2.026485801E-1,4.500417113E-1,-6.155813336E-1
1.457470156E0,-1.843231618E-1,4.231644273E-1,-5.654918551E-1
1.467181770E0,-1.672194302E-1,3.791834414E-1,-4.530959427E-1
1.476892656E0,-1.537808031E-1,2.814478874E-1,-2.979407609E-1
1.486604374E0,-2.637332976E-1,1.751604527E-1,-1.550024897E-1
1.496316822E0,-5.361711979E-1,2.460187376E-1,-5.360184610E-2
1.506028437E0,-8.733588457E-1,2.936648130E-1,4.046862945E-2
1.515739322E0,-1.147018433E0,7.131642103E-2,1.186570823E-1
1.525451041E0,-1.193442822E0,-9.849911928E-2,2.102841735E-1
1.535163541E0,-9.222266674E-1,-7.773031294E-2,3.520007432E-1
1.544875156E0,-5.031854510E-1,-2.451024652E-1,4.705050886E-1
1.554586041E0,-3.614688516E-1,-4.601207078E-1,3.654393852E-1
1.564297760E0,-6.656708121E-1,-1.290414780E-1,-3.771981969E-2
1.574010208E0,-8.415948153E-1,3.486410677E-1,-4.750864506E-1
1.583721822E0,-6.131379604E-1,3.547495604E-1,-7.377507687E-1
1.593432708E0,-2.698417902E-1,2.521272004E-1,-7.927270532E-1
1.603144426E0,-9.758284688E-2,2.606790662E-1,-6.791094542E-1
1.612856926E0,-4.627167806E-2,2.680092454E-1,-4.616478086E-1
1.622568541E0,5.757235363E-2,6.566607859E-3,-2.160872221E-1
1.632279426E0,2.066190839E-1,-4.955498278E-1,1.969982497E-2
1.641991145E0,3.361186981E-1,-9.390249252E-1,2.176143378E-1
1.651703593E0,3.691044450E-1,-1.195580840E0,3.141281903E-1
1.661415208E0,3.446705639E-1,-1.253000498E0,3.006895781E-1
1.671126093E0,3.837648034E-1,-1.173590302E0,2.371614426E-1
1.680837864E0,5.389199853E-1,-1.044090629E0,1.834068894E-1
1.690550312E0,7.148439884E-1,-9.353598356E-1,1.553079188E-1
1.700261926E0,8.211314082E-1,-9.280297160E-1,1.345391124E-1
1.709972812E0,8.590039611E-1,-1.004996419E0,1.137702987E-1
1.719684531E0,8.663341403E-1,-1.047755718E0,1.027750522E-1
1.729396979E0,8.638907075E-1,-9.500201941E-1,1.101052165E-1
1.739108697E0,8.296833038E-1,-7.264500856E-1,1.211004704E-1
1.748819531E0,7.221741676E-1,-4.246915579E-1,1.235438585E-1
1.758531249E0,5.315898061E-1,-8.261708915E-2,1.394258887E-1
1.768243697E0,3.324536085E-1,2.961082160E-1,1.785201132E-1
1.777955312E0,2.127275616E-1,7.371399403E-1,1.821851879E-1
1.787666197E0,2.139492482E-1,1.218487620E0,1.394258887E-1
1.797377916E0,2.823641598E-1,1.565448761E0,1.149920002E-1
1.807090416E0,3.006895781E-1,1.632642031E0,1.308740228E-1
1.816802031E0,2.090624720E-1,1.349208832E0,1.711899489E-1
1.826512916E0,4.413371533E-2,7.750124335E-1,1.980672181E-1
1.836224635E0,-1.330119967E-1,1.849340051E-1,1.772984117E-1
1.845937083E0,-2.832804024E-1,-1.143811494E-1,1.797417998E-1
1.855648697E0,-3.846810758E-1,-9.605573118E-2,1.895153672E-1
1.865359583E0,-4.298837483E-1,3.833066672E-2,1.357607991E-1
1.875071301E0,-4.384356141E-1,1.849340051E-1,1.527118147E-4
1.884783801E0,-4.103366435E-1,3.095468581E-1,-1.904316396E-1
1.894495416E0,-3.468085229E-1,3.657447994E-1,-3.944546282E-1
1.904206301E0,-2.661767006E-1,2.912214398E-1,-5.642701387E-1
1.913918020E0,-1.831014603E-1,6.398624927E-2,-6.571189165E-1
1.923630468E0,-1.244601309E-1,-2.133384049E-1,-6.583406329E-1
1.933342083E0,-1.232384369E-1,-4.882196784E-1,-5.593833923E-1
1.943052968E0,-1.892099380E-1,-7.069029808E-1,-3.651339412E-1
1.952764687E0,-3.614688516E-1,-8.840487003E-1,-1.403421611E-1
1.962477187E0,-7.475243211E-1,-8.388460279E-1,6.123743951E-2
1.972188801E0,-1.234980464E0,-3.758237660E-1,2.579302490E-1
1.981899687E0,-1.503753185E0,1.389677543E-2,4.216373265E-1
1.991611406E0,-1.353484869E0,9.697200358E-2,4.729484916E-1
2.001323854E0,-8.721371889E-1,3.608580232E-1,4.375193417E-1
2.011035468E0,-3.321481943E-1,2.545706034E-1,3.910949528E-1
2.020746354E0,-2.173089087E-1,-4.918847680E-1,3.006895781E-1
2.030458124E0,-8.648070097E-1,-9.671239257E-1,1.626380831E-1
2.040170572E0,-1.310725451E0,-6.116108298E-1,-3.512371797E-3
2.049882187E0,-9.393303990E-1,-3.355078697E-1,-1.586675793E-1
2.059593072E0,-2.564031482E-1,-2.658712566E-1,-3.016058207E-1
2.069304791E0,2.750339806E-1,1.145338640E-2,-4.616478086E-1
2.079017239E0,3.910949528E-1,2.863346636E-1,-5.703786016E-1
2.088728958E0,2.884726226E-1,4.243861437E-1,-5.166240931E-1
2.098439739E0,3.410054743E-1,5.746545792E-1,-3.064926267E-1
2.108151510E0,5.059342384E-1,6.015318632E-1,-4.016320780E-2
2.117863958E0,6.134433746E-1,3.999522328E-1,1.968455315E-1
2.127575572E0,6.329904795E-1,5.909947306E-2,3.116848171E-1
2.137286458E0,6.476507783E-1,-2.292204350E-1,2.628170252E-1
2.146998176E0,7.087355256E-1,-3.403946459E-1,9.177979827E-2
2.156710624E0,8.333483934E-1,-2.707580328E-1,-9.758284688E-2
2.166422343E0,9.970554113E-1,-1.351499557E-1,-2.112004459E-1
2.176133176E0,1.119224906E0,-7.773031294E-2,-2.124221325E-1
2.185844895E0,1.164427638E0,-1.620272398E-1,-1.403421611E-1
2.195557343E0,1.171757698E0,-3.232909143E-1,-4.627167806E-2
2.205268958E0,1.159540772E0,-4.222481549E-1,3.924693540E-2
2.214979843E0,1.124111652E0,-3.758237660E-1,9.422318637E-2
2.224691562E0,1.067913771E0,-2.182251811E-1,1.149920002E-1
2.234404010E0,9.433009028E-1,-9.315420873E-3,1.247655526E-1
2.244115729E0,7.478297353E-1,2.423536479E-1,1.577513069E-1
2.253826562E0,5.242596865E-1,5.135698318E-1,2.053973973E-1
2.263538281E0,3.226800561E-1,7.444701195E-1,2.163926363E-1
2.273250729E0,2.066190839E-1,9.045121074E-1,2.005106062E-1
2.282962343E0,1.638597846E-1,1.002247691E0,1.675248593E-1
2.292673229E0,1.308740228E-1,1.020573020E0,1.418692768E-1
2.302384947E0,8.811471611E-2,8.788564801E-1,9.788827598E-2
2.312097395E0,6.490252167E-2,5.722111464E-1,2.947338112E-2
2.321809114E0,6.123743951E-2,2.509055138E-1,-7.681404054E-2
2.331519947E0,7.589777559E-2,5.421269313E-2,-1.977618039E-1
2.341231666E0,6.612421572E-2,1.679830020E-3,-2.564031482E-1
2.350944114E0,1.374406274E-3,1.267508045E-2,-2.722851634E-1
2.360655729E0,-9.636115283E-2,3.710897267E-2,-2.881672084E-1
2.370366614E0,-2.099787444E-1,5.176930502E-2,-3.113794029E-1
2.380078333E0,-3.284831047E-1,5.665608495E-2,-3.223746419E-1
2.389790781E0,-4.176668227E-1,5.176930502E-2,-3.064926267E-1
2.399502499E0,-4.604261220E-1,3.955236077E-2,-2.735068500E-1
2.409213333E0,-4.787515402E-1,-3.206948051E-3,-2.564031482E-1
2.418925051E0,-5.105155706E-1,-1.180462316E-1,-2.686200738E-1
2.428637499E0,-6.705575585E-1,-1.791309565E-1,-3.052709103E-1
2.438349114E0,-9.698727131E-1,-1.412584335E-1,-2.942756712E-1
2.448059999E0,-1.282626510E0,-1.449235082E-1,-1.757712960E-1
2.457771718E0,-1.423121452E0,-2.646495700E-1,-2.290677279E-3
2.467484218E0,-1.322942495E0,-1.876828223E-1,1.821851879E-1
2.477195833E0,-1.050504565E0,2.460187376E-1,4.253024161E-1
2.486906718E0,-7.682931423E-1,2.899997234E-1,6.171084642E-1
2.496618437E0,-7.414158583E-1,1.030804738E-1,4.949389994E-1
2.506330885E0,-8.745805621E-1,2.948864996E-1,5.635065958E-2
2.516042499E0,-8.281561732E-1,1.714953631E-1,-3.956763148E-1
2.525753385E0,-6.241331697E-1,-3.037438095E-1,-6.522321701E-1
2.535465104E0,-4.201101959E-1,-4.356867969E-1,-5.813738704E-1
2.545177604E0,-2.380777150E-1,-2.622061968E-1,-3.174878657E-1
2.554889218E0,-5.971032009E-2,5.299099907E-2,-5.971032009E-2
2.564600104E0,2.102841735E-1,4.463766217E-1,1.467560530E-1
2.574311822E0,5.157077909E-1,7.261446714E-1,3.275668323E-1
2.584024270E0,7.026270628E-1,6.894938350E-1,4.924955964E-1
2.593735885E0,7.295043468E-1,4.292729199E-1,5.548020005E-1
2.603446770E0,6.904101372E-1,1.653869003E-1,4.619532526E-1
2.613158541E0,6.891884208E-1,4.581354442E-4,2.615953386E-1
2.622870989E0,7.649334669E-1,-1.180462316E-1,6.612421572E-2
2.632582604E0,8.822161555E-1,-2.475458533E-1,-4.138490185E-2
2.642293489E0,9.762866497E-1,-4.075878263E-1,-5.604523420E-2
2.652005208E0,1.019045949E0,-5.664080977E-1,-5.360184610E-2
2.661717656E0,1.023932695E0,-6.543701291E-1,-6.337540597E-2
2.671429374E0,1.009272337E0,-6.042806506E-1,-6.948387623E-2
2.681140208E0,9.811733961E-1,-4.332434237E-1,-3.527642787E-2
2.690851926E0,9.200887084E-1,-2.060082406E-1,3.558185324E-2
2.700564374E0,8.015843034E-1,1.511846948E-2,1.149920002E-1
2.710275989E0,6.342121959E-1,2.594573796E-1,1.944021434E-1
2.719986874E0,4.949389994E-1,6.198572516E-1,2.493783981E-1
2.729698593E0,4.570664763E-1,1.117086887E0,2.530434728E-1
2.739411093E0,4.802786708E-1,1.473821759E0,2.273878902E-1
2.749122708E0,4.558447599E-1,1.427397370E0,1.638597846E-1
2.758833593E0,3.239017725E-1,1.053558826E0,1.052184403E-1
2.768545312E0,1.174353883E-1,6.161921620E-1,8.689302206E-2
2.778257760E0,-8.292251825E-2,2.948864996E-1,5.879404768E-2
2.787969374E0,-2.283041626E-1,7.742489129E-2,1.015533581E-1
2.797680260E0,-3.003841341E-1,1.756185852E-2,1.223221645E-1
2.807392031E0,-3.309265077E-1,8.719844371E-2,6.490252167E-2
2.817104479E0,-3.590254784E-1,1.873773932E-1,-6.948387623E-2
2.826816093E0,-3.834593594E-1,2.899997234E-1,-2.454078794E-1
2.836526979E0,-3.871244490E-1,3.840702176E-1,-4.078932703E-1
2.846238697E0,-3.578037918E-1,4.231644273E-1,-5.129590034E-1
2.855951197E0,-2.979407609E-1,3.828485310E-1,-5.630484819E-1
2.865662812E0,-2.417428046E-1,2.423536479E-1,-5.508314967E-1
2.875373697E0,-2.478512824E-1,2.489202656E-2,-4.860817194E-1
2.885085416E0,-3.443651497E-1,-2.548760176E-1,-3.932329118E-1
2.894797864E0,-5.825955868E-1,-5.309789777E-1,-3.126010895E-1
2.904509479E0,-9.625425935E-1,-6.299362183E-1,-2.576248348E-1
2.914220416E0,-1.380362034E0,-4.882196784E-1,-1.537808031E-1
2.923932135E0,-1.635696292E0,-2.817533016E-1,3.436015919E-2
2.933644583E0,-1.590493560E0,-3.513898849E-1,2.212794125E-1
2.943356197E0,-1.308282137E0,-2.206685692E-1,3.874298632E-1
2.953067083E0,-9.796462655E-1,3.222219273E-2,5.657972693E-1
2.962778854E0,-8.990144730E-1,-4.369085133E-1,5.706840754E-1
2.972491301E0,-1.252084136E0,-8.168554902E-1,2.237228155E-1
2.982202916E0,-1.451220393E0,-6.458182931E-1,-1.794363856E-1
2.991913801E0,-1.139688253E0,-9.634588361E-1,-4.359922409E-1
3.001625520E0,-5.508314967E-1,-1.329967141E0,-5.202891231E-1
3.011338020E0,-3.649812192E-2,-1.114948988E0,-4.140017331E-1
3.021049635E0,2.567085624E-1,-6.861341596E-1,-1.953184158E-1
3.030760520E0,4.155288339E-1,-2.683146596E-1,9.055810422E-2
3.040472239E0,6.659762263E-1,1.531699449E-1,4.167505503E-1
3.050184739E0,9.518527389E-1,3.828485310E-1,6.954495907E-1
3.059896354E0,1.107007980E0,3.083251417E-1,8.347227573E-1
3.069607239E0,1.094791055E0,8.719844371E-2,7.797465324E-1
3.079318958E0,1.030041218E0,-7.284353673E-2,4.949389994E-1
3.089031458E0,1.023932695E0,-1.388150454E-1,6.978929788E-2
3.098743072E0,1.108229637E0,-1.815743446E-1,-3.211529553E-1
3.108453958E0,1.225512266E0,-2.890834510E-1,-5.141806602E-1
3.118165676E0,1.274380088E0,-5.248705149E-1,-4.750864506E-1
3.127878124E0,1.199856758E0,-8.498412371E-1,-2.954973578E-1
3.137589843E0,1.058140159E0,-1.161373377E0,-7.803573459E-2
3.147300676E0,9.152019024E-1,-1.316528559E0,9.788827598E-2
3.157012395E0,8.064711094E-1,-1.246891975E0,2.200577259E-1
3.166724843E0,7.282826304E-1,-9.671239257E-1,3.116848171E-1
3.176436458E0,6.109999418E-1,-5.505260825E-1,3.996468186E-1
3.186147395E0,4.472928941E-1,-7.406523079E-2,4.729484916E-1
3.195859114E0,2.921377122E-1,3.852919042E-1,4.631749392E-1
3.205571562E0,2.444916219E-1,8.580876589E-1,3.410054743E-1
3.215283176E0,3.202366829E-1,1.275907159E0,1.430909634E-1
3.224994062E0,4.094203711E-1,1.432284117E0,-2.916795574E-2
3.234705833E0,3.862081766E-1,1.336991906E0,-1.782146841E-1
3.244418281E0,2.310529798E-1,1.075549364E0,-2.832804024E-1
3.254129895E0,1.725643501E-2,7.029324770E-1,-3.003841341E-1
3.263840833E0,-1.879882365E-1,3.437542915E-1,-2.160872221E-1
3.273552551E0,-3.578037918E-1,1.006370857E-1,-5.848862603E-2
3.283264999E0,-5.031854510E-1,-9.315420873E-3,9.422318637E-2
3.292976614E0,-6.180247068E-1,-2.031067200E-2,1.638597846E-1
3.302687499E0,-6.815528274E-1,3.833066672E-2,1.247655526E-1
3.312399270E0,-6.656708121E-1,1.641651988E-1,1.374406274E-3
3.322111718E0,-5.679352283E-1,3.449759781E-1,-1.623326540E-1
3.331823333E0,-4.188885093E-1,5.184566379E-1,-3.248180151E-1
3.341534218E0,-2.906105816E-1,5.856497884E-1,-4.677563012E-1
3.351245989E0,-2.099787444E-1,4.793623984E-1,-5.789304972E-1
3.360958437E0,-1.843231618E-1,2.130329758E-1,-6.058077812E-1
3.370670051E0,-3.431434333E-1,-1.595838517E-1,-5.740436912E-1
3.380380937E0,-7.169819474E-1,-3.501681983E-1,-5.215108395E-1
3.390092708E0,-1.195886254E0,-3.330644667E-1,-3.920112252E-1
3.399805156E0,-1.580719948E0,-4.161396921E-1,-1.476723254E-1
3.409516770E0,-1.667460322E0,-7.533273697E-1,1.211004704E-1
3.419227656E0,-1.429229856E0,-7.227849960E-1,3.422271907E-1
3.428939426E0,-9.955283403E-1,-1.852394342E-1,5.218162537E-1
3.438651874E0,-6.791094542E-1,-2.585411072E-1,5.609105229E-1
3.448363489E0,-8.880192041E-1,-5.224271417E-1,3.324536085E-1
3.458074374E0,-1.132358074E0,-1.420219894E-2,-5.115845799E-2
3.467786145E0,-9.100096822E-1,5.543438718E-2,-2.869454920E-1
3.477498593E0,-4.726430774E-1,-2.255553454E-1,-4.127800465E-1
3.487210208E0,-5.360184610E-2,-2.182251811E-1,-4.567610323E-1
3.496921093E0,1.980672181E-1,2.244863659E-2,-3.956763148E-1
3.506632864E0,3.800997138E-1,4.048390090E-1,-2.771719396E-1
3.516345312E0,6.109999418E-1,9.265025854E-1,-1.183516532E-1
3.526056926E0,8.553388715E-1,1.256360054E0,8.200624585E-2
3.535767864E0,9.787300229E-1,1.227039456E0,3.006895781E-1
3.545479583E0,9.384140968E-1,9.741486907E-1,4.521796703E-1
3.555192031E0,8.235748410E-1,6.662816405E-1,4.851654470E-1
3.564903645E0,7.343910933E-1,3.742966652E-1,4.069769979E-1
3.574614583E0,6.916317940E-1,4.199574888E-2,2.359397560E-1
3.584326301E0,6.659762263E-1,-3.538332880E-1,4.779879749E-2
3.594038749E0,6.415423155E-1,-7.631009221E-1,-4.504998401E-2
3.603750364E0,6.158867478E-1,-1.199245930E0,3.924693540E-2
3.613461301E0,5.902311802E-1,-1.495048642E0,1.748550236E-1
3.623173020E0,5.963396430E-1,-1.584232330E0,2.896943092E-1
3.632885468E0,6.305471063E-1,-1.486496806E0,3.727695346E-1
3.642597083E0,6.562026739E-1,-1.238340139E0,4.130854607E-1
3.652308020E0,6.317687631E-1,-9.011524320E-1,4.253024161E-1
3.662019739E0,5.609105229E-1,-5.077667832E-1,4.253024161E-1
3.671732187E0,4.656183124E-1,-1.021642014E-1,4.240806997E-1
3.681443801E0,3.886515796E-1,3.046600819E-1,3.935383558E-1
3.691154739E0,3.862081766E-1,7.921161652E-1,3.019112647E-1
3.700866458E0,4.607315361E-1,1.306449533E0,1.687465608E-1
3.710578906E0,5.352548957E-1,1.621646762E0,1.481304597E-2
3.720290624E0,5.157077909E-1,1.626533508E0,-1.256818175E-1
3.730001406E0,3.752129376E-1,1.344322085E0,-2.002051920E-1
3.739713176E0,1.504211426E-1,8.495358229E-1,-1.879882365E-1
3.749425624E0,-1.036913246E-1,3.034383655E-1,-7.803573459E-2
3.759137343E0,-3.199312389E-1,-9.605573118E-2,3.802524135E-2
3.768848176E0,-4.665345848E-1,-3.025220931E-1,1.504211426E-1
3.778559895E0,-5.447230339E-1,-3.403946459E-1,1.980672181E-1
3.788272343E0,-5.948125124E-1,-2.426590770E-1,1.565296054E-1
3.797984062E0,-6.216897964E-1,-8.017370105E-2,4.413371533E-2
3.807694895E0,-6.021426916E-1,9.208522737E-2,-1.220167428E-1
3.817406614E0,-5.435013771E-1,2.276933193E-1,-3.052709103E-1
3.827119062E0,-4.787515402E-1,3.095468581E-1,-4.408790171E-1
3.836830781E0,-4.237752855E-1,3.144336343E-1,-5.031854510E-1
3.846541614E0,-3.846810758E-1,2.252499312E-1,-5.056288242E-1
3.856253333E0,-3.895678520E-1,5.299099907E-2,-4.763081372E-1
3.865965781E0,-5.752654076E-1,-1.925695986E-1,-4.262186885E-1
3.875677499E0,-9.820896983E-1,-3.330644667E-1,-3.297048211E-1
3.885388333E0,-1.523300409E0,-2.475458533E-1,-1.391204596E-1
3.895100051E0,-1.971662283E0,-1.278197914E-1,8.444963396E-2
3.904812499E0,-2.018086672E0,-1.656923145E-1,2.493783981E-1
3.914524218E0,-1.497644782E0,5.421269313E-2,3.654393852E-1
3.924235051E0,-7.646280527E-1,1.067455560E-1,3.825430870E-1
3.933946770E0,-4.188885093E-1,-6.824691296E-1,1.748550236E-1
3.943659218E0,-7.658497691E-1,-1.105175376E0,-2.881672084E-1
3.953370937E0,-1.256971002E0,-7.240067124E-1,-6.375718117E-1
3.963081770E0,-1.237423778E0,-6.470399499E-1,-7.145385742E-1
3.972793489E0,-7.291989326E-1,-6.274928451E-1,-6.766660213E-1
3.982505937E0,-1.635543555E-1,-3.648285270E-1,-5.899257660E-1
3.992217656E0,9.910997003E-2,-7.650861889E-2,-4.176668227E-1
4.001928489E0,1.491994411E-1,1.389677543E-2,-9.636115283E-2
4.011640208E0,2.909159958E-1,1.679830020E-3,2.994678617E-1
4.021352656E0,5.511369109E-1,-8.261708915E-2,6.415423155E-1
4.031064374E0,7.307260633E-1,-2.121167034E-1,8.115105629E-1
4.040775208E0,7.795938253E-1,-2.670929730E-1,7.638645172E-1
4.050486926E0,7.991409302E-1,-2.744231224E-1,5.535803437E-1
4.060199374E0,8.785510659E-1,-2.451024652E-1,2.958027720E-1
4.069911093E0,1.006829023E0,-1.901262105E-1,7.956285775E-2
4.079621926E0,1.124111652E0,-1.913478971E-1,-4.138490185E-2
4.089333645E0,1.194969893E0,-2.866400778E-1,-8.780929446E-2
4.099046093E0,1.207186937E0,-4.271349311E-1,-8.292251825E-2
4.108757812E0,1.182752967E0,-5.248705149E-1,-5.482354015E-2
4.118468645E0,1.137550354E0,-5.297572613E-1,-2.794626169E-2
4.128180364E0,1.070357084E0,-4.369085133E-1,-1.939439960E-2
4.137892812E0,9.616262913E-1,-2.023431510E-1,-3.038965166E-2
4.147604531E0,8.272398710E-1,2.215848416E-1,-3.527642787E-2
4.157315364E0,6.965186000E-1,7.835643291E-1,-2.672456764E-2
4.167027083E0,5.499152541E-1,1.262468576E0,-1.695101149E-2
4.176739531E0,3.849864900E-1,1.487260342E0,-1.450762246E-2
4.186451249E0,2.518217862E-1,1.477486849E0,-1.450762246E-2
4.196162083E0,1.516428292E-1,1.312558055E0,-9.620844387E-3
4.205873801E0,5.512896553E-2,9.998042583E-1,-9.620844387E-3
4.215586249E0,-7.314895838E-2,5.905365944E-1,7.482878864E-3
4.225297968E0,-2.441861928E-1,2.203631550E-1,4.657710344E-2
4.235008801E0,-4.030064642E-1,2.367033064E-2,7.956285775E-2
4.244720520E0,-4.909684956E-1,7.009471953E-2,9.055810422E-2
4.254432968E0,-5.202891231E-1,2.276933193E-1,6.856760383E-2
4.264144687E0,-4.958552718E-1,3.681881726E-1,-5.955760833E-3
4.273855520E0,-4.091149569E-1,4.720322192E-1,-1.330119967E-1
4.283567239E0,-2.759502530E-1,5.050179958E-1,-2.967190444E-1
4.293279687E0,-1.330119967E-1,4.414898455E-1,-4.653128982E-1
4.302991406E0,-3.405473381E-2,3.193204105E-1,-5.764871240E-1
4.312702239E0,-4.734066315E-3,1.629435122E-1,-5.935907960E-1
4.322413958E0,-5.604523420E-2,-4.352286831E-2,-5.337277651E-1
4.332126406E0,-2.661767006E-1,-1.718007922E-1,-4.482091665E-1
4.341838124E0,-6.216897964E-1,-1.840177327E-1,-3.309265077E-1
4.351548958E0,-1.065164924E0,-2.451024652E-1,-1.635543555E-1
4.361260676E0,-1.471989155E0,-4.503471553E-1,3.802524135E-2
4.370973124E0,-1.613705754E0,-7.313368917E-1,2.225011140E-1
4.380684843E0,-1.369366884E0,-7.398887277E-1,3.837648034E-1
4.390395676E0,-8.819107413E-1,-8.315158486E-1,5.193728805E-1
4.400107395E0,-6.241331697E-1,-1.068524599E0,5.071559548E-1
4.409819895E0,-8.232693672E-1,-6.983511448E-1,2.701472044E-1
4.419531510E0,-8.806890249E-1,-1.033858955E-1,-8.780929446E-2
4.429242395E0,-6.229115129E-1,-2.275406010E-2,-3.871244490E-1
4.438954114E0,-2.918322682E-1,4.581354442E-4,-5.435013771E-1
4.448666614E0,-4.749337584E-2,2.733541466E-2,-5.728220344E-1
4.458378229E0,6.261184346E-3,1.763821393E-1,-4.836383164E-1
4.468089114E0,6.734590977E-2,5.355603099E-1,-2.796153426E-1
4.477800833E0,2.615953386E-1,9.521581531E-1,-6.704048812E-2
4.487513333E0,4.998257756E-1,1.148851037E0,1.027750522E-1
4.497224947E0,6.513158679E-1,9.460496902E-1,2.237228155E-1
4.506935833E0,6.403206587E-1,4.475983381E-1,2.774773538E-1
4.516647551E0,5.450284481E-1,-5.573981255E-2,2.664821148E-1
4.526360051E0,4.692834020E-1,-4.149180055E-1,2.127275616E-1
4.536071666E0,4.876088202E-1,-6.458182931E-1,1.577513069E-1
4.545782551E0,5.853443742E-1,-7.753179073E-1,1.259872466E-1
4.555494270E0,6.952968836E-1,-8.510629535E-1,1.259872466E-1
4.565206770E0,7.637118101E-1,-9.072608948E-1,1.516428292E-1
4.574918385E0,8.040276766E-1,-9.341381788E-1,1.956238300E-1
4.584629270E0,8.492304087E-1,-9.121476412E-1,2.420482337E-1
4.594340989E0,9.152019024E-1,-8.241856694E-1,2.774773538E-1
4.604053489E0,1.004385591E0,-6.543701291E-1,2.884726226E-1
4.613765104E0,1.110673070E0,-4.051444530E-1,2.628170252E-1
4.623475989E0,1.176644564E0,-1.510319859E-1,2.273878902E-1
4.633187708E0,1.118003249E0,6.398624927E-2,1.980672181E-1
4.642900208E0,9.347490072E-1,3.046600819E-1,1.626380831E-1
4.652611822E0,7.307260633E-1,6.589514613E-1,1.113269106E-1
4.662322708E0,6.268820167E-1,1.076771021E0,4.413371533E-2
4.672034426E0,6.134433746E-1,1.399298310E0,-2.428117767E-2
4.681746926E0,5.792359114E-1,1.493368864E0,-8.047912270E-2
4.691458541E0,4.436278343E-1,1.302784443E0,-3.771981969E-2
4.701169426E0,1.809635013E-1,9.106205702E-1,1.236965694E-2
4.710881197E0,-1.928750277E-1,3.938437700E-1,4.535540938E-2
4.720593645E0,-6.119162440E-1,-1.644706279E-1,1.101052165E-1
4.730305260E0,-9.833113551E-1,-5.774033666E-1,1.308740228E-1
4.740016145E0,-1.243532300E0,-7.655443549E-1,7.711946964E-2
4.749727916E0,-1.366923451E0,-7.838697433E-1,-3.649812192E-2
4.759440364E0,-1.349819779E0,-6.641436815E-1,-1.953184158E-1
4.769151979E0,-1.211768270E0,-4.259132445E-1,-3.602471650E-1
4.778862864E0,-9.967499971E-1,-1.498102844E-1,-4.885250926E-1
4.788574635E0,-7.389724851E-1,6.154286116E-2,-5.532749295E-1
4.798287083E0,-4.677563012E-1,1.275143623E-1,-5.215108395E-1
4.807998697E0,-2.649549842E-1,4.321744293E-2,-3.846810758E-1
4.817709583E0,-2.490729690E-1,-1.901262105E-1,-1.855448484E-1
4.827421354E0,-4.628695250E-1,-3.843756318E-1,5.268557742E-2
4.837133801E0,-8.709154725E-1,-3.135173619E-1,3.190149665E-1
4.846845416E0,-1.226428628E0,2.733541466E-2,5.413633585E-1
4.856556354E0,-1.245975733E0,5.294518471E-1,6.610894203E-1
4.866268072E0,-8.904625773E-1,1.012021184E0,6.759024858E-1
4.875980520E0,-3.700207174E-1,8.788564801E-1,5.890094638E-1
4.885692239E0,-1.672194302E-1,2.032594234E-1,2.896943092E-1
4.895403072E0,-5.789304972E-1,-1.082726792E-1,-1.953184158E-1
4.905114791E0,-1.076160192E0,-2.426590770E-1,-5.471664071E-1
4.914827239E0,-1.192221165E0,-6.519267559E-1,-6.925480962E-1
4.924538958E0,-8.953493834E-1,-8.290724158E-1,-6.974348426E-1
4.934249791E0,-4.836383164E-1,-6.445965767E-1,-5.960342288E-1
4.943961510E0,-2.221956849E-1,-4.356867969E-1,-4.530959427E-1
4.953673958E0,-2.916795574E-2,-2.658712566E-1,-2.441861928E-1
4.963385676E0,2.493783981E-1,-6.917845458E-2,5.146388337E-2
4.973096510E0,5.584670901E-1,2.244863659E-2,3.507790267E-1
4.982808229E0,7.881456614E-1,-6.551336497E-2,5.670189857E-1
4.992520729E0,8.822161555E-1,-2.072299272E-1,6.354338527E-1
5.002232343E0,9.054283500E-1,-2.560977042E-1,5.450284481E-1
5.011943229E0,9.530744553E-1,-2.145601064E-1,3.617742956E-1
5.021654947E0,1.054475069E0,-1.156028435E-1,1.614163816E-1
5.031367447E0,1.174201131E0,-4.474456236E-2,1.527118147E-4
5.041079062E0,1.265828252E0,-7.895200700E-2,-9.880454093E-2
5.050789947E0,1.313474298E0,-2.145601064E-1,-1.440072358E-1
5.060501666E0,1.302479029E0,-4.234698713E-1,-1.525591016E-1
5.070214166E0,1.253611326E0,-6.421532035E-1,-1.452289373E-1
5.079925781E0,1.205965161E0,-7.667660117E-1,-1.281252056E-1
5.089636666E0,1.165649295E0,-7.191199064E-1,-1.073564067E-1
5.099348385E0,1.097234368E0,-5.163186193E-1,-1.012479365E-1
5.109060885E0,9.652913809E-1,-1.803526580E-1,-8.170082420E-2
5.118772499E0,7.942541242E-1,2.802261710E-1,-1.206423342E-2
5.128483385E0,6.000047326E-1,6.968240142E-1,9.055810422E-2
5.138195104E0,4.216373265E-1,9.326110482E-1,1.809635013E-1
5.147907604E0,3.019112647E-1,9.900307059E-1,2.457133085E-1
5.157619218E0,2.322746664E-1,8.556442857E-1,2.567085624E-1
5.167330104E0,1.882936656E-1,6.113054156E-1,1.980672181E-1
5.177041822E0,1.760767251E-1,3.657447994E-1,1.223221645E-1
5.186754322E0,1.724116355E-1,1.482831687E-1,8.689302206E-2
5.196465937E0,1.394258887E-1,1.756185852E-2,9.055810422E-2
5.206176822E0,7.345438004E-2,-1.175880991E-2,9.422318637E-2
5.215888541E0,-2.061609551E-2,3.955236077E-2,7.834116369E-2
5.225601041E0,-1.378987730E-1,1.226275861E-1,2.947338112E-2
5.235312656E0,-2.564031482E-1,2.008160353E-1,-4.627167806E-2
5.245023541E0,-3.480302393E-1,2.521272004E-1,-1.232384369E-1
5.254735260E0,-3.981196880E-1,2.154763639E-1,-2.002051920E-1
5.264447760E0,-4.091149569E-1,8.231166750E-2,-2.832804024E-1
5.274159374E0,-4.005630910E-1,-8.383878320E-2,-3.480302393E-1
5.283870260E0,-3.932329118E-1,-2.548760176E-1,-3.761292100E-1
5.293582031E0,-4.726430774E-1,-3.794888556E-1,-3.859027624E-1
5.303294479E0,-6.730009913E-1,-2.524326444E-1,-3.553603888E-1
5.313006093E0,-9.344435930E-1,-3.206948051E-3,-2.124221325E-1
5.322716979E0,-1.114032745E0,8.842013776E-2,-3.283303976E-2
5.332428697E0,-1.062721491E0,3.344388679E-2,1.382041872E-1
5.342141197E0,-8.403730989E-1,2.081461996E-1,3.202366829E-1
5.351852812E0,-5.544965863E-1,2.899997234E-1,5.157077909E-1
5.361563697E0,-3.455868363E-1,3.710897267E-2,5.951179266E-1
5.371275416E0,-3.773508966E-1,8.719844371E-2,3.813214004E-1
5.380987916E0,-4.677563012E-1,4.072824121E-1,-5.848862603E-2
5.390699531E0,-4.604261220E-1,-9.315420873E-3,-4.824166298E-1
5.400410416E0,-4.579827189E-1,-6.617003083E-1,-7.560762167E-1
5.410122187E0,-4.897467792E-1,-9.463551044E-1,-7.072083950E-1
5.419834635E0,-5.031854510E-1,-8.302941322E-1,-4.005630910E-1
5.429546249E0,-4.188885093E-1,-3.868190348E-1,-1.206423342E-2
5.439257135E0,-1.366770715E-1,2.044811249E-1,3.177932799E-1
5.448968854E0,1.944021434E-1,5.111264586E-1,5.083776116E-1
5.458681354E0,4.155288339E-1,4.353813827E-1,5.951179266E-1
5.468392968E0,4.827220440E-1,2.020377368E-1,5.890094638E-1
5.478103854E0,4.827220440E-1,7.009471953E-2,4.753918648E-1
5.487815624E0,5.193728805E-1,1.140757278E-1,2.750339806E-1
5.497528072E0,6.342121959E-1,2.423536479E-1,6.368082762E-2
5.507239687E0,7.893673778E-1,3.498627543E-1,-1.085781008E-1
5.516950572E0,9.152019024E-1,3.742966652E-1,-2.038702667E-1
5.526662291E0,9.542961121E-1,2.704526186E-1,-1.953184158E-1
5.536374791E0,9.017632604E-1,4.688252881E-2,-1.073564067E-1
5.546086406E0,8.064711094E-1,-2.084516287E-1,-9.620844387E-3
5.555797291E0,7.185090780E-1,-3.880407214E-1,4.413371533E-2
5.565509010E0,6.574243903E-1,-4.552339315E-1,3.924693540E-2
5.575221510E0,6.000047326E-1,-4.259132445E-1,6.261184346E-3
5.584933124E0,4.998257756E-1,-2.964136302E-1,-7.177455351E-3
5.594644010E0,3.520007432E-1,-9.116895497E-2,1.236965694E-2
5.604355729E0,2.053973973E-1,1.641651988E-1,4.535540938E-2
5.614068229E0,1.015533581E-1,4.158342779E-1,7.589777559E-2
5.623779843E0,6.001574174E-2,5.795413256E-1,1.039967462E-1
5.633490729E0,7.101099193E-2,6.027535200E-1,1.308740228E-1
5.643202447E0,8.444963396E-2,4.866925478E-1,1.259872466E-1
5.652914947E0,7.101099193E-2,3.095468581E-1,9.177979827E-2
5.662626562E0,3.436015919E-2,1.287360638E-1,6.123743951E-2
5.672337447E0,-1.450762246E-2,-9.315420873E-3,5.635065958E-2
5.682049166E0,-7.192726433E-2,-6.917845458E-2,6.856760383E-2
5.691761614E0,-1.415638477E-1,-9.605573118E-2,6.734590977E-2
5.701473333E0,-2.160872221E-1,-1.253764033E-1,3.069507517E-2
5.711184166E0,-2.845021188E-1,-1.559187621E-1,-4.016320780E-2
5.720895885E0,-3.187095523E-1,-1.669140160E-1,-1.293469071E-1
5.730608333E0,-2.979407609E-1,-1.400367320E-1,-2.148655206E-1
5.740320051E0,-2.454078794E-1,-1.058292910E-1,-2.722851634E-1
5.750030885E0,-1.977618039E-1,-1.204896197E-1,-2.930539846E-1
5.759742604E0,-1.977618039E-1,-2.121167034E-1,-2.832804024E-1
5.769455051E0,-2.612899244E-1,-4.136963189E-1,-2.698417902E-1
5.779166770E0,-4.567610323E-1,-6.311579347E-1,-2.747285664E-1
5.788877604E0,-8.623636365E-1,-6.922426820E-1,-2.710634768E-1
5.798589322E0,-1.347376347E0,-5.260922313E-1,-1.855448484E-1
5.808301770E0,-1.644248128E0,-2.732014358E-1,1.374406274E-3
5.818013385E0,-1.618592501E0,-2.153236605E-2,2.298312783E-1
5.827724322E0,-1.302173615E0,5.318952799E-1,4.888305068E-1
5.837436041E0,-7.291989326E-1,7.285880446E-1,6.881194115E-1
5.847148489E0,-3.260397315E-1,3.833066672E-2,5.230379701E-1
5.856860104E0,-6.009209752E-1,-4.955498278E-1,-5.604523420E-2
5.866570989E0,-1.085933685E0,-5.541911721E-1,-5.972558856E-1
5.876282760E0,-1.151905179E0,-8.107470274E-1,-8.061656952E-1
5.885995208E0,-6.998782754E-1,-8.327375054E-1,-7.401941419E-1
5.895706822E0,-7.070557028E-2,-5.566345453E-1,-4.873034060E-1
5.905417708E0,2.811424434E-1,-2.499892414E-1,-1.953184158E-1
5.915129426E0,3.532224298E-1,2.977880463E-2,9.177979827E-2
5.924841926E0,4.558447599E-1,2.386885732E-1,3.556658030E-1
5.934553541E0,6.354338527E-1,3.095468581E-1,5.865660906E-1
5.944264426E0,7.576032877E-1,2.130329758E-1,7.186617851E-1
5.953976145E0,7.747070193E-1,6.887302548E-2,6.832326651E-1
5.963688645E0,7.551599145E-1,-1.420219894E-2,4.717268050E-1
5.973400260E0,7.649334669E-1,1.679830020E-3,1.675248593E-1
5.983111145E0,8.150229454E-1,4.199574888E-2,-1.220167428E-1
5.992822864E0,8.675557971E-1,-3.206948051E-3,-2.881672084E-1
6.002535364E0,8.944330812E-1,-1.388150454E-1,-3.187095523E-1
6.012246979E0,8.871029615E-1,-2.964136302E-1,-2.551814318E-1
6.021957864E0,8.492304087E-1,-4.112529159E-1,-1.537808031E-1
6.031669583E0,7.954758406E-1,-4.430169761E-1,-4.627167806E-2
6.041382031E0,7.258392572E-1,-3.672719002E-1,5.512896553E-2
6.051093749E0,6.427640319E-1,-2.145601064E-1,1.272089481E-1
6.060804583E0,5.279247165E-1,-2.641914412E-2,1.748550236E-1
6.070516301E0,3.923166394E-1,2.105895877E-1,2.139492482E-1
6.080228749E0,2.896943092E-1,5.270084739E-1,2.163926363E-1
6.089940364E0,2.530434728E-1,8.519791961E-1,1.663031727E-1
6.099651249E0,2.835858464E-1,1.079214454E0,1.052184403E-1
6.109363020E0,3.324536085E-1,1.184280157E0,5.390727147E-2
6.119075468E0,3.458922505E-1,1.205048919E0,1.374406274E-3
6.128787083E0,3.104631305E-1,1.152516007E0,-2.061609551E-2
6.138497968E0,2.359397560E-1,1.030346632E0,-2.183778957E-2
6.148209687E0,1.198787764E-1,8.458707333E-1,-1.084253844E-2
6.157922187E0,-4.993676394E-2,6.051968932E-1,2.596100792E-3
6.167633801E0,-2.698417902E-1,3.633013964E-1,-2.794626169E-2
6.177344687E0,-4.934118688E-1,1.666085869E-1,-1.097997949E-1
6.187056406E0,-6.620057225E-1,3.344388679E-2,-2.075353563E-1
6.196768906E0,-7.169819474E-1,-5.696150661E-2,-3.089359999E-1
6.206480520E0,-6.607840061E-1,-1.021642014E-1,-3.920112252E-1
6.216191406E0,-5.593833923E-1,-1.339282542E-1,-4.543176591E-1
6.225903124E0,-4.579827189E-1,-2.231119573E-1,-5.019637346E-1
6.235615572E0,-3.797942698E-1,-3.929274976E-1,-5.166240931E-1
6.245327187E0,-4.323271513E-1,-5.187620521E-1,-5.227325559E-1
6.255038124E0,-7.084301114E-1,-4.711159468E-1,-5.117372870E-1
6.264749843E0,-1.081046939E0,-2.890834510E-1,-4.152234197E-1
6.274462291E0,-1.300951958E0,-2.243336588E-1,-2.564031482E-1
6.284173906E0,-1.277739763E0,-2.915268540E-1,-6.337540597E-2
6.293884791E0,-1.059056401E0,-3.985778242E-2,1.858502775E-1
6.303596562E0,-7.328640223E-1,7.864658535E-2,4.766135812E-1
6.313309010E0,-6.094728708E-1,-3.171824515E-1,5.914528370E-1
6.323020624E0,-9.820896983E-1,-2.646495700E-1,3.446705639E-1
6.332731510E0,-1.324164152E0,2.814478874E-1,-1.171299592E-1
6.342443229E0,-1.250862479E0,3.168770075E-1,-4.482091665E-1
6.352155729E0,-9.185615778E-1,1.788255423E-1,-6.302416325E-1
6.361867343E0,-5.068505406E-1,1.043021679E-1,-7.511894107E-1
6.371578229E0,-1.953184158E-1,6.887302548E-2,-7.658497691E-1
6.381289947E0,2.214321308E-2,1.140757278E-1,-5.960342288E-1
6.391002395E0,2.677038014E-1,2.496838123E-1,-2.808370292E-1
6.400714010E0,5.095993280E-1,3.718532622E-1,1.027750522E-1
6.410424947E0,6.904101372E-1,4.011739492E-1,4.607315361E-1
6.420136666E0,8.040276766E-1,4.060607255E-1,7.088882327E-1
6.429849114E0,8.626690507E-1,4.329380095E-1,8.139539957E-1
6.439560729E0,9.237537384E-1,5.074613690E-1,7.589777112E-1
6.449271614E0,1.025154471E0,5.587725043E-1,5.755708218E-1
6.458983385E0,1.131441832E0,4.732539058E-1,3.251234591E-1
6.468695833E0,1.193748236E0,1.971509457E-1,9.177979827E-2
6.478407447E0,1.196191669E0,-2.096733153E-1,-3.894151375E-2
6.488118333E0,1.174201131E0,-6.531484127E-1,-4.138490185E-2
6.497830051E0,1.135106921E0,-1.034317136E0,5.268557742E-2
6.507542499E0,1.058140159E0,-1.255443811E0,1.614163816E-1
6.517254218E0,9.518527389E-1,-1.332410574E0,2.603736520E-1
6.526965051E0,8.260182142E-1,-1.315306902E0,3.336753249E-1
6.536676770E0,6.574243903E-1,-1.162595034E0,3.764346242E-1
6.546389218E0,4.595098495E-1,-7.887565494E-1,3.862081766E-1
6.556100833E0,3.177932799E-1,-2.609844804E-1,3.373403847E-1
6.565811718E0,2.799207568E-1,2.472404242E-1,2.347180545E-1
6.575523489E0,3.067980409E-1,6.503996253E-1,1.467560530E-1
6.585235937E0,3.251234591E-1,8.422056437E-1,1.125486046E-1
6.594947551E0,2.579302490E-1,8.238802552E-1,7.223268598E-2
6.604658437E0,1.015533581E-1,7.053758502E-1,1.969982497E-2
6.614370156E0,-8.414421231E-2,5.367820263E-1,-2.794626169E-2
6.624082604E0,-2.564031482E-1,3.804051280E-1,-5.604523420E-2
6.633794322E0,-4.164451063E-1,2.826695740E-1,-8.047912270E-2
6.643505156E0,-5.703786016E-1,2.301367074E-1,-1.195733473E-1
6.653216874E0,-7.133168578E-1,1.629435122E-1,-1.818797737E-1
6.662929322E0,-8.208259940E-1,8.108997345E-2,-2.747285664E-1
6.672640937E0,-8.330429196E-1,5.344913341E-3,-3.907895386E-1
6.682351822E0,-7.218687534E-1,-4.230117425E-2,-5.031854510E-1
6.692063593E0,-5.251759291E-1,-4.840964451E-2,-5.777087808E-1
6.701776041E0,-3.174878657E-1,-5.940489471E-2,-5.960342288E-1
6.711487656E0,-2.136438340E-1,-1.168245375E-1,-5.471664071E-1
6.721198541E0,-3.260397315E-1,-1.681357026E-1,-4.518742561E-1
6.730910260E0,-6.351284385E-1,-1.901262105E-1,-3.064926267E-1
6.740622708E0,-1.043174386E0,-1.730224788E-1,-9.147437662E-2
6.750334426E0,-1.380362034E0,-2.133384049E-1,1.479777545E-1
6.760045260E0,-1.502531528E0,-2.402156889E-1,3.605526090E-1
6.769756979E0,-1.325385809E0,2.367033064E-2,5.315898061E-1
6.779469426E0,-8.892409205E-1,9.009997360E-3,5.755708218E-1
6.789181041E0,-5.777087808E-1,-4.637857676E-1,3.080197275E-1
6.798891926E0,-6.852179170E-1,-4.943281412E-1,-2.368560284E-1
6.808603645E0,-9.527690411E-1,-3.184041381E-1,-6.803311110E-1
6.818316145E0,-1.005301833E0,-5.651864409E-1,-8.269344568E-1
6.828027760E0,-7.108734846E-1,-5.651864409E-1,-7.939487100E-1
6.837738645E0,-2.612899244E-1,-3.135173619E-1,-6.253548861E-1
6.847450364E0,-1.068982761E-3,-9.849911928E-2,-3.651339412E-1
6.857162812E0,9.666658193E-2,1.482831687E-1,-3.649812192E-2
6.866874531E0,3.617742956E-1,3.718532622E-1,3.251234591E-1
6.876585312E0,7.661551833E-1,3.889569938E-1,6.256603003E-1
6.886297083E0,1.032484531E0,2.460187376E-1,7.846332788E-1
6.896009531E0,1.088682532E0,5.909947306E-2,7.577560544E-1
6.905721145E0,1.034927964E0,-2.275406010E-2,5.682406425E-1
6.915432031E0,9.848384857E-1,-1.053711493E-2,3.080197275E-1
6.925143749E0,9.982771277E-1,-1.053711493E-2,1.113269106E-1
6.934856249E0,1.055696726E0,-7.528692484E-2,4.779879749E-2
6.944567864E0,1.096012712E0,-2.206685692E-1,1.137702987E-1
6.954278749E0,1.074022174E0,-4.271349311E-1,2.432699203E-1
6.963990468E0,1.005607247E0,-6.323796511E-1,3.862081766E-1
6.973702916E0,9.298622608E-1,-7.765395641E-1,5.095993280E-1
6.983414531E0,8.773293495E-1,-8.583931327E-1,5.609105229E-1
6.993125416E0,8.504521251E-1,-8.828269839E-1,5.205945969E-1
7.002837187E0,8.076927662E-1,-7.740961909E-1,4.143071473E-1
7.012549635E0,7.124006152E-1,-4.650074840E-1,3.116848171E-1
7.022261249E0,5.853443742E-1,3.344388679E-2,2.750339806E-1
7.031972135E0,4.839437306E-1,6.247440577E-1,2.518217862E-1
7.041683854E0,4.705050886E-1,1.186723471E0,1.699682474E-1
7.051396301E0,4.924955964E-1,1.548345089E0,3.802524135E-2
7.061108020E0,4.179722369E-1,1.519024372E0,-8.780929446E-2
7.070818801E0,2.225011140E-1,1.139077425E0,-1.672194302E-1
7.080530572E0,-3.161134571E-2,5.954233408E-1,-2.014268786E-1
7.090243020E0,-2.735068500E-1,8.353336155E-2,-1.794363856E-1
7.099954635E0,-4.494308829E-1,-2.854183912E-1,-1.159082651E-1
7.109665520E0,-5.520532131E-1,-4.588989913E-1,-3.527642787E-2
7.119377239E0,-6.106945276E-1,-4.344651103E-1,1.969982497E-2
7.129089687E0,-6.265766025E-1,-3.037438095E-1,2.458660305E-2
7.138801301E0,-5.777087808E-1,-1.669140160E-1,-4.138490185E-2
7.148512239E0,-4.482091665E-1,-9.361234307E-2,-1.611109674E-1
7.158223958E0,-2.515163720E-1,-4.840964451E-2,-2.967190444E-1
7.167936406E0,-4.382828996E-2,-2.764083818E-2,-3.785725832E-1
7.177648020E0,1.088835225E-1,-9.239064902E-2,-3.797942698E-1
7.187358906E0,1.186570823E-1,-2.451024652E-1,-3.248180151E-1
7.197070624E0,-1.171299592E-1,-3.721587062E-1,-2.356343269E-1
7.206783072E0,-5.373928547E-1,-3.513898849E-1,-9.391776472E-2
7.216494791E0,-9.100096822E-1,-1.827960461E-1,1.015533581E-1
7.226205624E0,-1.001636744E0,9.009997360E-3,2.982461751E-1
7.235917343E0,-8.086090684E-1,2.838912606E-1,4.851654470E-1
7.245629791E0,-4.873034060E-1,6.687250137E-1,6.771242023E-1
7.255341406E0,-1.757712960E-1,7.285880446E-1,7.907418013E-1
7.265052291E0,-3.161134571E-2,5.465555787E-1,6.783458591E-1
7.274764010E0,-1.488940120E-1,6.760551929E-1,2.518217862E-1
7.284476510E0,-3.272614181E-1,7.591304183E-1,-2.893888950E-1
7.294188124E0,-3.834593594E-1,4.011739492E-1,-7.463026643E-1
7.303899010E0,-2.796153426E-1,-4.840964451E-2,-9.735378027E-1
7.313610729E0,-2.305948362E-2,-4.136963189E-1,-8.611419201E-1
7.323323176E0,1.992889196E-1,-4.943281412E-1,-5.386145711E-1
7.333034791E0,2.945810854E-1,-3.697153032E-1,-1.427855492E-1
7.342745676E0,3.226800561E-1,-2.573194206E-1,2.225011140E-1
7.352457395E0,3.422271907E-1,-2.890834510E-1,5.157077909E-1
7.362169895E0,3.666610718E-1,-4.906630516E-1,6.856760383E-1
7.371881510E0,3.984251320E-1,-6.824691296E-1,6.795675755E-1
7.381592395E0,4.460712075E-1,-7.264500856E-1,4.900522232E-1
7.391304114E0,5.267030597E-1,-6.617003083E-1,1.650814712E-1
7.401016562E0,6.109999418E-1,-6.397097707E-1,-1.562241912E-1
7.410728176E0,6.891884208E-1,-6.800256968E-1,-3.541387022E-1
7.420439062E0,7.563816309E-1,-7.484406233E-1,-4.091149569E-1
7.430150781E0,7.734853625E-1,-8.608365059E-1,-3.590254784E-1
7.439863281E0,7.111788988E-1,-9.793408513E-1,-2.454078794E-1
7.449574895E0,5.890094638E-1,-9.891144037E-1,-1.061347127E-1
7.459285781E0,4.485146105E-1,-8.400676847E-1,4.046862945E-2
7.468997499E0,3.080197275E-1,-6.274928451E-1,1.772984117E-1
7.478709947E0,2.127275616E-1,-3.953709006E-1,2.774773538E-1
7.488421562E0,1.956238300E-1,-1.046075895E-1,3.043546379E-1
7.498132447E0,2.176143378E-1,2.252499312E-1,2.554868758E-1
7.507844166E0,2.383831441E-1,5.367820263E-1,1.809635013E-1
7.517556666E0,2.383831441E-1,7.139277458E-1,1.101052165E-1
7.527268281E0,2.029540092E-1,6.980457306E-1,6.123743951E-2
7.536979166E0,1.259872466E-1,5.856497884E-1,5.039489828E-3
7.546690885E0,2.947338112E-2,5.135698318E-1,-2.428117767E-2
7.556403333E0,-5.726693198E-2,5.270084739E-1,-1.939439960E-2
7.566114947E0,-1.256818175E-1,5.929799676E-1,1.527118147E-4
7.575825833E0,-1.831014603E-1,6.467345357E-1,1.374406274E-3
7.585537551E0,-2.539597452E-1,6.516213417E-1,-3.161134571E-2
7.595250051E0,-3.516952991E-1,5.856497884E-1,-1.134648770E-1
7.604961666E0,-4.384356141E-1,4.182776511E-1,-2.380777150E-1
7.614672551E0,-4.775298536E-1,2.008160353E-1,-3.663556576E-1
7.624384270E0,-4.518742561E-1,4.123218823E-3,-4.543176591E-1
7.634096718E0,-3.822376728E-1,-1.375933439E-1,-4.836383164E-1
7.643808333E0,-3.455868363E-1,-2.597627938E-1,-4.457657933E-1
7.653519218E0,-4.457657933E-1,-4.576773047E-1,-3.797942698E-1
7.663230989E0,-7.597413063E-1,-6.409314871E-1,-3.199312389E-1
7.672943437E0,-1.171452284E0,-5.566345453E-1,-2.099787444E-1
7.682655051E0,-1.390135646E0,-3.465031087E-1,-2.550287358E-2
7.692365937E0,-1.315612316E0,-3.037438095E-1,1.479777545E-1
7.702077656E0,-1.061499834E0,-1.058292910E-1,3.031329513E-1
7.711790156E0,-7.010999322E-1,3.180987239E-1,4.973823726E-1
7.721501770E0,-2.710634768E-1,2.338017821E-1,6.061131954E-1
7.731212656E0,-1.818797737E-1,-2.597627938E-1,4.350759685E-1
7.740924374E0,-5.667135715E-1,-3.892624080E-1,6.368082762E-2
7.750636822E0,-9.454388618E-1,-4.686725736E-1,-2.466295809E-1
7.760348437E0,-1.153126955E0,-2.744231224E-1,-4.005630910E-1
7.770059322E0,-1.136023164E0,1.995943487E-1,-3.663556576E-1
7.779771041E0,-6.387935281E-1,5.196782947E-1,-1.757712960E-1
7.789483541E0,1.504211426E-1,6.723901033E-1,1.296523362E-1
7.799195156E0,6.733064055E-1,3.571929336E-1,3.972034156E-1
7.808906041E0,6.781931520E-1,1.145338640E-2,5.706840754E-1
7.818617760E0,4.778352678E-1,-2.047865391E-1,6.427640319E-1
7.828330208E0,3.605526090E-1,-3.562766612E-1,6.073349118E-1
7.838041926E0,4.680617154E-1,-3.086305857E-1,5.059342384E-1
7.847752760E0,7.905890942E-1,2.489202656E-2,3.642176688E-1
7.857464479E0,1.158319116E0,4.182776511E-1,1.736333370E-1
7.867176926E0,1.409988165E0,6.516213417E-1,-6.704048812E-2
7.876888541E0,1.466186166E0,7.041541934E-1,-3.016058207E-1
7.886599426E0,1.362342119E0,5.917583108E-1,-4.152234197E-1
7.896311197E0,1.188861489E0,3.107685447E-1,-3.541387022E-1
7.906023645E0,1.011715770E0,-5.818320066E-2,-1.916533262E-1
7.915735260E0,8.516737819E-1,-4.308000207E-1,-1.817270555E-2
7.925446145E0,6.965186000E-1,-7.692093849E-1,1.088835225E-1
7.935157864E0,5.132644176E-1,-9.915578365E-1,1.785201132E-1
7.944870364E0,2.884726226E-1,-1.022100210E0,2.298312783E-1
7.954581979E0,8.444963396E-2,-8.290724158E-1,2.884726226E-1
7.964292864E0,9.926267900E-3,-4.124746025E-1,3.141281903E-1
7.974004583E0,8.567132801E-2,1.250709742E-1,2.652604282E-1
7.983717031E0,2.371614426E-1,5.990884304E-1,1.736333370E-1
7.993428645E0,3.886515796E-1,8.617527485E-1,9.422318637E-2
8.003139583E0,4.668400288E-1,9.155073166E-1,3.558185324E-2
8.012851301E0,4.094203711E-1,8.251019120E-1,3.817795310E-3
8.022563749E0,2.481566966E-1,5.868715048E-1,-1.328592747E-2
8.032275364E0,5.635065958E-2,2.912214398E-1,-1.450762246E-2
8.041986249E0,-1.146865711E-1,9.330692142E-2,-1.328592747E-2
8.051697968E0,-2.686200738E-1,2.000524849E-2,-1.328592747E-2
8.061410468E0,-4.030064642E-1,1.679830020E-3,-3.527642787E-2
8.071122083E0,-4.775298536E-1,4.123218823E-3,-1.061347127E-1
8.080832968E0,-4.750864506E-1,2.855710872E-2,-2.185306102E-1
8.090544687E0,-3.859027624E-1,7.742489129E-2,-3.516952991E-1
8.100257187E0,-2.356343269E-1,1.556133330E-1,-4.836383164E-1
8.109968801E0,-8.292251825E-2,2.020377368E-1,-5.911474228E-1
8.119679687E0,-4.734066315E-3,1.763821393E-1,-6.253548861E-1
8.129391406E0,-1.110214889E-1,2.081461996E-1,-6.021426916E-1
8.139103854E0,-3.993414044E-1,3.938437700E-1,-4.982986450E-1
8.148815468E0,-7.194253802E-1,4.732539058E-1,-3.162661791E-1
8.158526354E0,-9.649859667E-1,3.449759781E-1,-1.171299592E-1
8.168238124E0,-1.089598775E0,4.810422286E-2,9.666658193E-2
8.177950572E0,-1.019962192E0,-1.803526580E-1,3.397837877E-1
8.187662187E0,-7.377507687E-1,-4.112529159E-1,5.731274486E-1
8.197373072E0,-4.530959427E-1,-8.803836107E-1,6.048914790E-1
8.207084843E0,-4.775298536E-1,-9.768974781E-1,3.141281903E-1
8.216797291E0,-6.888830066E-1,-1.986780763E-1,-9.269607067E-2
8.226508906E0,-8.770239353E-1,4.549284875E-1,-4.213318825E-1
8.236219791E0,-9.491039515E-1,5.086830258E-1,-7.096518278E-1
8.245931510E0,-8.000571728E-1,4.891359508E-1,-8.489249945E-1
8.255644010E0,-3.382566571E-1,5.318952799E-1,-5.935907960E-1
8.265355624E0,1.956238300E-1,2.619007528E-1,-1.330119967E-1
8.275066510E0,4.143071473E-1,-8.872556686E-2,2.310529798E-1
8.284778229E0,3.556658030E-1,-4.198047817E-1,4.277457893E-1
8.294490729E0,2.371614426E-1,-7.545490861E-1,4.949389994E-1
8.304202343E0,2.041756958E-1,-9.927794933E-1,5.120427012E-1
8.313913229E0,3.483356535E-1,-1.020878434E0,5.034908652E-1
8.323624947E0,6.183301210E-1,-8.315158486E-1,4.350759685E-1
8.333337395E0,8.614473343E-1,-5.651864409E-1,2.860292196E-1
8.343049114E0,9.775083065E-1,-3.184041381E-1,1.003316641E-1
8.352759947E0,9.652913809E-1,-1.669140160E-1,-4.382828996E-2
8.362471666E0,8.858812451E-1,-1.485885978E-1,-9.391776472E-2
8.372184114E0,7.954758406E-1,-2.206685692E-1,-5.360184610E-2
8.381895729E0,7.233958840E-1,-3.562766612E-1,2.336490713E-2
8.391606666E0,6.305471063E-1,-5.065450668E-1,9.666658193E-2
8.401318385E0,4.876088202E-1,-5.664080977E-1,1.504211426E-1
8.411030833E0,2.970244884E-1,-4.894413650E-1,2.053973973E-1
8.420742447E0,1.308740228E-1,-2.939702570E-1,2.786990702E-1
8.430453333E0,7.101099193E-2,-4.474456236E-2,3.177932799E-1
8.440165104E0,1.211004704E-1,1.873773932E-1,2.640387416E-1
8.449877551E0,2.212794125E-1,3.852919042E-1,1.308740228E-1
8.459589166E0,3.153499067E-1,5.465555787E-1,-1.939439960E-2
8.469300051E0,3.507790267E-1,6.662816405E-1,-1.159082651E-1
8.479011770E0,3.092414141E-1,6.894938350E-1,-1.391204596E-1
8.488724270E0,2.066190839E-1,6.088619828E-1,-1.134648770E-1
8.498435885E0,9.544488788E-2,5.367820263E-1,-5.482354015E-2
8.508146770E0,-2.290677279E-3,5.367820263E-1,7.482878864E-3
8.517858489E0,-8.903098851E-2,5.648810267E-1,5.512896553E-2
8.527570989E0,-1.598892659E-1,5.587725043E-1,7.101099193E-2
8.537282604E0,-2.368560284E-1,4.634803534E-1,4.779879749E-2
8.546993489E0,-3.297048211E-1,2.728960216E-1,-2.794626169E-2
8.556705208E0,-4.017847776E-1,3.588727489E-2,-1.916533262E-1
8.566417656E0,-4.359922409E-1,-1.608055383E-1,-3.895678520E-1
8.576129374E0,-4.482091665E-1,-2.890834510E-1,-5.276193023E-1
8.585840208E0,-4.494308829E-1,-3.990359604E-1,-5.813738704E-1
8.595551926E0,-5.154023767E-1,-5.774033666E-1,-5.935907960E-1
8.605264374E0,-7.463026643E-1,-6.604785919E-1,-6.168029904E-1
8.614976093E0,-1.074938416E0,-4.784461260E-1,-5.960342288E-1
8.624686926E0,-1.340046167E0,-1.449235082E-1,-4.347705245E-1
8.634398645E0,-1.435338378E0,4.810422286E-2,-1.757712960E-1
8.644111093E0,-1.360814929E0,2.179197669E-1,1.198787764E-1
8.653822708E0,-1.052947998E0,4.720322192E-1,4.387410581E-1
8.663533593E0,-5.948125124E-1,2.973299026E-1,5.926745534E-1
8.673245364E0,-3.651339412E-1,-1.033858955E-1,3.776563108E-1
8.682957812E0,-5.361711979E-1,-2.397575416E-2,-1.574458778E-1
8.692669426E0,-7.035433054E-1,2.301367074E-1,-6.253548861E-1
8.702380312E0,-6.730009913E-1,2.655658424E-1,-8.134958148E-1
8.712092083E0,-5.288410187E-1,2.765611112E-1,-8.025006056E-1
8.721804531E0,-2.197522968E-1,2.264716178E-1,-6.375718117E-1
8.731516145E0,2.078407854E-1,1.776038408E-1,-3.064926267E-1
8.741227031E0,5.279247165E-1,-1.705790907E-1,2.458660305E-2
8.750938749E0,6.085565686E-1,-5.309789777E-1,2.713688910E-1
8.760651249E0,5.450284481E-1,-8.486195803E-1,4.521796703E-1
8.770362864E0,4.314108789E-1,-1.113727212E0,5.486935377E-1
8.780073749E0,3.923166394E-1,-1.238340139E0,5.621321797E-1
8.789785520E0,5.181511641E-1,-1.149156451E0,5.218162537E-1
8.799497968E0,7.539382577E-1,-9.268079996E-1,4.179722369E-1
8.809209583E0,9.738432169E-1,-7.252284288E-1,2.493783981E-1
8.818920468E0,1.080130696E0,-6.580352187E-1,5.757235363E-2
8.828632187E0,1.055696726E0,-7.398887277E-1,-7.925742865E-2
8.838344687E0,9.701781869E-1,-8.901571631E-1,-1.220167428E-1
8.848056301E0,8.871029615E-1,-1.015991688E0,-9.025268257E-2
8.857767187E0,8.174663186E-1,-1.047755718E0,-3.038965166E-2
8.867478906E0,7.539382577E-1,-9.683456421E-1,3.924693540E-2
8.877191406E0,6.635328531E-1,-8.046385646E-1,1.113269106E-1
8.886903020E0,5.303681493E-1,-5.712949038E-1,1.785201132E-1
8.896613906E0,4.008685052E-1,-2.854183912E-1,2.273878902E-1
8.906325624E0,3.104631305E-1,6.154286116E-2,2.347180545E-1
8.916038124E0,2.823641598E-1,4.268295169E-1,1.882936656E-1
8.925749739E0,3.226800561E-1,6.846070886E-1,1.113269106E-1
8.935460624E0,4.216373265E-1,7.921161652E-1,3.313846514E-2
8.945172343E0,5.120427012E-1,8.458707333E-1,-2.550287358E-2
8.954884791E0,4.998257756E-1,8.532009125E-1,-3.527642787E-2
8.964596510E0,3.715478480E-1,7.518002391E-1,2.092151903E-2
8.974307343E0,1.724116355E-1,5.514423847E-1,1.198787764E-1
8.984019062E0,-5.726693198E-2,3.498627543E-1,2.273878902E-1
8.993731510E0,-2.796153426E-1,2.093679011E-1,2.982461751E-1
9.003443229E0,-4.506525695E-1,1.238492802E-1,2.835858464E-1
9.013154062E0,-5.386145711E-1,8.353336155E-2,1.858502775E-1
9.022865781E0,-5.496098399E-1,8.597674966E-2,4.657710344E-2
9.032578229E0,-5.154023767E-1,8.842013776E-2,-1.000262350E-1
9.042289947E0,-4.677563012E-1,6.520794332E-2,-2.417428046E-1
9.052000729E0,-4.408790171E-1,-5.650337320E-3,-3.602471650E-1
9.061712499E0,-4.958552718E-1,-9.727742523E-2,-4.408790171E-1
9.071424947E0,-6.754443645E-1,-9.361234307E-2,-4.726430774E-1
9.081136562E0,-9.295567870E-1,8.842013776E-2,-4.176668227E-1
9.090847447E0,-1.098150611E0,3.449759781E-1,-2.857238054E-1
9.100559218E0,-1.150683522E0,5.196782947E-1,-1.293469071E-1
9.110271666E0,-1.106702566E0,6.980457306E-1,8.811471611E-2
9.119983281E0,-8.794673681E-1,8.043331504E-1,3.361186981E-1
9.129694166E0,-6.571189165E-1,1.592784226E-1,3.581092060E-1
9.139405937E0,-9.552124143E-1,-6.201626658E-1,-2.794626169E-2
9.149118385E0,-1.610040665E0,-6.739172339E-1,-5.923691392E-1
9.158829999E0,-1.926459551E0,-8.070819378E-1,-8.672503829E-1
9.168540885E0,-1.707776189E0,-1.145491362E0,-8.073873520E-1
9.178252656E0,-1.105480790E0,-1.240783453E0,-6.351284385E-1
9.187965104E0,-5.251759291E-1,-1.112505555E0,-4.506525695E-1
9.197676718E0,-1.525591016E-1,-7.911999226E-1,-2.197522968E-1
9.207387604E0,1.760767251E-1,-2.780882120E-1,1.113269106E-1
9.217099322E0,5.596888065E-1,3.938437700E-1,4.717268050E-1
9.226811822E0,9.213103652E-1,8.141067028E-1,7.699729800E-1
9.236523437E0,1.108229637E0,7.689039707E-1,9.385668039E-1
9.246234322E0,1.144880533E0,5.331169367E-1,9.055810571E-1
9.255946041E0,1.168092728E0,3.437542915E-1,6.966713071E-1
9.265658541E0,1.247502804E0,2.582356930E-1,4.143071473E-1
9.275370156E0,1.350125194E0,2.716743052E-1,1.296523362E-1
9.285081041E0,1.422205091E0,2.753393948E-1,-1.061347127E-1
9.294792760E0,1.414874911E0,1.495048702E-1,-2.160872221E-1
9.304505260E0,1.314695954E0,-8.994726092E-2,-1.782146841E-1
9.314216874E0,1.148545504E0,-3.941491842E-1,-4.627167806E-2
9.323927760E0,9.555178285E-1,-6.983511448E-1,1.003316641E-1
9.333639479E0,7.453863621E-1,-8.596147895E-1,2.188360244E-1
9.343351979E0,5.047125220E-1,-8.364025950E-1,3.104631305E-1
9.353063593E0,2.298312783E-1,-6.800256968E-1,3.764346242E-1
9.362774479E0,-3.161134571E-2,-4.588989913E-1,4.143071473E-1
9.372486197E0,-1.635543555E-1,-1.461452097E-1,3.800997138E-1
9.382198697E0,-1.110214889E-1,2.619007528E-1,2.383831441E-1
9.391910312E0,5.879404768E-2,6.858287454E-1,7.589777559E-2
9.401621197E0,1.956238300E-1,1.013242841E0,-6.337540597E-2
9.411332916E0,2.237228155E-1,1.143964171E0,-1.782146841E-1
9.421045416E0,1.394258887E-1,1.034011722E0,-2.417428046E-1
9.430757031E0,-1.939439960E-2,7.896727920E-1,-2.392994165E-1
9.440467916E0,-2.026485801E-1,5.221216679E-1,-1.843231618E-1
9.450179635E0,-3.944546282E-1,2.606790662E-1,-1.122431830E-1
9.459892135E0,-5.874823332E-1,2.901524538E-3,-8.780929446E-2
9.469603749E0,-7.524111271E-1,-2.451024652E-1,-1.391204596E-1
9.479314635E0,-8.403730989E-1,-4.308000207E-1,-2.295258641E-1
9.489026354E0,-7.927270532E-1,-4.332434237E-1,-3.199312389E-1
9.498738854E0,-6.070294380E-1,-2.560977042E-1,-3.834593594E-1
9.508450468E0,-3.419217467E-1,-9.361234307E-2,-4.237752855E-1
9.518161354E0,-9.636115283E-2,-5.207473040E-2,-4.604261220E-1
9.527873072E0,-2.916795574E-2,-6.673506647E-2,-4.921901822E-1
9.537585572E0,-2.625116110E-1,4.321744293E-2,-4.701996744E-1
9.547297187E0,-7.524111271E-1,2.435753495E-1,-3.394783735E-1
9.557008072E0,-1.166565537E0,2.582356930E-1,-1.733279079E-1
9.566719791E0,-1.316833973E0,2.901524538E-3,-2.061609551E-2
9.576432291E0,-1.238645554E0,3.100049868E-2,1.760767251E-1
9.586143906E0,-9.515473247E-1,-2.194468826E-1,4.033119082E-1
9.595854791E0,-6.632274389E-1,-8.083036542E-1,5.193728805E-1
9.605566510E0,-7.035433054E-1,-8.510629535E-1,3.532224298E-1
9.615279010E0,-7.817317843E-1,-4.234698713E-1,1.603474095E-2
9.624990624E0,-5.825955868E-1,-1.046075895E-1,-2.771719396E-1
9.634701510E0,-1.574458778E-1,2.118112892E-1,-4.359922409E-1
9.644413229E0,2.677038014E-1,3.999522328E-1,-4.689779878E-1
9.654125729E0,4.277457893E-1,4.610369802E-1,-3.932329118E-1
9.663837343E0,4.301891923E-1,6.589514613E-1,-1.953184158E-1
9.673548229E0,5.755708218E-1,1.048672080E0,4.291202128E-2
9.683259947E0,8.455653191E-1,1.387081385E0,2.371614426E-1
9.692972447E0,1.044701576E0,1.341878772E0,3.495573401E-1
9.702684062E0,1.069135427E0,9.985825419E-1,3.691044450E-1
9.712394947E0,9.518527389E-1,5.441122055E-1,2.860292196E-1
9.722106718E0,8.370134830E-1,1.800472289E-1,1.162136942E-1
9.731819166E0,8.064711094E-1,-8.383878320E-2,-7.437065244E-2
9.741530781E0,8.504521251E-1,-3.232909143E-1,-1.965401024E-1
9.751241718E0,8.736643195E-1,-5.908420086E-1,-2.099787444E-1
9.760953437E0,8.162446618E-1,-8.901571631E-1,-1.330119967E-1
9.770665885E0,6.867450476E-1,-1.149156451E0,-8.399149403E-3
9.780377499E0,5.609105229E-1,-1.301868200E0,1.247655526E-1
9.790088437E0,4.888305068E-1,-1.311641812E0,2.444916219E-1
9.799800156E0,4.717268050E-1,-1.183363795E0,3.202366829E-1
9.809512604E0,4.961606860E-1,-9.561286569E-1,3.336753249E-1
9.819224322E0,5.218162537E-1,-6.580352187E-1,2.896943092E-1
9.828935156E0,4.973823726E-1,-2.548760176E-1,2.212794125E-1
9.838646874E0,4.167505503E-1,2.118112892E-1,1.601946950E-1
9.848359374E0,3.593308926E-1,6.430694461E-1,9.422318637E-2
9.858070989E0,3.923166394E-1,1.027903199E0,8.704573847E-3
9.867781874E0,4.815003574E-1,1.338213682E0,-5.604523420E-2
9.877493593E0,5.474718809E-1,1.451831222E0,-9.636115283E-2
9.887206093E0,5.340332389E-1,1.279572248E0,-9.758284688E-2
9.896917708E0,4.143071473E-1,8.812998533E-1,-4.627167806E-2
9.906628593E0,2.115058601E-1,4.634803534E-1,4.291202128E-2
9.916340312E0,-1.206423342E-2,1.983726472E-1,1.345391124E-1
9.926052812E0,-1.953184158E-1,1.201841980E-1,1.956238300E-1
9.935764426E0,-3.174878657E-1,1.592784226E-1,1.809635013E-1
9.945475312E0,-4.103366435E-1,1.971509457E-1,7.834116369E-2
9.955187083E0,-4.738647640E-1,2.105895877E-1,-9.269607067E-2
9.964899531E0,-5.092939138E-1,1.959292591E-1,-2.967190444E-1
9.974611249E0,-5.435013771E-1,1.397313178E-1,-4.714213610E-1
9.984322083E0,-5.813738704E-1,1.634016447E-2,-5.618267655E-1
9.994033801E0,-6.314633489E-1,-2.194468826E-1,-5.728220344E-1
1.000374625E1,-7.646280527E-1,-4.857762754E-1,-5.288410187E-1
1.001345797E1,-1.057834744E0,-6.287145615E-1,-4.188885093E-1
1.002316880E1,-1.386470556E0,-6.372663975E-1,-2.038702667E-1
1.003288052E1,-1.479319334E0,-6.140542030E-1,7.345438004E-2
1.004259302E1,-1.310725451E0,-7.203416228E-1,3.202366829E-1
1.005230464E1,-1.101815701E0,-3.623851240E-1,5.083776116E-1
1.006201552E1,-8.806890249E-1,2.093679011E-1,6.697940230E-1
1.007172729E1,-6.510104537E-1,1.568350345E-1,7.015580535E-1
1.008143974E1,-7.291989326E-1,1.152974218E-1,4.595098495E-1
1.009115146E1,-9.087880254E-1,2.313583940E-1,2.214321308E-2
1.010086229E1,-8.611419201E-1,-1.175880991E-2,-4.091149569E-1
1.011057401E1,-7.328640223E-1,-3.374931216E-2,-7.010999322E-1
1.012028651E1,-5.166240931E-1,5.543438718E-2,-7.756233215E-1
1.012999812E1,-2.356343269E-1,1.873773932E-1,-7.108734846E-1
1.013970901E1,4.291202128E-2,4.170559645E-1,-5.654918551E-1
1.014942078E1,3.312319219E-1,5.245651007E-1,-3.455868363E-1
1.015913323E1,5.572454333E-1,4.793623984E-1,-6.093201414E-2
1.016884484E1,6.830799580E-1,2.423536479E-1,2.615953386E-1
1.017855578E1,7.160657048E-1,-1.094943732E-1,5.047125220E-1
1.018826750E1,6.916317940E-1,-4.002576768E-1,5.743491650E-1
1.019798000E1,6.659762263E-1,-5.163186193E-1,4.619532526E-1
1.020769161E1,7.050704360E-1,-4.637857676E-1,2.371614426E-1
1.021740250E1,8.235748410E-1,-4.051444530E-1,6.261184346E-3
1.022711422E1,9.665130973E-1,-4.356867969E-1,-1.550024897E-1
1.023682672E1,1.061805248E0,-5.981721878E-1,-2.075353563E-1
1.024653833E1,1.069135427E0,-9.023740888E-1,-1.879882365E-1
1.025624927E1,9.762866497E-1,-1.240783453E0,-1.415638477E-1
1.026596099E1,8.296833038E-1,-1.463131905E0,-6.948387623E-2
1.027567344E1,6.965186000E-1,-1.482831717E0,4.169032723E-2
1.028538516E1,5.877877474E-1,-1.307976723E0,1.846285909E-1
1.029509599E1,4.680617154E-1,-9.793408513E-1,3.422271907E-1
1.030480771E1,3.471139669E-1,-5.297572613E-1,4.900522232E-1
1.031452021E1,2.530434728E-1,-3.497100621E-2,5.914528370E-1
1.032423182E1,1.956238300E-1,4.158342779E-1,5.829010010E-1
1.033394276E1,1.772984117E-1,7.359182239E-1,4.631749392E-1
1.034365448E1,1.992889196E-1,9.362761378E-1,2.750339806E-1
1.035336693E1,2.212794125E-1,1.010799527E0,6.123743951E-2
1.036307864E1,2.127275616E-1,9.436063170E-1,-1.256818175E-1
1.037278948E1,1.565296054E-1,7.737907767E-1,-2.466295809E-1
1.038250125E1,4.657710344E-2,5.954233408E-1,-2.893888950E-1
1.039221370E1,-1.036913246E-1,4.928010404E-1,-2.649549842E-1
1.040192531E1,-2.735068500E-1,4.598152637E-1,-1.965401024E-1
1.041163625E1,-4.298837483E-1,3.901786804E-1,-1.427855492E-1
1.042134797E1,-5.398362875E-1,2.606790662E-1,-1.574458778E-1
1.043106047E1,-5.801522136E-1,1.336228400E-1,-2.466295809E-1
1.044077208E1,-5.471664071E-1,7.009471953E-2,-3.639122546E-1
1.045048297E1,-4.579827189E-1,5.176930502E-2,-4.469874799E-1
1.046019474E1,-3.639122546E-1,-4.428642802E-3,-4.750864506E-1
1.046990719E1,-3.431434333E-1,-1.302631795E-1,-4.616478086E-1
1.047961891E1,-5.178457499E-1,-3.196258247E-1,-4.042281806E-1
1.048932974E1,-9.136747718E-1,-3.978142738E-1,-2.576248348E-1
1.049904146E1,-1.360814929E0,-3.758237660E-1,1.359135192E-2
1.050875396E1,-1.553842664E0,-5.114318728E-1,2.786990702E-1
1.051846557E1,-1.469545841E0,-6.189410090E-1,4.362976551E-1
1.052817646E1,-1.161678791E0,-2.402156889E-1,5.242596865E-1
1.053788823E1,-6.901046634E-1,-1.058292910E-1,5.218162537E-1
1.054760068E1,-4.152234197E-1,-4.979932308E-1,2.982461751E-1
1.055731240E1,-6.522321701E-1,-5.847335458E-1,-1.415638477E-1
1.056702323E1,-9.686510563E-1,-3.636068404E-1,-5.386145711E-1
1.057673500E1,-8.843541145E-1,-4.760027230E-1,-7.010999322E-1
1.058644745E1,-4.799732268E-1,-4.564556181E-1,-6.742226481E-1
1.059615917E1,-6.826218218E-2,-2.499892414E-1,-4.897467792E-1
1.060587000E1,1.394258887E-1,-1.009425074E-1,-2.209739983E-1
1.061558172E1,1.944021434E-1,1.128540337E-1,5.512896553E-2
1.062529422E1,2.958027720E-1,3.364241421E-1,2.994678617E-1
1.063500583E1,4.643966258E-1,3.706315756E-1,4.851654470E-1
1.064471677E1,5.975613594E-1,1.629435122E-1,5.731274486E-1
1.065442849E1,6.427640319E-1,-1.339282542E-1,5.267030597E-1
1.066414094E1,6.256603003E-1,-3.196258247E-1,3.666610718E-1
1.067385266E1,6.354338527E-1,-3.318427801E-1,1.785201132E-1
1.068356349E1,6.904101372E-1,-2.622061968E-1,3.802524135E-2
1.069327526E1,7.588250041E-1,-2.279987335E-1,-4.138490185E-2
1.070298771E1,8.125795722E-1,-2.658712566E-1,-8.170082420E-2
1.071269943E1,8.406785131E-1,-3.232909143E-1,-9.269607067E-2
1.072241026E1,8.553388715E-1,-3.550549746E-1,-7.559234649E-2
1.073212198E1,8.590039611E-1,-3.538332880E-1,-3.649812192E-2
1.074183448E1,8.357917666E-1,-3.000787199E-1,-7.177455351E-3
1.075154609E1,7.832589149E-1,-1.889045089E-1,5.039489828E-3
1.076125703E1,7.075138092E-1,-3.985778242E-2,7.482878864E-3
1.077096875E1,6.048914790E-1,1.531699449E-1,1.847812906E-2
1.078068125E1,4.912739098E-1,3.877353072E-1,4.046862945E-2
1.079039286E1,4.130854607E-1,6.577298045E-1,4.779879749E-2
1.080010375E1,4.045335948E-1,9.546015263E-1,3.436015919E-2
1.080981552E1,4.546230733E-1,1.206270576E0,5.039489828E-3
1.081952797E1,5.034908652E-1,1.296676040E0,-3.038965166E-2
1.082923969E1,4.741701782E-1,1.148851037E0,-4.504998401E-2
1.083895052E1,3.324536085E-1,7.957812548E-1,-2.672456764E-2
1.084866224E1,1.113269106E-1,3.327590525E-1,-8.399149403E-3
1.085837474E1,-1.293469071E-1,-1.082726792E-1,3.802524135E-2
1.086808646E1,-3.333698809E-1,-4.100312293E-1,1.076618284E-1
1.087779729E1,-4.653128982E-1,-5.700731874E-1,1.430909634E-1
1.088750901E1,-5.080721974E-1,-6.568135023E-1,1.235438585E-1
1.089722151E1,-4.726430774E-1,-6.372663975E-1,5.390727147E-2
1.090693312E1,-3.736858070E-1,-4.882196784E-1,-6.581879407E-2
1.091664406E1,-2.344126403E-1,-3.147390485E-1,-2.209739983E-1
1.092635578E1,-1.061347127E-1,-2.145601064E-1,-3.785725832E-1
1.093606828E1,-5.848862603E-2,-2.683146596E-1,-4.970769584E-1
1.094577990E1,-2.234173864E-1,-3.269560039E-1,-5.337277651E-1
1.095549083E1,-5.422796607E-1,-2.377723008E-1,-4.262186885E-1
1.096520255E1,-7.719582319E-1,-1.302631795E-1,-1.672194302E-1
1.097491505E1,-8.098307252E-1,-1.217113137E-1,1.357607991E-1
1.098462667E1,-7.267554998E-1,1.262926757E-1,4.411844313E-1
1.099433755E1,-5.862606764E-1,2.191414535E-1,7.577560544E-1
1.100404932E1,-4.885250926E-1,-1.974563748E-1,9.190196991E-1
1.101376182E1,-6.082511544E-1,-3.135173619E-1,7.211052179E-1
1.102347344E1,-8.623636365E-1,7.375980914E-2,2.273878902E-1
1.103318432E1,-8.709154725E-1,1.898207814E-1,-2.808370292E-1
1.104289609E1,-6.644490957E-1,1.690519750E-1,-6.119162440E-1
1.105260854E1,-4.384356141E-1,8.231166750E-2,-6.913263798E-1
1.106232026E1,-2.967190444E-1,-2.275406010E-2,-5.178457499E-1
1.107203109E1,-1.659977436E-1,1.409530044E-1,-2.197522968E-1
1.108174286E1,7.101099193E-2,5.184566379E-1,7.223268598E-2
1.109145531E1,3.776563108E-1,8.727480173E-1,2.506000996E-1
1.110116703E1,6.439857483E-1,9.778137207E-1,3.532224298E-1
1.111087786E1,8.052493930E-1,8.165500760E-1,4.277457893E-1
1.112058964E1,8.687775135E-1,5.746545792E-1,4.521796703E-1
1.113030208E1,8.871029615E-1,3.975088596E-1,3.825430870E-1
1.114001380E1,9.066500664E-1,3.242071867E-1,2.200577259E-1
1.114972464E1,9.347490072E-1,2.912214398E-1,5.039489828E-3
1.115943641E1,9.652913809E-1,2.032594234E-1,-2.038702667E-1
1.116914885E1,9.677347541E-1,-3.008422814E-2,-3.150444627E-1
1.117886057E1,9.127585292E-1,-3.855973184E-1,-2.942756712E-1
1.118857141E1,7.918107510E-1,-7.533273697E-1,-2.112004459E-1
1.119828318E1,6.342121959E-1,-1.015991688E0,-1.049130186E-1
1.120799562E1,4.705050886E-1,-1.091736794E0,6.261184346E-3
1.121770734E1,3.226800561E-1,-1.000109673E0,1.284306347E-1
1.122741818E1,1.919587553E-1,-8.009734750E-1,2.664821148E-1
1.123712995E1,7.956285775E-2,-5.541911721E-1,3.800997138E-1
1.124684240E1,5.039489828E-3,-3.061871827E-1,4.350759685E-1
1.125655411E1,-1.068982761E-3,-3.008422814E-2,4.167505503E-1
1.126626495E1,6.001574174E-2,2.777827978E-1,3.422271907E-1
1.127597667E1,1.394258887E-1,5.624375939E-1,2.310529798E-1
1.128568917E1,1.919587553E-1,7.603521347E-1,1.064401343E-1
1.129540089E1,1.980672181E-1,8.226585388E-1,1.374406274E-3
1.130511172E1,1.809635013E-1,7.725690603E-1,-5.726693198E-2
1.131482349E1,1.553079188E-1,6.846070886E-1,-4.504998401E-2
1.132453594E1,1.174353883E-1,5.795413256E-1,1.359135192E-2
1.133424766E1,3.436015919E-2,4.818057716E-1,8.322793990E-2
1.134395849E1,-9.513945878E-2,4.121691883E-1,1.174353883E-1
1.135367021E1,-2.185306102E-1,3.596363366E-1,8.444963396E-2
1.136338271E1,-2.869454920E-1,2.985515893E-1,-5.955760833E-3
1.137309443E1,-2.893888950E-1,2.325800955E-1,-1.269035190E-1
1.138280526E1,-2.698417902E-1,1.678302884E-1,-2.466295809E-1
1.139251703E1,-2.820587158E-1,9.208522737E-2,-3.382566571E-1
1.140222948E1,-3.614688516E-1,-6.551336497E-2,-3.981196880E-1
1.141194120E1,-5.325061083E-1,-2.573194206E-1,-4.567610323E-1
1.142165203E1,-7.780666947E-1,-3.074088693E-1,-4.860817194E-1
1.143136375E1,-1.059056401E0,-2.548760176E-1,-4.298837483E-1
1.144107625E1,-1.299730301E0,-2.805316150E-1,-2.625116110E-1
1.145078797E1,-1.430451512E0,-4.344651103E-1,1.725643501E-2
1.146049880E1,-1.428008199E0,-4.552339315E-1,4.179722369E-1
1.147021057E1,-1.228871942E0,-4.796678126E-1,7.968502641E-1
1.147992302E1,-1.090820551E0,-6.470399499E-1,8.176190853E-1
1.148963474E1,-1.260635972E0,-2.744231224E-1,3.935383558E-1
1.149934557E1,-1.406017661E0,2.509055138E-1,-1.708845198E-1
1.150905729E1,-1.453663707E0,5.844281316E-1,-6.412369013E-1
1.151876979E1,-1.242310643E0,7.530219555E-1,-9.173398614E-1
1.152848151E1,-6.058077812E-1,8.849649429E-1,-8.709154725E-1
1.153819234E1,1.382041872E-1,8.947384953E-1,-5.154023767E-1
1.154790411E1,5.169295073E-1,4.805840850E-1,-1.440072358E-1
1.155761656E1,4.656183124E-1,-9.239064902E-2,1.540862173E-1
1.156732828E1,2.982461751E-1,-5.419742465E-1,3.825430870E-1
1.157703911E1,2.640387416E-1,-7.973083854E-1,5.450284481E-1
1.158675088E1,4.155288339E-1,-8.779402375E-1,6.378772259E-1
1.159646333E1,6.916317940E-1,-8.205205798E-1,6.390989423E-1
1.160617505E1,9.665130973E-1,-7.166765332E-1,5.340332389E-1
1.161588588E1,1.139993668E0,-6.042806506E-1,3.520007432E-1
1.162559766E1,1.177866220E0,-5.053234100E-1,1.785201132E-1
1.163531010E1,1.139993668E0,-4.442386627E-1,6.245913357E-2
1.164502182E1,1.111894727E0,-4.356867969E-1,2.092151903E-2
1.165473266E1,1.107007980E0,-4.650074840E-1,3.069507517E-2
1.166444443E1,1.111894727E0,-4.906630516E-1,4.169032723E-2
1.167415687E1,1.091125965E0,-4.784461260E-1,2.825168520E-2
1.168386859E1,9.921686649E-1,-3.929274976E-1,5.039489828E-3
1.169357943E1,7.991409302E-1,-1.681357026E-1,1.527118147E-4
1.170329120E1,5.755708218E-1,1.849340051E-1,1.969982497E-2
1.171300364E1,3.972034156E-1,5.526640415E-1,5.635065958E-2
1.172271536E1,3.067980409E-1,8.226585388E-1,9.177979827E-2
1.173242620E1,2.921377122E-1,9.607100487E-1,1.027750522E-1
1.174213797E1,2.689255178E-1,9.875873327E-1,7.467607409E-2
1.175185047E1,1.724116355E-1,9.228374958E-1,2.092151903E-2
1.176156208E1,2.092151903E-2,7.737907767E-1,-2.183778957E-2
1.177127297E1,-1.281252056E-1,5.489989519E-1,-3.771981969E-2
1.178098474E1,-2.564031482E-1,3.119902313E-1,-3.038965166E-2
1.179069724E1,-3.651339412E-1,9.941539168E-2,-2.672456764E-2
1.180040885E1,-4.262186885E-1,-7.162184268E-2,-5.971032009E-2
1.181011979E1,-4.335488379E-1,-1.913478971E-1,-1.391204596E-1
1.181983151E1,-3.956763148E-1,-2.451024652E-1,-2.392994165E-1
1.182954401E1,-3.077143133E-1,-2.121167034E-1,-3.370349705E-1
1.183925562E1,-1.855448484E-1,-1.388150454E-1,-4.311054647E-1
1.184896656E1,-6.581879407E-2,-9.849911928E-2,-5.141806602E-1
1.185867828E1,-2.183778957E-2,-1.070509851E-1,-5.838172436E-1
1.186839078E1,-1.611109674E-1,2.855710872E-2,-6.155813336E-1
1.187810240E1,-4.579827189E-1,2.741177082E-1,-5.288410187E-1
1.188781333E1,-7.695148587E-1,3.119902313E-1,-3.138227761E-1
1.189752505E1,-9.698727131E-1,3.710897267E-2,-4.627167806E-2
1.190723755E1,-1.062721491E0,-2.292204350E-1,2.249445021E-1
1.191694917E1,-1.094485521E0,-4.014793634E-1,5.022691488E-1
1.192666010E1,-1.125027895E0,-8.119687438E-1,6.659762263E-1
1.193637182E1,-1.254527569E0,-1.119835734E0,5.401417017E-1
1.194608432E1,-1.418234587E0,-3.941491842E-1,9.177979827E-2
1.195579604E1,-1.198329568E0,1.934858710E-1,-3.651339412E-1
1.196550687E1,-6.339067221E-1,1.128540337E-1,-6.827745438E-1
1.197521859E1,-1.036913246E-1,-2.886253223E-2,-8.293778896E-1
1.198493109E1,1.711899489E-1,-1.595838517E-1,-7.182036638E-1
1.199464281E1,1.834068894E-1,-1.265980899E-1,-3.663556576E-1
1.200435364E1,1.614163816E-1,1.519482583E-1,1.174353883E-1
1.201406542E1,3.104631305E-1,5.184566379E-1,5.242596865E-1
1.202377786E1,5.609105229E-1,7.310314775E-1,8.005153537E-1
1.203348958E1,7.551599145E-1,6.760551929E-1,9.129112363E-1
1.204320042E1,8.480086923E-1,5.001311898E-1,8.212841153E-1
1.205291219E1,8.822161555E-1,3.474193811E-1,5.572454333E-1
1.206262464E1,9.054283500E-1,2.020377368E-1,2.310529798E-1
1.207233635E1,9.274188280E-1,-3.206948051E-3,-6.826218218E-2
1.208204719E1,9.371923804E-1,-2.976353168E-1,-2.295258641E-1
1.209175896E1,9.176452756E-1,-6.311579347E-1,-2.417428046E-1
1.210147141E1,8.419002295E-1,-9.426900148E-1,-1.586675793E-1
1.211118312E1,7.429429889E-1,-1.176033735E0,-3.894151375E-2
1.212089396E1,6.623111367E-1,-1.274990916E0,7.223268598E-2
1.213060573E1,6.048914790E-1,-1.242005229E0,1.565296054E-1
1.214031823E1,5.462501645E-1,-1.102732062E0,2.347180545E-1
1.215002984E1,4.534013867E-1,-9.035958052E-1,3.080197275E-1
1.215974078E1,3.263451457E-1,-6.604785919E-1,3.800997138E-1
1.216945250E1,1.968455315E-1,-3.953709006E-1,4.289674759E-1
1.217916500E1,1.088835225E-1,-1.082726792E-1,4.057552814E-1
1.218887661E1,1.137702987E-1,2.289150059E-1,3.129065037E-1
1.219858755E1,2.017323077E-1,5.832064152E-1,2.139492482E-1
1.220829927E1,2.909159958E-1,8.263236284E-1,1.333174109E-1
1.221801177E1,3.006895781E-1,8.593093753E-1,5.635065958E-2
1.222772339E1,2.163926363E-1,6.540647149E-1,-2.290677279E-3
1.223743432E1,8.322793990E-2,3.046600819E-1,-2.672456764E-2
1.224714604E1,-6.337540597E-2,-5.696150661E-2,-1.084253844E-2
1.225685854E1,-1.977618039E-1,-3.342861533E-1,3.191677108E-2
1.226657026E1,-3.113794029E-1,-4.808894992E-1,6.123743951E-2
1.227628109E1,-3.968980014E-1,-5.089884996E-1,4.535540938E-2
1.228599281E1,-4.396573007E-1,-4.430169761E-1,-4.734066315E-3
1.229570531E1,-4.237752855E-1,-3.171824515E-1,-7.681404054E-2
1.230541703E1,-3.602471650E-1,-1.730224788E-1,-1.721062213E-1
1.231512786E1,-2.722851634E-1,-5.329642445E-2,-2.710634768E-1
1.232483964E1,-2.038702667E-1,1.878355257E-2,-3.602471650E-1
1.233455208E1,-2.747285664E-1,8.475505561E-2,-4.054498672E-1
1.234426380E1,-5.410579443E-1,3.058817685E-1,-3.419217467E-1
1.235397464E1,-9.124531150E-1,5.978667736E-1,-1.366770715E-1
1.236368641E1,-1.195886254E0,5.331169367E-1,1.039967462E-1
1.237339885E1,-1.277739763E0,3.474193811E-1,3.275668323E-1
1.238311057E1,-1.051726222E0,4.573718905E-1,5.291464329E-1
1.239282141E1,-6.045860648E-1,1.634016447E-2,5.706840754E-1
1.240253318E1,-4.298837483E-1,-6.934643388E-1,2.408265322E-1
1.241224568E1,-6.656708121E-1,-3.538332880E-1,-3.309265077E-1
1.242195729E1,-8.061656952E-1,3.058817685E-1,-7.206470370E-1
1.243166823E1,-5.447230339E-1,6.687250137E-1,-8.611419201E-1
1.244137995E1,-3.405473381E-2,8.189934492E-1,-8.831323981E-1
1.245109245E1,3.434488773E-1,7.139277458E-1,-9.051229358E-1
1.246080406E1,4.033119082E-1,5.050179958E-1,-8.098307252E-1
1.247051500E1,2.945810854E-1,4.036173224E-1,-5.044071078E-1
1.248022672E1,2.017323077E-1,3.376458287E-1,-6.215370819E-2
1.248993922E1,1.931804419E-1,9.452861547E-2,3.165715933E-1
1.249965083E1,2.359397560E-1,-3.159607351E-1,5.095993280E-1
1.250936177E1,3.153499067E-1,-6.665870547E-1,5.095993280E-1
1.251907349E1,4.277457893E-1,-8.131904006E-1,3.996468186E-1
1.252878599E1,5.438067913E-1,-7.679877281E-1,2.811424434E-1
1.253849771E1,6.403206587E-1,-6.531484127E-1,2.017323077E-1
1.254820854E1,7.111788988E-1,-5.932853818E-1,1.577513069E-1
1.255792031E1,7.600467205E-1,-6.030589342E-1,1.259872466E-1
1.256763276E1,7.844805717E-1,-6.177192926E-1,1.125486046E-1
1.257734448E1,7.832589149E-1,-5.908420086E-1,1.272089481E-1
1.258705531E1,7.600467205E-1,-4.808894992E-1,1.491994411E-1
1.259676708E1,7.209524512E-1,-2.732014358E-1,1.821851879E-1
1.260647958E1,6.537593007E-1,-1.542389300E-2,2.273878902E-1
1.261619120E1,5.511369109E-1,2.252499312E-1,2.725905776E-1
1.262590214E1,4.216373265E-1,3.877353072E-1,2.994678617E-1
1.263561385E1,2.860292196E-1,4.891359508E-1,2.811424434E-1
1.264532635E1,1.895153672E-1,5.758762360E-1,2.115058601E-1
1.265503797E1,1.491994411E-1,6.528429985E-1,1.052184403E-1
1.266474891E1,1.247655526E-1,7.078192830E-1,-5.955760833E-3
1.267446068E1,8.078455180E-2,7.395833135E-1,-9.391776472E-2
1.268417312E1,8.704573847E-3,7.310314775E-1,-1.525591016E-1
1.269388484E1,-7.803573459E-2,6.809419990E-1,-1.818797737E-1
1.270359568E1,-1.684411317E-1,6.003101468E-1,-1.806580722E-1
1.271330745E1,-2.551814318E-1,5.099047422E-1,-1.598892659E-1
1.272301995E1,-3.235963285E-1,4.329380095E-1,-1.501157135E-1
1.273273156E1,-3.700207174E-1,3.804051280E-1,-1.586675793E-1
1.274244250E1,-3.907895386E-1,3.242071867E-1,-1.831014603E-1
1.275215422E1,-4.054498672E-1,2.252499312E-1,-2.209739983E-1
1.276186672E1,-4.384356141E-1,5.176930502E-2,-2.710634768E-1
1.277157844E1,-4.763081372E-1,-1.669140160E-1,-3.162661791E-1
1.278128927E1,-5.691569448E-1,-3.452814221E-1,-3.578037918E-1
1.279100104E1,-7.805100679E-1,-3.135173619E-1,-3.810159862E-1
1.280071349E1,-1.055391312E0,-7.528692484E-2,-3.223746419E-1
1.281042521E1,-1.282626510E0,1.511846948E-2,-1.708845198E-1
1.282013604E1,-1.388913989E0,-1.925695986E-1,-3.161134571E-2
1.282984781E1,-1.362036705E0,-1.559187621E-1,7.589777559E-2
1.283956031E1,-1.220320106E0,1.878355257E-2,2.383831441E-1
1.284927193E1,-1.085933685E0,-3.599417508E-1,4.008685052E-1
1.285898286E1,-1.216655016E0,-7.985301018E-1,3.629959822E-1
1.286869464E1,-1.473210931E0,-4.332434237E-1,1.394258887E-1
1.287840708E1,-1.331494331E0,-1.229330078E-1,-9.269607067E-2
1.288811880E1,-8.806890249E-1,1.152974218E-1,-3.089359999E-1
1.289782969E1,-4.127800465E-1,5.282301903E-1,-5.471664071E-1
1.290754141E1,-5.115845799E-2,7.823426127E-1,-8.220477104E-1
1.291725391E1,1.052184403E-1,8.409839869E-1,-1.016297102E0
1.292696562E1,1.919587553E-1,1.051115394E0,-9.381086826E-1
1.293667646E1,4.362976551E-1,1.233147860E0,-5.911474228E-1
1.294638823E1,7.331694365E-1,1.074327588E0,-1.342336833E-1
1.295610073E1,8.614473343E-1,5.160132051E-1,2.334963679E-1
1.296581234E1,7.722636461E-1,-1.424801201E-1,3.886515796E-1
1.297552328E1,6.024481058E-1,-5.945070982E-1,3.727695346E-1
1.298523500E1,5.242596865E-1,-7.985301018E-1,3.287885487E-1
1.299494750E1,5.975613594E-1,-8.034168482E-1,3.067980409E-1
1.300465922E1,7.295043468E-1,-7.704311013E-1,2.945810854E-1
1.301437010E1,8.211314082E-1,-8.522846103E-1,3.324536085E-1
1.302408182E1,8.357917666E-1,-9.891144037E-1,3.776563108E-1
1.303379432E1,7.966975570E-1,-1.069746256E0,4.362976551E-1
1.304350604E1,7.490514517E-1,-1.066081166E0,5.010474920E-1
1.305321687E1,7.295043468E-1,-9.842276573E-1,5.548020005E-1
1.306292865E1,7.392778993E-1,-7.936432958E-1,5.792359114E-1
1.307264114E1,7.612683773E-1,-4.906630516E-1,5.706840754E-1
1.308235286E1,7.710419297E-1,-1.156028435E-1,5.242596865E-1
1.309206370E1,7.612683773E-1,3.144336343E-1,4.240806997E-1
1.310177547E1,7.356128097E-1,8.104416132E-1,2.689255178E-1
1.311148797E1,7.551599145E-1,1.433505774E0,6.368082762E-2
1.312119958E1,8.565605879E-1,2.062678576E0,-1.525591016E-1
1.313091052E1,9.762866497E-1,2.443847179E0,-3.199312389E-1
1.314062229E1,9.909469485E-1,2.418191671E0,-3.712424338E-1
1.315033479E1,8.247964978E-1,1.957612753E0,-2.832804024E-1
1.316004641E1,4.863871336E-1,1.196497083E0,-1.036913246E-1
1.316975734E1,5.635065958E-2,3.425326049E-1,9.910997003E-2
1.317946911E1,-3.199312389E-1,-3.526115716E-1,2.041756958E-1
1.318918161E1,-5.813738704E-1,-7.606575489E-1,2.078407854E-1
1.319889323E1,-7.401941419E-1,-9.536852837E-1,2.176143378E-1
1.320860417E1,-7.682931423E-1,-8.962656260E-1,1.394258887E-1
1.321831594E1,-6.473453641E-1,-6.091674566E-1,-9.620844387E-3
1.322802844E1,-4.262186885E-1,-1.974563748E-1,-1.977618039E-1
1.323774005E1,-1.977618039E-1,1.360662282E-1,-3.797942698E-1
1.324745099E1,-3.649812192E-2,2.509055138E-1,-4.897467792E-1
1.325716276E1,1.359135192E-2,1.018587798E-1,-5.178457499E-1
1.326687526E1,-1.061347127E-1,-2.622061968E-1,-4.824166298E-1
1.327658698E1,-4.311054647E-1,-6.360446811E-1,-3.724641204E-1
1.328629781E1,-8.635852933E-1,-8.889354467E-1,-1.562241912E-1
1.329600958E1,-1.182447553E0,-1.067302823E0,1.235438585E-1
1.330572208E1,-1.187334418E0,-1.239561796E0,3.715478480E-1
1.331543380E1,-9.845330715E-1,-1.053864241E0,6.109999418E-1
1.332514464E1,-6.913263798E-1,-8.144121170E-1,8.481613994E-1
1.333485641E1,-5.960342288E-1,-7.814263701E-1,8.554915786E-1
1.334456891E1,-9.258917570E-1,-4.662291706E-1,4.863871336E-1
1.335428062E1,-1.203216434E0,-1.021642014E-1,-8.780929446E-2
1.336399151E1,-1.142131686E0,-1.542389300E-2,-5.667135715E-1
1.337370323E1,-8.684720993E-1,1.145338640E-2,-7.707365155E-1
1.338341573E1,-5.288410187E-1,6.032116711E-2,-7.682931423E-1
1.339312745E1,-2.429644912E-1,6.032116711E-2,-6.204680800E-1
1.340283833E1,2.947338112E-2,7.742489129E-2,-3.773508966E-1
1.341255010E1,2.945810854E-1,1.397313178E-1,-9.636115283E-2
1.342226260E1,5.022691488E-1,1.507265568E-1,1.980672181E-1
1.343197432E1,6.366555691E-1,8.475505561E-2,4.436278343E-1
1.344168516E1,7.282826304E-1,5.344913341E-3,5.829010010E-1
1.345139693E1,8.272398710E-1,-2.153236605E-2,5.829010010E-1
1.346110943E1,9.567395449E-1,1.145338640E-2,4.521796703E-1
1.347082114E1,1.083795786E0,4.199574888E-2,2.615953386E-1
1.348053203E1,1.171757698E0,-1.985253533E-3,6.978929788E-2
1.349024380E1,1.192526579E0,-1.424801201E-1,-6.459710002E-2
1.349995630E1,1.146102190E0,-3.489464819E-1,-1.000262350E-1
1.350966792E1,1.045923233E0,-5.554128885E-1,-4.627167806E-2
1.351937885E1,9.225320816E-1,-7.386670709E-1,3.069507517E-2
1.352909062E1,7.820371985E-1,-8.828269839E-1,8.322793990E-2
1.353880312E1,6.171084642E-1,-9.610154629E-1,9.910997003E-2
1.354851484E1,4.045335948E-1,-9.500201941E-1,9.055810422E-2
1.355822573E1,1.601946950E-1,-7.875348330E-1,9.422318637E-2
1.356793745E1,1.847812906E-2,-4.039227366E-1,9.422318637E-2
1.357764995E1,2.947338112E-2,6.642963737E-2,3.924693540E-2
1.358736167E1,1.284306347E-1,4.182776511E-1,-3.283303976E-2
1.359707255E1,2.102841735E-1,5.844281316E-1,-6.826218218E-2
1.360678432E1,2.090624720E-1,5.942016840E-1,-5.115845799E-2
1.361649682E1,1.259872466E-1,4.488200247E-1,3.436015919E-2
1.362620854E1,-1.572931744E-2,2.008160353E-1,1.626380831E-1
1.363591943E1,-1.843231618E-1,-5.329642445E-2,2.750339806E-1
1.364563115E1,-3.321481943E-1,-2.316638231E-1,3.300102353E-1
1.365534370E1,-4.286620617E-1,-2.756448388E-1,3.300102353E-1
1.366505531E1,-4.640912116E-1,-1.986780763E-1,2.921377122E-1
1.367476625E1,-4.421007037E-1,-7.773031294E-2,1.968455315E-1
1.368447802E1,-3.626905680E-1,5.421269313E-2,2.092151903E-2
1.369419052E1,-2.368560284E-1,2.399102598E-1,-1.977618039E-1
1.370390224E1,-1.220167428E-1,4.622586668E-1,-3.822376728E-1
1.371361312E1,-6.704048812E-2,5.746545792E-1,-5.092939138E-1
1.372332490E1,-1.733279079E-1,5.074613690E-1,-5.838172436E-1
1.373303740E1,-5.117372870E-1,3.840702176E-1,-5.850389600E-1
1.374274911E1,-9.906415343E-1,3.132119179E-1,-4.482091665E-1
1.375245995E1,-1.371810198E0,1.006370857E-1,-1.598892659E-1
1.376217172E1,-1.454885483E0,-3.037438095E-1,1.479777545E-1
1.377188427E1,-1.265522838E0,-2.683146596E-1,3.752129376E-1
1.378159589E1,-9.075663090E-1,-6.551336497E-2,5.450284481E-1
1.379130682E1,-6.216897964E-1,-3.159607351E-1,5.059342384E-1
1.380101859E1,-7.120952010E-1,-4.308000207E-1,1.015533581E-1
1.381073109E1,-9.246700406E-1,-4.613423944E-1,-3.516952991E-1
1.382044281E1,-9.552124143E-1,-6.617003083E-1,-6.143596172E-1
1.383015370E1,-8.660287261E-1,-7.069029808E-1,-7.010999322E-1
1.383986547E1,-8.147175312E-1,-7.459971905E-1,-6.326850653E-1
1.384957797E1,-7.548545003E-1,-6.421532035E-1,-3.944546282E-1
1.385928969E1,-4.982986450E-1,-2.463241518E-1,3.558185324E-2
1.386900057E1,-7.437065244E-2,2.374668717E-1,4.717268050E-1
1.387871234E1,3.116848171E-1,4.695888162E-1,7.015580535E-1
1.388842484E1,5.144860744E-1,2.667875290E-1,7.174401283E-1
1.389813656E1,5.743491650E-1,-6.062658876E-2,5.682406425E-1
1.390784745E1,6.268820167E-1,-2.072299272E-1,3.727695346E-1
1.391755917E1,7.624900937E-1,-1.314848661E-1,2.225011140E-1
1.392727172E1,9.689564705E-1,4.321744293E-2,1.064401343E-1
1.393698344E1,1.155875683E0,1.140757278E-1,3.817795310E-3
1.394669427E1,1.243837714E0,1.389677543E-2,-6.459710002E-2
1.395640604E1,1.226734042E0,-1.925695986E-1,-8.903098851E-2
1.396611859E1,1.147323847E0,-3.807105422E-1,-7.559234649E-2
1.397583021E1,1.038593054E0,-4.869979918E-1,-3.894151375E-2
1.398554115E1,9.139801860E-1,-4.918847680E-1,-1.084253844E-2
1.399525292E1,7.612683773E-1,-4.112529159E-1,-9.620844387E-3
1.400496542E1,5.841227174E-1,-2.451024652E-1,-1.817270555E-2
1.401467714E1,4.130854607E-1,1.267508045E-2,-7.177455351E-3
1.402438802E1,2.835858464E-1,3.376458287E-1,2.702999115E-2
1.403409979E1,1.968455315E-1,6.357392669E-1,7.101099193E-2
1.404381229E1,1.284306347E-1,7.762341499E-1,9.177979827E-2
1.405352401E1,6.978929788E-2,7.652388811E-1,6.123743951E-2
1.406323490E1,2.214321308E-2,7.041541934E-1,-7.177455351E-3
1.407294667E1,-2.672456764E-2,6.394043565E-1,-5.971032009E-2
1.408265917E1,-1.122431830E-1,5.502206683E-1,-6.215370819E-2
1.409237089E1,-2.502946556E-1,4.390464723E-1,-4.504998401E-2
1.410208177E1,-4.176668227E-1,3.266505599E-1,-6.459710002E-2
1.411179354E1,-5.813738704E-1,2.301367074E-1,-1.550024897E-1
1.412150604E1,-7.072083950E-1,1.898207814E-1,-2.967190444E-1
1.413121776E1,-7.572978735E-1,2.240282297E-1,-4.433223903E-1
1.414092864E1,-7.157602906E-1,3.034383655E-1,-5.630484819E-1
1.415064042E1,-6.094728708E-1,3.571929336E-1,-6.424586177E-1
1.416035292E1,-4.921901822E-1,2.728960216E-1,-6.754443645E-1
1.417006464E1,-4.164451063E-1,5.299099907E-2,-6.949914694E-1
1.417977552E1,-4.201101959E-1,-5.696150661E-2,-6.742226481E-1
1.418948729E1,-5.459447503E-1,-3.863608837E-2,-5.435013771E-1
1.419919979E1,-8.599202037E-1,-3.206948051E-3,-2.429644912E-1
1.420891151E1,-1.303395391E0,1.634016447E-2,1.406475753E-1
1.421862240E1,-1.603932142E0,2.367033064E-2,4.839437306E-1
1.422833417E1,-1.519635320E0,-1.864611208E-1,7.198835015E-1
1.423804667E1,-1.111589313E0,-3.880407214E-1,7.076665759E-1
1.424775839E1,-6.730009913E-1,-2.951919436E-1,3.996468186E-1
1.425746927E1,-3.871244490E-1,-1.180462316E-1,-1.391204596E-1
1.426718104E1,-1.806580722E-1,-8.017370105E-2,-6.620057225E-1
1.427689354E1,8.689302206E-2,-2.170034945E-1,-9.368869662E-1
1.428660531E1,3.776563108E-1,-4.002576768E-1,-9.307785034E-1
1.429631614E1,5.548020005E-1,-4.613423944E-1,-6.791094542E-1
1.430602792E1,6.048914790E-1,-3.477247953E-1,-2.869454920E-1
1.431574047E1,6.354338527E-1,-8.872556686E-2,1.149920002E-1
1.432545219E1,7.282826304E-1,1.837123185E-1,4.460712075E-1
1.433516307E1,8.675557971E-1,2.802261710E-1,6.390989423E-1
1.434487484E1,9.762866497E-1,1.934858710E-1,6.427640319E-1
1.435458734E1,9.982771277E-1,1.023169141E-2,5.010474920E-1
1.436429906E1,9.677347541E-1,-1.546970755E-1,2.982461751E-1
1.437400995E1,9.286405444E-1,-2.683146596E-1,1.320957243E-1
1.438372172E1,9.005415440E-1,-3.489464819E-1,4.169032723E-2
1.439343422E1,8.773293495E-1,-4.002576768E-1,9.926267900E-3
1.440314594E1,8.394568563E-1,-4.442386627E-1,2.214321308E-2
1.441285682E1,7.857022882E-1,-4.760027230E-1,6.245913357E-2
1.442256859E1,7.356128097E-1,-4.662291706E-1,1.162136942E-1
1.443228109E1,6.781931520E-1,-3.892624080E-1,1.882936656E-1
1.444199286E1,5.767925382E-1,-2.866400778E-1,2.884726226E-1
1.445170375E1,4.289674759E-1,-1.974563748E-1,3.617742956E-1
1.446141552E1,2.664821148E-1,-1.156028435E-1,3.739912212E-1
1.447112802E1,1.259872466E-1,-7.635590737E-4,3.116848171E-1
1.448083974E1,5.146388337E-2,2.228065431E-1,1.980672181E-1
1.449055062E1,6.368082762E-2,5.380037427E-1,5.390727147E-2
1.450026240E1,1.601946950E-1,8.055548072E-1,-9.758284688E-2
1.450997490E1,2.713688910E-1,9.167290330E-1,-2.099787444E-1
1.451968661E1,3.263451457E-1,8.275453448E-1,-2.539597452E-1
1.452939750E1,2.786990702E-1,5.551074743E-1,-2.112004459E-1
1.453910927E1,1.357607991E-1,2.191414535E-1,-7.681404054E-2
1.454882182E1,-3.771981969E-2,-4.718795046E-2,8.444963396E-2
1.455853354E1,-2.002051920E-1,-1.925695986E-1,2.029540092E-1
1.456824443E1,-3.394783735E-1,-2.780882120E-1,2.237228155E-1
1.457795620E1,-4.323271513E-1,-3.208475113E-1,1.296523362E-1
1.458766870E1,-4.408790171E-1,-3.269560039E-1,-5.115845799E-2
1.459738042E1,-3.724641204E-1,-3.013004065E-1,-2.441861928E-1
1.460709130E1,-2.783936262E-1,-2.585411072E-1,-3.810159862E-1
1.461680307E1,-2.038702667E-1,-2.780882120E-1,-4.494308829E-1
1.462651562E1,-1.989834905E-1,-3.892624080E-1,-4.592044353E-1
1.463622734E1,-3.859027624E-1,-5.370874405E-1,-4.482091665E-1
1.464593823E1,-7.328640223E-1,-5.004366040E-1,-3.968980014E-1
1.465565000E1,-1.030957460E0,-2.487675399E-1,-1.977618039E-1
1.466536250E1,-1.093263865E0,-1.498102844E-1,9.544488788E-2
1.467507422E1,-9.930849075E-1,-2.756448388E-1,3.507790267E-1
1.468478510E1,-8.330429196E-1,-1.608055383E-1,5.413633585E-1
1.469449687E1,-6.852179170E-1,-1.168245375E-1,6.525375843E-1
1.470420943E1,-7.035433054E-1,-2.487675399E-1,5.682406425E-1
1.471392114E1,-9.662076235E-1,-2.153236605E-2,1.980672181E-1
1.472363203E1,-1.060278177E0,1.885990947E-1,-3.382566571E-1
1.473334380E1,-8.562551737E-1,2.276933193E-1,-8.000571728E-1
1.474305630E1,-7.010999322E-1,2.020377368E-1,-1.049282908E0
1.475276802E1,-7.304205894E-1,-1.400367320E-1,-1.030957460E0
1.476247891E1,-7.206470370E-1,-5.407525301E-1,-7.267554998E-1
1.477219068E1,-5.276193023E-1,-5.053234100E-1,-1.488940120E-1
1.478190323E1,-1.965401024E-1,-3.391729295E-1,4.753918648E-1
1.479161495E1,1.259872466E-1,-3.550549746E-1,8.628217578E-1
1.480132583E1,3.202366829E-1,-4.918847680E-1,9.886562824E-1
1.481103760E1,4.546230733E-1,-6.079457402E-1,9.129112363E-1
1.482075016E1,6.647545099E-1,-5.041016936E-1,7.492041588E-1
1.483046187E1,9.384140968E-1,-2.047865391E-1,5.596888065E-1
1.484017276E1,1.182752967E0,4.932591692E-2,3.544441164E-1
1.484988453E1,1.325691223E0,1.360662282E-1,1.357607991E-1
1.485959703E1,1.368450522E0,9.330692142E-2,-6.215370819E-2
1.486930875E1,1.342795014E0,-6.872031838E-3,-1.794363856E-1
1.487901964E1,1.291483760E0,-1.070509851E-1,-2.038702667E-1
1.488873146E1,1.216960430E0,-1.400367320E-1,-1.586675793E-1
1.489844396E1,1.100899458E0,-1.131594554E-1,-8.170082420E-2
1.490815568E1,9.286405444E-1,-7.650861889E-2,-2.061609551E-2
1.491786656E1,6.855233312E-1,-4.596625641E-2,-3.512371797E-3
1.492757833E1,4.338542521E-1,4.566083103E-2,-2.672456764E-2
1.493729083E1,2.518217862E-1,1.690519750E-1,-4.749337584E-2
1.494700260E1,1.663031727E-1,2.008160353E-1,-5.726693198E-2
1.495671349E1,1.772984117E-1,1.666085869E-1,-4.016320780E-2
1.496642526E1,2.176143378E-1,1.580567211E-1,3.817795310E-3
1.497613776E1,1.821851879E-1,1.690519750E-1,8.200624585E-2
1.498584948E1,6.490252167E-2,9.941539168E-2,2.261662036E-1
1.499556036E1,-8.536590636E-2,-5.085303262E-2,3.935383558E-1
1.500527219E1,-2.405211031E-1,-1.595838517E-1,4.973823726E-1
1.501498469E1,-3.602471650E-1,-1.742441803E-1,4.961606860E-1
1.502469641E1,-3.956763148E-1,-8.506047726E-2,3.886515796E-1
1.503440729E1,-3.455868363E-1,8.964183182E-2,1.870719790E-1
1.504411906E1,-2.295258641E-1,3.071034551E-1,-6.215370819E-2
1.505383161E1,-7.681404054E-2,5.270084739E-1,-3.199312389E-1
