"Time (s)","Gyroscope x (rad/s)","Gyroscope y (rad/s)","Gyroscope z (rad/s)"
1.882984450E-1,1.075091213E-1,-1.282779220E-2,1.901262105E-1
1.980120390E-1,2.125748396E-1,-5.192201585E-2,1.718007922E-1
2.077263610E-1,3.506263196E-1,-1.459924877E-1,1.559187621E-1
2.174398510E-1,5.253286362E-1,-2.754921019E-1,1.314848661E-1
2.271525590E-1,7.159129977E-1,-3.976615667E-1,1.009425074E-1
2.368661530E-1,9.052756429E-1,-4.734066129E-1,5.329642445E-2
2.465804760E-1,1.089751482E0,-5.063923597E-1,-2.122694254E-2
2.562939660E-1,1.268118858E0,-5.296045542E-1,-1.189625040E-1
2.660066740E-1,1.445264578E0,-5.479300022E-1,-2.374668717E-1
2.757202680E-1,1.606528282E0,-5.259394646E-1,-3.633013964E-1
2.854345910E-1,1.705485582E0,-3.585673273E-1,-4.683671296E-1
2.951480800E-1,1.668834686E0,1.649287529E-2,-5.025745630E-1
3.048608410E-1,1.472141862E0,5.418215394E-1,-4.390464723E-1
3.145743300E-1,1.180156946E0,1.003622055E0,-3.217637837E-1
3.242887050E-1,8.429692388E-1,1.190541267E0,-2.631224692E-1
3.340021950E-1,5.253286362E-1,1.105022669E0,-3.144336343E-1
3.437149550E-1,3.139754832E-1,9.584193230E-1,-4.085040987E-1
3.534285490E-1,2.015796006E-1,8.448017836E-1,-4.744756222E-1
3.631428720E-1,8.063183725E-2,6.517740488E-1,-4.879142344E-1
3.728563090E-1,-9.162709117E-2,3.231382072E-1,-4.414898455E-1
3.825690700E-1,-2.834331393E-1,-1.240019947E-1,-3.779617548E-1
3.922826640E-1,-4.618005157E-1,-6.163448691E-1,-3.217637837E-1
4.019969860E-1,-5.913001299E-1,-9.425373077E-1,-2.289150059E-1
4.117104760E-1,-6.230642200E-1,-1.083032131E0,-9.575030953E-2
4.214231840E-1,-5.644228458E-1,-1.105022669E0,-4.123218823E-3
4.311367780E-1,-5.167768002E-1,-9.193251133E-1,-1.756185852E-2
4.408511010E-1,-5.228852630E-1,-4.184303582E-1,-9.697200358E-2
4.505645910E-1,-4.691306949E-1,1.960819662E-1,-1.385096163E-1
4.602773510E-1,-2.736595869E-1,5.283828974E-1,-1.629435122E-1
4.699908410E-1,-3.909422457E-2,4.611896873E-1,-2.081461996E-1
4.797052160E-1,1.808107942E-1,2.522799075E-1,-2.496838123E-1
4.894187050E-1,4.483618736E-1,1.655396074E-1,-2.741177082E-1
4.991314660E-1,7.831062078E-1,1.777565479E-1,-2.509055138E-1
5.088450590E-1,1.121515512E0,2.620534599E-1,-1.714953631E-1
5.185593820E-1,1.392731786E0,6.077930331E-1,-2.977880463E-2
5.282728200E-1,1.566212416E0,1.232078910E0,1.620272398E-1
5.379855800E-1,1.640735745E0,1.868581772E0,3.489464819E-1
5.476991740E-1,1.629740477E0,2.285179615E0,5.053234100E-1
5.574134970E-1,1.574764252E0,2.261967421E0,5.932853818E-1
5.671269860E-1,1.524674773E0,1.688992620E0,6.311579347E-1
5.768397470E-1,1.461146593E0,8.313631415E-1,6.861341596E-1
5.865532360E-1,1.347529054E0,1.160609815E-2,7.496622801E-1
5.962676640E-1,1.171604991E0,-6.261184216E-1,7.704311013E-1
6.059811010E-1,9.773555994E-1,-1.083032131E0,7.105680704E-1
6.156938610E-1,8.588512540E-1,-1.476417780E0,5.688515306E-1
6.254074550E-1,8.441908956E-1,-1.856364846E0,4.051444530E-1
6.351217780E-1,9.187142849E-1,-2.060387850E0,2.903051674E-1
6.448352680E-1,1.004232883E0,-1.899124146E0,2.047865391E-1
6.545480280E-1,1.010341406E0,-1.428771734E0,7.650861889E-2
6.642616220E-1,9.309312105E-1,-8.912261724E-1,-8.842013776E-2
6.739759450E-1,7.941014171E-1,-5.015056133E-1,-2.423536479E-1
6.836893820E-1,6.267293096E-1,-3.500154912E-1,-3.584146202E-1
6.934021430E-1,4.581354558E-1,-3.500154912E-1,-4.133908749E-1
7.031157360E-1,3.261924386E-1,-4.123218954E-1,-4.023956358E-1
7.128300590E-1,2.394521236E-1,-5.381564498E-1,-3.681881726E-1
7.225435490E-1,2.174616307E-1,-6.920899153E-1,-3.486410677E-1
7.322563090E-1,2.687727809E-1,-8.619054556E-1,-3.620797098E-1
7.419699030E-1,3.848337829E-1,-9.987352490E-1,-4.036173224E-1
7.516842260E-1,5.192201734E-1,-1.052489877E0,-4.414898455E-1
7.613977160E-1,6.206207871E-1,-9.901834130E-1,-4.463766217E-1
7.711104760E-1,6.755970716E-1,-8.105943203E-1,-4.268295169E-1
7.808240700E-1,7.085828185E-1,-5.552601814E-1,-4.219427407E-1
7.905383930E-1,7.501204610E-1,-2.999260128E-1,-4.390464723E-1
8.002518820E-1,8.209787011E-1,-8.612946421E-2,-4.439332485E-1
8.099646430E-1,9.077190161E-1,8.612946421E-2,-4.243861437E-1
8.196782360E-1,9.773555994E-1,2.425063550E-1,-3.840702176E-1
8.293925590E-1,9.822424054E-1,3.585673273E-1,-3.449759781E-1
8.391060490E-1,9.309312105E-1,4.428642690E-1,-2.973299026E-1
8.488188090E-1,8.527427912E-1,4.892886579E-1,-2.386885732E-1
8.585324030E-1,7.733326554E-1,4.831801951E-1,-1.751604527E-1
8.682467260E-1,7.036960125E-1,3.964398801E-1,-1.250709742E-1
8.779602160E-1,6.474980712E-1,2.363978922E-1,-8.108997345E-2
8.876729760E-1,6.047387719E-1,5.925218388E-2,-3.588727489E-2
8.973865700E-1,5.473191738E-1,-5.070032179E-2,3.008422814E-2
9.071008930E-1,4.569137394E-1,-6.291726977E-2,1.021642014E-1
9.168143820E-1,3.542914093E-1,-3.115320951E-2,1.571404636E-1
9.265271430E-1,2.651077211E-1,-1.527118124E-2,1.889045089E-1
9.362407360E-1,1.930277348E-1,6.108472589E-4,2.035648525E-1
9.459550590E-1,1.221694499E-1,3.603998944E-2,2.133384049E-1
9.556685490E-1,5.497625470E-2,7.391251624E-2,2.096733153E-1
9.653813090E-1,-1.221694518E-2,8.735115826E-2,1.766875684E-1
9.750949030E-1,-7.207997888E-2,5.680879578E-2,1.107160673E-1
9.848092780E-1,-1.185043678E-1,7.941014133E-3,3.741439432E-2
9.945227680E-1,-1.368297935E-1,-1.404948719E-2,-2.489202656E-2
1.004235528E0,-1.197260618E-1,1.771457121E-2,-7.131642103E-2
1.013949122E0,-7.085828483E-2,8.490777016E-2,-1.091889441E-1
1.023663445E0,1.710372418E-2,1.655396074E-1,-1.324011385E-1
1.033377039E0,1.356080920E-1,2.510582209E-1,-1.409530044E-1
1.043089695E0,2.602209449E-1,3.243598938E-1,-1.495048702E-1
1.052803341E0,3.823903799E-1,3.683409095E-1,-1.910424829E-1
1.062517664E0,5.485408306E-1,3.182514310E-1,-2.777827978E-1
1.072231153E0,8.368607163E-1,4.092676565E-2,-4.011739492E-1
1.081943914E0,1.108076930E0,-4.025483429E-1,-5.245651007E-1
1.091657507E0,1.065317631E0,-7.128587365E-1,-5.477772951E-1
1.101371882E0,6.022953987E-1,-7.434011102E-1,-4.488200247E-1
1.111085372E0,-1.856975704E-1,-5.418215394E-1,-2.338017821E-1
1.120798132E0,-1.098303318E0,-1.411057115E-1,6.673506647E-2
1.130511726E0,-1.870414257E0,3.194731176E-1,3.428380191E-1
1.140226101E0,-2.375126839E0,7.470661998E-1,5.053234100E-1
1.149939591E0,-2.653673172E0,1.133121610E0,5.651864409E-1
1.159652351E0,-2.784394503E0,1.420219898E0,5.554128885E-1
1.169365945E0,-2.819823742E0,1.570488334E0,4.967715442E-1
1.179080320E0,-2.781951189E0,1.585148692E0,4.198047817E-1
1.188793809E0,-2.690324068E0,1.498408318E0,3.648285270E-1
1.198506570E0,-2.565711260E0,1.344474792E0,3.342861533E-1
1.208220164E0,-2.425216436E0,1.181989431E0,3.171824515E-1
1.217934539E0,-2.278460264E0,1.061041713E0,3.037438095E-1
1.227648028E0,-2.119639874E0,9.926267862E-1,2.854183912E-1
1.237360789E0,-1.948602796E0,9.645278454E-1,2.573194206E-1
1.247074382E0,-1.772678733E0,9.571976662E-1,2.353289127E-1
1.256788757E0,-1.619966984E0,9.303203821E-1,2.389939874E-1
1.266502247E0,-1.502684236E0,8.191461563E-1,2.695363462E-1
1.276215007E0,-1.426939249E0,5.809157491E-1,3.171824515E-1
1.285928653E0,-1.406170368E0,1.960819662E-1,3.684936166E-1
1.295642976E0,-1.458703279E0,-2.449497581E-1,4.259132445E-1
1.305356466E0,-1.588202834E0,-5.967977643E-1,4.808894992E-1
1.315069226E0,-1.723810911E0,-8.386932611E-1,5.297572613E-1
1.324782872E0,-1.778787255E0,-1.009730577E0,5.749599934E-1
1.334497195E0,-1.759240150E0,-1.112352848E0,5.945070982E-1
1.344210789E0,-1.714037418E0,-1.041494608E0,5.822901726E-1
1.353923497E0,-1.678608298E0,-7.580614686E-1,5.383091569E-1
1.363637091E0,-1.638292313E0,-2.779355049E-1,4.808894992E-1
1.373351466E0,-1.560103893E0,2.754921019E-1,4.222481549E-1
1.383064955E0,-1.446486354E0,7.262973785E-1,3.770454824E-1
1.392777716E0,-1.277892470E0,9.217684865E-1,3.538332880E-1
1.402491361E0,-1.055544019E0,7.837170362E-1,3.281776905E-1
1.412205684E0,-8.307522535E-1,4.049917459E-1,3.037438095E-1
1.421919278E0,-6.267293096E-1,9.162709117E-3,2.719797492E-1
1.431631986E0,-4.361449480E-1,-2.889307439E-1,2.035648525E-1
1.441345580E0,-2.492256761E-1,-4.453076422E-1,1.033858955E-1
1.451059955E0,-6.108472496E-2,-4.734066129E-1,-5.344913341E-3
1.460773445E0,1.258345395E-1,-4.135435820E-1,-1.043021679E-1
1.470486257E0,3.103103936E-1,-3.304683566E-1,-1.861557066E-1
1.480199851E0,4.886777997E-1,-2.632751763E-1,-2.460187376E-1
1.489914226E0,6.670452356E-1,-2.192941606E-1,-2.899997234E-1
1.499627716E0,8.576295376E-1,-2.119639963E-1,-3.144336343E-1
1.509340476E0,1.055544019E0,-2.388412803E-1,-3.376458287E-1
1.519054122E0,1.243685007E0,-2.889307439E-1,-3.767400384E-1
1.528768445E0,1.411057115E0,-3.585673273E-1,-4.463766217E-1
1.538482039E0,1.551552057E0,-4.526378214E-1,-5.599942207E-1
1.548194747E0,1.668834686E0,-5.210527182E-1,-7.041541934E-1
1.557908341E0,1.745801449E0,-4.721849263E-1,-8.458707333E-1
1.567622716E0,1.750688195E0,-2.767138183E-1,-9.191724062E-1
1.577336205E0,1.629740477E0,2.993151546E-2,-8.299887180E-1
1.587049018E0,1.330425382E0,4.013266563E-1,-5.599942207E-1
1.596762611E0,8.857285380E-1,6.835380793E-1,-2.838912606E-1
1.606476986E0,3.787252903E-1,7.324058414E-1,-1.947075576E-1
1.616190476E0,-4.642439261E-2,5.943543911E-1,-2.582356930E-1
1.625903236E0,-2.932066917E-1,4.367557764E-1,-3.571929336E-1
1.635616882E0,-3.640649617E-1,2.974826097E-1,-4.194993675E-1
1.645331205E0,-3.347443044E-1,7.269082218E-2,-3.926220834E-1
1.655044799E0,-2.834331393E-1,-2.889307439E-1,-2.704526186E-1
1.664757507E0,-2.528907657E-1,-7.397360206E-1,-1.238492802E-1
1.674471153E0,-2.736595869E-1,-1.199093223E0,-3.955236077E-2
1.684185476E0,-3.591781855E-1,-1.462979198E0,-4.123218823E-3
1.693899070E0,-4.532486796E-1,-1.389677525E0,9.727742523E-2
1.703611778E0,-4.410317242E-1,-1.070815206E0,2.389939874E-1
1.713325424E0,-2.895416021E-1,-6.847597957E-1,2.854183912E-1
1.723039747E0,-1.123958975E-1,-4.624113739E-1,1.742441803E-1
1.732753341E0,2.809897438E-2,-3.463504016E-1,5.329642445E-2
1.742466049E0,1.185043678E-1,-9.956810623E-2,4.718795046E-2
1.752179643E0,2.761029601E-1,3.182514310E-1,1.461452097E-1
1.761894018E0,6.108472347E-1,6.920899153E-1,1.913478971E-1
1.771607611E0,1.009119630E0,9.694145918E-1,1.021642014E-1
1.781320320E0,1.334090471E0,1.207645059E0,2.153236605E-2
1.791033966E0,1.532004952E0,1.386012435E0,6.872031838E-3
1.800748289E0,1.608971715E0,1.515512109E0,1.175880991E-2
1.810461882E0,1.584537745E0,1.626686215E0,1.664558798E-2
1.820174591E0,1.485580564E0,1.703652978E0,2.519745007E-2
1.829888184E0,1.357302666E0,1.714648247E0,4.596625641E-2
1.839602559E0,1.235133171E0,1.588813663E0,9.361234307E-2
1.849316153E0,1.160609841E0,1.261399627E0,1.998997629E-1
1.859028861E0,1.158166409E0,6.297835112E-1,3.807105422E-1
1.868742455E0,1.219251156E0,-2.828222811E-1,5.761816502E-1
1.878456830E0,1.268118858E0,-1.170994163E0,6.751389503E-1
1.888170424E0,1.286444306E0,-1.773289561E0,5.859552622E-1
1.897883132E0,1.273005724E0,-2.130024433E0,3.452814221E-1
1.907596726E0,1.248571754E0,-2.280292749E0,7.773031294E-2
1.917311101E0,1.216807723E0,-2.136132956E0,-1.397313178E-1
1.927024591E0,1.141062737E0,-1.636459827E0,-2.948864996E-1
1.936737403E0,1.023779988E0,-9.242119193E-1,-4.060607255E-1
1.946450997E0,8.967237473E-1,-2.302894145E-1,-4.940227270E-1
1.956165372E0,7.757760286E-1,2.547233105E-1,-5.441122055E-1
1.965878861E0,6.755970716E-1,5.259394646E-1,-5.551074743E-1
1.975591674E0,5.790832043E-1,6.700994372E-1,-5.306735635E-1
1.985305268E0,4.850127101E-1,7.446228266E-1,-4.866925478E-1
1.995019643E0,4.104893506E-1,7.776085734E-1,-4.402681589E-1
2.004733132E0,3.762819171E-1,7.446228266E-1,-3.987305462E-1
2.014445945E0,3.933856487E-1,5.931326747E-1,-3.828485310E-1
2.024159539E0,4.630222321E-1,3.194731176E-1,-3.840702176E-1
2.033873914E0,5.558710098E-1,-3.054236295E-3,-3.718532622E-1
2.043587403E0,6.377245188E-1,-2.547233105E-1,-3.254288733E-1
2.053300216E0,6.865923405E-1,-3.744493723E-1,-2.521272004E-1
2.063013809E0,7.085828185E-1,-3.939964771E-1,-1.849340051E-1
2.072728184E0,7.281299233E-1,-3.634541333E-1,-1.409530044E-1
2.082441674E0,7.696675658E-1,-3.365768492E-1,-1.177408099E-1
2.092154486E0,8.429692388E-1,-3.377985358E-1,-9.819369763E-2
2.101868080E0,9.407047629E-1,-3.487937748E-1,-7.986827940E-2
2.111582455E0,1.038440347E0,-3.365768492E-1,-7.620319724E-2
2.121295945E0,1.109298587E0,-2.852656841E-1,-9.452861547E-2
2.131008757E0,1.138619304E0,-1.899735034E-1,-1.287360638E-1
2.140722351E0,1.128845692E0,-6.047387794E-2,-1.751604527E-1
2.150436726E0,1.092194915E0,8.735115826E-2,-2.166980654E-1
2.160150216E0,1.038440347E0,2.400629669E-1,-2.435753495E-1
2.169863028E0,9.639169574E-1,3.903313875E-1,-2.399102598E-1
2.179576622E0,8.637380004E-1,5.454866290E-1,-1.947075576E-1
2.189290997E0,7.391251922E-1,7.067502737E-1,-1.152974218E-1
2.199004486E0,6.059604883E-1,8.411366940E-1,-3.100049868E-2
2.208717299E0,4.837910235E-1,9.034430981E-1,3.497100621E-2
2.218430893E0,3.775036037E-1,8.838959932E-1,7.650861889E-2
2.228145268E0,2.858765125E-1,8.105943203E-1,9.972081333E-2
2.237858757E0,2.052446753E-1,7.140804529E-1,1.180462316E-1
2.247571570E0,1.417165697E-1,6.126797795E-1,1.461452097E-1
2.257285164E0,8.918370306E-2,5.149442554E-1,1.779092699E-1
2.266999539E0,3.420744836E-2,4.306473136E-1,2.011214644E-1
2.276713028E0,-9.773556143E-3,3.561239541E-1,2.170034945E-1
2.286425789E0,-3.176405653E-2,2.901524603E-1,2.377723008E-1
2.296139434E0,-2.076880634E-2,2.119639963E-1,2.658712566E-1
2.305853809E0,3.054236248E-2,8.612946421E-2,2.866400778E-1
2.315567299E0,1.343863904E-1,-9.590301663E-2,2.768665254E-1
2.325280059E0,2.773246467E-1,-2.938175201E-1,2.157817930E-1
2.334993705E0,3.982724249E-1,-4.257605374E-1,9.849911928E-2
2.344708080E0,4.679090083E-1,-4.465293586E-1,-6.276455522E-2
2.354421570E0,5.155550838E-1,-3.927747905E-1,-2.411319613E-1
2.364134330E0,5.815265775E-1,-3.304683566E-1,-4.036173224E-1
2.373847976E0,6.755970716E-1,-3.084778786E-1,-5.465555787E-1
2.383562299E0,7.440119386E-1,-3.072561622E-1,-6.516213417E-1
2.393275893E0,6.963658929E-1,-2.644968629E-1,-6.540647149E-1
2.402988601E0,4.544703662E-1,-1.692046970E-1,-5.661026835E-1
2.412702247E0,-2.443389036E-3,9.162709117E-3,-4.622586668E-1
2.422416570E0,-5.937435627E-1,2.938175201E-1,-3.523061574E-1
2.432130164E0,-1.172826767E0,6.273401380E-1,-2.130329758E-1
2.441842872E0,-1.663947940E0,9.413156509E-1,-4.077405483E-2
2.451556518E0,-2.070772171E0,1.180767775E0,1.327065676E-1
2.461270841E0,-2.405669212E0,1.357913494E0,2.695363462E-1
2.470984434E0,-2.657338381E0,1.526507258E0,3.599417508E-1
2.480697143E0,-2.813715219E0,1.714648247E0,4.002576768E-1
2.490410736E0,-2.868691444E0,1.917449594E0,4.063661397E-1
2.500125111E0,-2.841814280E0,2.136132956E0,4.002576768E-1
2.509838705E0,-2.739191771E0,2.359703064E0,4.002576768E-1
2.519551414E0,-2.579149723E0,2.511193037E0,4.112529159E-1
2.529265007E0,-2.395895720E0,2.492867708E0,4.295783341E-1
2.538979382E0,-2.218597174E0,2.286401272E0,4.466820657E-1
2.548692872E0,-2.040229797E0,1.989529490E0,4.662291706E-1
2.558405684E0,-1.850867152E0,1.698766232E0,4.833329022E-1
2.568119278E0,-1.654174328E0,1.438545346E0,4.955498278E-1
2.577833653E0,-1.452594757E0,1.189319611E0,4.992149174E-1
2.587547143E0,-1.274227381E0,9.694145918E-1,5.297572613E-1
2.597259903E0,-1.136175871E0,6.676560640E-1,5.847335458E-1
2.606973549E0,-1.070204377E0,1.582094431E-1,6.323796511E-1
2.616687872E0,-1.109298587E0,-4.611896873E-1,6.507050395E-1
2.626401466E0,-1.225359559E0,-9.413156509E-1,6.617003083E-1
2.636114174E0,-1.340198874E0,-1.186876178E0,6.470399499E-1
2.645827768E0,-1.417165637E0,-1.144116879E0,5.590779781E-1
2.655542143E0,-1.459924936E0,-7.421793938E-1,4.246915579E-1
2.665255632E0,-1.447708011E0,-6.169557199E-2,2.548760176E-1
2.674968445E0,-1.401283622E0,5.809157491E-1,1.033858955E-1
2.684682039E0,-1.303548098E0,9.144383669E-1,2.031067200E-2
2.694396414E0,-1.165496588E0,9.303203821E-1,-1.389677543E-2
2.704109903E0,-1.007897973E0,7.238540053E-1,-1.267508045E-2
2.713822664E0,-8.441908956E-1,3.707842827E-1,1.664558798E-2
2.723536309E0,-6.902574301E-1,-1.893626526E-2,5.818320066E-2
2.733250632E0,-5.522059202E-1,-2.962609231E-1,8.750387281E-2
2.742964226E0,-4.141544402E-1,-4.220954478E-1,7.406523079E-2
2.752676934E0,-2.761029601E-1,-4.294256270E-1,1.786728203E-2
2.762390528E0,-1.331647038E-1,-3.854446113E-1,-6.032116711E-2
2.772104903E0,1.588202827E-2,-3.390202224E-1,-1.409530044E-1
2.781818393E0,1.918060333E-1,-3.158080280E-1,-2.142546773E-1
2.791531205E0,3.994941115E-1,-3.280249834E-1,-2.594573796E-1
2.801244799E0,6.352811456E-1,-3.732276857E-1,-2.704526186E-1
2.810959122E0,8.735115528E-1,-4.306473136E-1,-2.594573796E-1
2.820672716E0,1.088529825E0,-4.538595080E-1,-2.533488870E-1
2.830385424E0,1.270562291E0,-4.111002088E-1,-2.728960216E-1
2.840099070E0,1.415943980E0,-3.353551328E-1,-3.278722763E-1
2.849813393E0,1.524674773E0,-2.388412803E-1,-4.060607255E-1
2.859526986E0,1.585759521E0,-7.757759839E-2,-4.818057716E-1
2.869239695E0,1.564990640E0,2.009687424E-1,-5.172349215E-1
2.878953289E0,1.448929667E0,5.821374655E-1,-4.940227270E-1
2.888667664E0,1.268118858E0,9.840749502E-1,-4.146125913E-1
2.898381153E0,1.061652541E0,1.291942000E0,-3.107685447E-1
2.908093914E0,8.612946272E-1,1.335922956E0,-2.447970361E-1
2.917807559E0,7.024743557E-1,1.107466102E0,-2.509055138E-1
2.927521882E0,5.864133835E-1,7.751652002E-1,-3.156553209E-1
2.937235372E0,4.593571424E-1,4.306473136E-1,-4.085040987E-1
2.946948184E0,2.699944973E-1,6.536065787E-2,-4.671454430E-1
2.956661778E0,5.131116882E-2,-2.840439677E-1,-4.708105326E-1
2.966376153E0,-1.710372269E-1,-6.236750484E-1,-4.500417113E-1
2.976089643E0,-3.958290219E-1,-9.694145918E-1,-4.158342779E-1
2.985802403E0,-5.974085927E-1,-1.244295835E0,-3.571929336E-1
2.995515997E0,-7.660024762E-1,-1.366465330E0,-2.374668717E-1
3.005230372E0,-8.160919547E-1,-1.415333152E0,-8.231166750E-2
3.014943861E0,-6.829272509E-1,-1.321262598E0,-1.634016447E-2
3.024656622E0,-5.057815313E-1,-1.052489877E0,-1.898207814E-1
3.034370268E0,-3.200839758E-1,-6.859814525E-1,-4.500417113E-1
3.044084591E0,-7.818844914E-2,-3.109212518E-1,-5.453338623E-1
3.053798184E0,1.600419879E-1,8.124268800E-2,-4.146125913E-1
3.063510893E0,3.164188862E-1,4.477510452E-1,-1.104106456E-1
3.073224486E0,3.994941115E-1,5.479300022E-1,1.363716573E-1
3.082938861E0,5.155550838E-1,5.137225389E-1,1.925695986E-1
3.092652351E0,7.488987446E-1,6.053496599E-1,1.998997629E-1
3.102365111E0,1.056765795E0,7.495095730E-1,2.365505993E-1
3.112078705E0,1.319430113E0,9.645278454E-1,2.756448388E-1
3.121793080E0,1.457481503E0,1.273616552E0,3.086305857E-1
3.131506570E0,1.485580564E0,1.544832706E0,3.355078697E-1
3.141219330E0,1.464811683E0,1.637681484E0,3.599417508E-1
3.150932976E0,1.447708011E0,1.532615781E0,3.978142738E-1
3.160647299E0,1.447708011E0,1.246739268E0,4.711159468E-1
3.170360893E0,1.430604339E0,8.435800672E-1,5.676298141E-1
3.180073601E0,1.367076159E0,4.159869850E-1,6.445965767E-1
3.189787195E0,1.275449038E0,2.748812735E-2,6.531484127E-1
3.199501518E0,1.204590797E0,-3.048127890E-1,5.945070982E-1
3.209215111E0,1.198482275E0,-6.236750484E-1,4.967715442E-1
3.218927820E0,1.284000993E0,-9.413156509E-1,3.831539452E-1
3.228641414E0,1.398840189E0,-1.073258638E0,2.548760176E-1
3.238355789E0,1.407392025E0,-8.362498879E-1,9.116895497E-2
3.248069278E0,1.270562291E0,-3.402419090E-1,-9.575030953E-2
3.257782039E0,1.040883780E0,1.618745178E-1,-2.606790662E-1
3.267495632E0,7.794411182E-1,5.283828974E-1,-3.425326049E-1
3.277210007E0,5.448757410E-1,7.421793938E-1,-3.229855001E-1
3.286923497E0,3.762819171E-1,8.325847983E-1,-2.557922900E-1
3.296636257E0,2.858765125E-1,8.228112459E-1,-1.971509457E-1
3.306349851E0,2.626643181E-1,7.055285573E-1,-1.605001241E-1
3.316064226E0,3.090887070E-1,5.051707029E-1,-1.262926757E-1
3.325777716E0,4.117110670E-1,2.864873707E-1,-7.620319724E-2
3.335490476E0,5.216635466E-1,1.521009654E-1,-9.009997360E-3
3.345204070E0,5.961869359E-1,1.374406368E-1,5.207473040E-2
3.354918445E0,6.328377724E-1,1.814216375E-1,8.872556686E-2
3.364631934E0,6.621584296E-1,2.278460264E-1,1.046075895E-1
3.374344695E0,7.122479081E-1,2.535016239E-1,1.119377613E-1
3.384058289E0,7.879929543E-1,2.779355049E-1,1.119377613E-1
3.393772664E0,8.735115528E-1,3.365768492E-1,1.021642014E-1
3.403486153E0,9.504783154E-1,4.440859556E-1,8.017370105E-2
3.413198914E0,1.010341406E0,5.735855699E-1,4.596625641E-2
3.422912559E0,1.037218690E0,7.006418109E-1,-1.267508045E-2
3.432626882E0,1.025001645E0,8.057075143E-1,-8.719844371E-2
3.442340372E0,9.883508682E-1,8.692356348E-1,-1.543916464E-1
3.452053132E0,9.541434050E-1,8.680139780E-1,-1.934858710E-1
3.461766726E0,9.358180165E-1,8.069292307E-1,-1.971509457E-1
3.471481101E0,9.150491953E-1,7.348492742E-1,-1.702736765E-1
3.481194591E0,8.722898960E-1,6.908682585E-1,-1.324011385E-1
3.490907351E0,8.112051487E-1,6.652126908E-1,-9.941539168E-2
3.500620945E0,7.476770282E-1,6.529957056E-1,-7.498150319E-2
3.510335320E0,6.975875497E-1,6.652126908E-1,-5.787777901E-2
3.520048809E0,6.768187881E-1,7.030851841E-1,-5.421269313E-2
3.529761570E0,6.841489077E-1,7.739434838E-1,-6.398624927E-2
3.539475164E0,7.134696245E-1,8.704573512E-1,-7.864658535E-2
3.549189539E0,7.379034758E-1,9.962918758E-1,-8.964183182E-2
3.558903028E0,7.134696245E-1,1.153890491E0,-8.719844371E-2
3.568615789E0,6.108472347E-1,1.324927688E0,-6.887302548E-2
3.578329382E0,4.361449480E-1,1.467865944E0,-3.222219273E-2
3.588043705E0,2.260134816E-1,1.527729034E0,4.428642802E-3
3.597757299E0,2.687728032E-2,1.478861213E0,3.741439432E-2
3.607470007E0,-1.258345395E-1,1.334701300E0,6.917845458E-2
3.617183601E0,-2.137965411E-1,1.109909415E0,9.849911928E-2
3.626897924E0,-2.211267054E-1,8.142594099E-1,1.033858955E-1
3.636611414E0,-1.539335102E-1,4.782933891E-1,4.963133857E-2
3.646324174E0,-6.841489673E-2,2.046338320E-1,-5.543438718E-2
3.656037820E0,-8.551862091E-3,6.047387794E-2,-1.873773932E-1
3.665752143E0,6.108472496E-2,6.108472589E-4,-3.535278440E-1
3.675465632E0,2.284568697E-1,3.359659761E-2,-5.294518471E-1
3.685178393E0,4.960079789E-1,1.838650256E-1,-6.736118197E-1
3.694891986E0,7.745543122E-1,4.636330605E-1,-7.518002391E-1
3.704606361E0,9.407047629E-1,9.009997249E-1,-7.285880446E-1
3.714319851E0,9.504783154E-1,1.421441555E0,-7.090409398E-1
3.724032611E0,8.441908956E-1,1.901567459E0,-7.652388811E-1
3.733746205E0,6.487197876E-1,2.258302212E0,-7.933378816E-1
3.743460528E0,2.907632887E-1,2.426896095E0,-6.552863717E-1
3.753174122E0,-3.261924386E-1,2.414679289E0,-3.425326049E-1
3.762886830E0,-1.137397647E0,2.349929333E0,4.474456236E-2
3.772600424E0,-1.919282079E0,2.365811348E0,3.623851240E-1
3.782314747E0,-2.466753960E0,2.533183575E0,5.383091569E-1
3.792028236E0,-2.748965263E0,2.793557167E0,6.055023670E-1
3.801740997E0,-2.833262205E0,3.030565977E0,6.213843822E-1
3.811454591E0,-2.792946339E0,3.146626949E0,6.055023670E-1
3.821168966E0,-2.676885366E0,3.075768709E0,5.664080977E-1
3.830882455E0,-2.531503677E0,2.723767996E0,5.297572613E-1
3.840595216E0,-2.387343884E0,2.061609507E0,5.065450668E-1
3.850308809E0,-2.239366055E0,1.313932419E0,5.199837089E-1
3.860023132E0,-2.051225185E0,8.228112459E-1,5.835118294E-1
3.869736726E0,-1.788560748E0,6.749862432E-1,7.032378912E-1
3.879449434E0,-1.497797489E0,9.315420985E-1,8.498412371E-1
3.889163028E0,-1.220472813E0,1.311489105E0,9.622371197E-1
3.898877351E0,-1.014006495E0,1.564379811E0,1.036760569E0
3.908590841E0,-9.333745837E-1,1.547276139E0,1.106397152E0
3.918303601E0,-1.021336675E0,1.241852522E0,1.171146870E0
3.928017195E0,-1.240019917E0,7.800519466E-1,1.191915751E0
3.937731518E0,-1.503905892E0,4.697415531E-1,1.167481780E0
3.947445111E0,-1.696933627E0,3.683409095E-1,1.097845197E0
3.957157820E0,-1.737249613E0,4.086568058E-1,9.903361201E-1
3.966871414E0,-1.596754789E0,6.700994372E-1,8.791618943E-1
3.976585736E0,-1.285222650E0,1.028055906E0,7.398887277E-1
3.986299226E0,-8.380824327E-1,1.323706031E0,5.957288146E-1
3.996011986E0,-3.652866483E-1,1.476417780E0,4.821111858E-1
4.005725580E0,-1.221694518E-3,1.378682256E0,4.149180055E-1
4.015439903E0,2.137965411E-1,1.152668834E0,3.623851240E-1
4.025153497E0,2.797680497E-1,9.767447710E-1,3.025220931E-1
4.034866205E0,2.309002578E-1,8.985562921E-1,2.304421216E-1
4.044579799E0,1.209477559E-1,8.338065147E-1,1.498102844E-1
4.054294122E0,1.221694518E-3,7.116370797E-1,9.116895497E-2
4.064007611E0,-6.719319522E-2,5.723638535E-1,8.017370105E-2
4.073720372E0,-5.619794875E-2,4.355340898E-1,1.082726792E-1
4.083433966E0,3.298575059E-2,2.950392365E-1,1.522536725E-1
4.093148289E0,1.991362125E-1,1.667613089E-1,2.023431510E-1
4.102861882E0,4.385883212E-1,5.925218388E-2,2.414373755E-1
4.112574539E0,7.354601026E-1,-1.893626526E-2,2.475458533E-1
4.122288184E0,1.060430884E0,-2.748812735E-2,2.182251811E-1
4.132002507E0,1.393953443E0,1.404948719E-2,1.534753740E-1
4.141715997E0,1.711593986E0,9.590301663E-2,6.673506647E-2
4.151428757E0,1.980366826E0,2.388412803E-1,-2.000524849E-2
4.161142351E0,2.175837994E0,4.404208660E-1,-8.719844371E-2
4.170856674E0,2.283347130E0,6.566607952E-1,-1.250709742E-1
4.180570164E0,2.265021563E0,8.704573512E-1,-1.177408099E-1
4.190282924E0,2.101314545E0,1.142895222E0,-8.719844371E-2
4.199996518E0,1.809329629E0,1.571709991E0,-5.665608495E-2
4.209710893E0,1.426939249E0,2.217986345E0,-4.321744293E-2
4.219424382E0,1.097081661E0,2.945047379E0,-2.855710872E-2
4.229137143E0,9.688037634E-1,3.433725119E0,1.420219894E-2
4.238850736E0,9.541434050E-1,3.351871729E0,5.329642445E-2
4.248565059E0,8.637380004E-1,2.571056128E0,2.397575416E-2
4.258278549E0,6.084038615E-1,1.437323570E0,-2.855710872E-2
4.267991309E0,2.247917950E-1,4.086568058E-1,-2.611372061E-2
4.277704903E0,-2.052446753E-1,-3.634541333E-1,2.641914412E-2
4.287419278E0,-5.570927262E-1,-9.132166505E-1,5.573981255E-2
4.297132768E0,-7.379034758E-1,-1.131899953E0,4.718795046E-2
4.306845476E0,-7.855495811E-1,-1.017060637E0,7.162184268E-2
4.316559070E0,-7.134696245E-1,-7.653915882E-1,1.339282542E-1
4.326273445E0,-5.546492934E-1,-5.063923597E-1,1.559187621E-1
4.335986934E0,-3.811686933E-1,-3.292466700E-1,4.107947648E-2
4.345699695E0,-1.795890927E-1,-2.669402659E-1,-1.458397806E-1
4.355413289E0,7.452336699E-2,-1.374406368E-1,-2.753393948E-1
4.365127611E0,2.528907657E-1,3.158080280E-1,-2.509055138E-1
4.374841101E0,3.640649617E-1,9.352071285E-1,-7.986827940E-2
4.384553861E0,5.131117105E-1,1.291942000E0,5.818320066E-2
4.394267455E0,7.611156702E-1,1.375017166E0,7.406523079E-2
4.403981778E0,1.075091124E0,1.449540496E0,5.940489471E-2
4.413695372E0,1.315765023E0,1.487413049E0,6.795676053E-2
4.423408080E0,1.437934399E0,1.548497796E0,8.261708915E-2
4.433121674E0,1.469698548E0,1.674332380E0,1.156028435E-1
4.442835997E0,1.450151443E0,1.801388621E0,1.669140160E-1
4.452549486E0,1.418387294E0,1.841704488E0,2.316638231E-1
4.462262247E0,1.398840189E0,1.730530262E0,3.220692277E-1
4.471975841E0,1.402505279E0,1.505738497E0,4.625640810E-1
4.481690164E0,1.401283622E0,1.265064716E0,6.702521443E-1
4.491403653E0,1.351194143E0,1.057376623E0,8.559496999E-1
4.501116414E0,1.252236843E0,8.790091872E-1,8.877137899E-1
4.510830007E0,1.141062737E0,6.859814525E-1,7.631009221E-1
4.520544382E0,1.093416572E0,3.695625961E-1,5.883986354E-1
4.530257872E0,1.205812454E0,-2.180724740E-1,4.430169761E-1
4.539970632E0,1.474585295E0,-9.914051294E-1,3.440597057E-1
4.549684226E0,1.755575061E0,-1.537502527E0,2.402156889E-1
4.559398549E0,1.882631302E0,-1.557049632E0,5.085303262E-2
4.569112039E0,1.739693046E0,-1.001178622E0,-1.849340051E-1
4.578824799E0,1.369519591E0,-1.679829955E-1,-3.889569938E-1
4.588538393E0,9.309312105E-1,5.063923597E-1,-5.257867575E-1
4.598252768E0,5.656445622E-1,8.435800672E-1,-5.636593103E-1
4.607966257E0,3.042019308E-1,9.156600237E-1,-4.879142344E-1
4.617679018E0,1.392731816E-1,8.276980519E-1,-3.547495604E-1
4.627392611E0,9.162709117E-2,6.346703172E-1,-2.191414535E-1
4.637106934E0,1.710372269E-1,3.536805511E-1,-1.287360638E-1
4.646820424E0,3.530697227E-1,3.848337755E-2,-1.275143623E-1
4.656533184E0,5.766398311E-1,-1.960819662E-1,-1.617218107E-1
4.666246778E0,7.427902818E-1,-2.425063550E-1,-1.617218107E-1
4.675961153E0,8.136485219E-1,-1.154501289E-1,-1.702736765E-1
4.685674643E0,8.160919547E-1,1.203369126E-1,-2.032594234E-1
4.695387403E0,8.026533127E-1,3.756710589E-1,-2.484621257E-1
4.705100997E0,8.112051487E-1,5.650337338E-1,-2.912214398E-1
4.714815320E0,8.368607163E-1,6.688777208E-1,-3.229855001E-1
4.724528809E0,8.588512540E-1,7.262973785E-1,-3.315373361E-1
4.734241570E0,8.637380004E-1,7.727217674E-1,-3.180987239E-1
4.743955216E0,8.832851648E-1,8.826742768E-1,-2.924431264E-1
4.753669539E0,9.138274789E-1,9.840749502E-1,-2.936648130E-1
4.763383028E0,8.942803741E-1,8.924478292E-1,-3.180987239E-1
4.773095789E0,8.466343284E-1,6.981984377E-1,-3.352024257E-1
4.782809382E0,7.977665067E-1,5.039489865E-1,-3.425326049E-1
4.792523757E0,7.537854910E-1,3.646758199E-1,-3.352024257E-1
4.802237247E0,7.159129977E-1,2.852656841E-1,-3.144336343E-1
4.811950007E0,6.707102656E-1,2.437280566E-1,-2.826695740E-1
4.821663601E0,6.328377724E-1,2.547233105E-1,-2.362451702E-1
4.831377924E0,6.035171151E-1,3.194731176E-1,-1.800472289E-1
4.841091518E0,5.827482939E-1,4.257605374E-1,-1.311794519E-1
4.850804226E0,5.680879354E-1,5.283828974E-1,-9.819369763E-2
4.860517820E0,5.619794726E-1,5.943543911E-1,-8.353336155E-2
4.870232143E0,5.570927262E-1,6.481089592E-1,-7.620319724E-2
4.879945632E0,5.375455618E-1,7.299624681E-1,-5.665608495E-2
4.889658393E0,4.874561131E-1,8.411366940E-1,-1.756185852E-2
4.899372039E0,4.117110670E-1,9.425373077E-1,3.863608837E-2
4.909086361E0,3.396310806E-1,9.730796814E-1,8.750387281E-2
4.918799851E0,2.980934680E-1,9.119949341E-1,1.180462316E-1
4.928512611E0,2.895416021E-1,7.898254991E-1,1.351499557E-1
4.938226205E0,3.151971996E-1,6.310052276E-1,1.473668963E-1
4.947940580E0,3.652866483E-1,4.599680007E-1,1.498102844E-1
4.957654070E0,4.312581718E-1,3.011476994E-1,1.265980899E-1
4.967366830E0,4.911212027E-1,1.838650256E-1,8.261708915E-2
4.977080424E0,5.070032477E-1,1.276670843E-1,4.963133857E-2
4.986794799E0,4.727957845E-1,1.056765765E-1,4.352286831E-2
4.996508289E0,4.288147688E-1,4.947862774E-2,3.008422814E-2
5.006221049E0,4.275930822E-1,-9.345962852E-2,-4.566083103E-2
5.015934643E0,4.471401870E-1,-2.644968629E-1,-2.008160353E-1
5.025649018E0,4.019374847E-1,-3.243598938E-1,-3.388675153E-1
5.035362507E0,2.186833173E-1,-1.911951900E-1,-3.730749488E-1
5.045075268E0,-8.796200156E-2,7.269082218E-2,-3.425326049E-1
5.054788861E0,-4.312581718E-1,3.756710589E-1,-3.132119179E-1
5.064503236E0,-7.256865501E-1,6.615476012E-1,-2.863346636E-1
5.074216726E0,-9.736905098E-1,9.095515609E-1,-2.325800955E-1
5.083929486E0,-1.218029380E0,1.109909415E0,-1.433963925E-1
5.093643132E0,-1.491688967E0,1.251626015E0,-2.122694254E-2
5.103357455E0,-1.810551286E0,1.338366389E0,1.168245375E-1
5.113071049E0,-2.147738934E0,1.399451017E0,2.451024652E-1
5.122783757E0,-2.436211586E0,1.487413049E0,3.452814221E-1
5.132497351E0,-2.631682634E0,1.593700528E0,4.320217371E-1
5.142211674E0,-2.724531412E0,1.684105873E0,5.322006941E-1
5.151925268E0,-2.730639935E0,1.731752038E0,6.421532035E-1
5.161637976E0,-2.662225008E0,1.741525531E0,7.240067124E-1
5.171351570E0,-2.533947229E0,1.726865172E0,7.545490861E-1
5.181065945E0,-2.394674063E0,1.696322799E0,7.533273697E-1
5.190779434E0,-2.260134935E0,1.652341843E0,7.411104441E-1
5.200492195E0,-2.112309933E0,1.591257095E0,7.313368917E-1
5.210205841E0,-1.960819721E0,1.535059214E0,7.203416228E-1
5.219920164E0,-1.803221107E0,1.481304646E0,7.252284288E-1
5.229633653E0,-1.656617761E0,1.387234092E0,7.557707429E-1
5.239346466E0,-1.547886968E0,1.223527074E0,7.936432958E-1
5.249060059E0,-1.462368369E0,9.144383669E-1,7.997517586E-1
5.258774434E0,-1.367076159E0,3.402419090E-1,7.667660117E-1
5.268487924E0,-1.305991411E0,-3.768927455E-1,7.264500856E-1
5.278200684E0,-1.407392025E0,-9.706363082E-1,6.568135023E-1
5.287914330E0,-1.672499776E0,-1.250404358E0,5.798467398E-1
5.297628653E0,-1.977923393E0,-1.157555580E0,5.358657837E-1
5.307342247E0,-2.218597174E0,-6.664343476E-1,5.273138881E-1
5.317054955E0,-2.305337667E0,-2.137965336E-2,5.236487985E-1
5.326768549E0,-2.235701084E0,5.320479870E-1,5.346440673E-1
5.336482924E0,-2.026791096E0,8.252546191E-1,5.688515306E-1
5.346196414E0,-1.707928896E0,8.118160367E-1,6.152759194E-1
5.355909174E0,-1.312099934E0,6.566607952E-1,6.445965767E-1
5.365622820E0,-8.698465228E-1,5.283828974E-1,6.189410090E-1
5.375337143E0,-4.373666346E-1,5.381564498E-1,5.383091569E-1
5.385050736E0,-5.008947477E-2,6.077930331E-1,3.917058110E-1
5.394763445E0,2.467822880E-1,6.139014959E-1,1.974563748E-1
5.404477091E0,4.398100376E-1,6.163448691E-1,3.252761811E-2
5.414191414E0,5.473191738E-1,6.090146899E-1,-7.742489129E-2
5.423905007E0,5.986303091E-1,5.369347334E-1,-1.226275861E-1
5.433617716E0,6.377245188E-1,4.159869850E-1,-1.189625040E-1
5.443331309E0,6.988092661E-1,2.498365343E-1,-9.697200358E-2
5.453045684E0,8.014315963E-1,3.603998944E-2,-8.597674966E-2
5.462759278E0,9.578084946E-1,-2.192941606E-1,-9.941539168E-2
5.472471986E0,1.148392797E0,-4.990622103E-1,-1.311794519E-1
5.482185580E0,1.326760292E0,-7.409577370E-1,-1.751604527E-1
5.491899955E0,1.452594757E0,-9.009997249E-1,-2.509055138E-1
5.501613445E0,1.508792758E0,-9.743013978E-1,-3.779617548E-1
5.511326257E0,1.489245653E0,-9.828532338E-1,-5.502206683E-1
5.521039851E0,1.374406338E0,-9.046648145E-1,-7.493568659E-1
5.530754226E0,1.159388065E0,-7.311841846E-1,-9.619317055E-1
5.540467820E0,9.187142849E-1,-5.186093450E-1,-1.134190679E0
5.550180528E0,8.014315963E-1,-2.718270421E-1,-1.137855768E0
5.559894122E0,9.211576581E-1,5.680879578E-2,-9.008470178E-1
5.569608497E0,1.077534556E0,5.552601814E-1,-6.247440577E-1
5.579322091E0,1.051878929E0,9.718579650E-1,-5.160132051E-1
5.589034799E0,7.537854910E-1,1.031720996E0,-5.697677732E-1
5.598748393E0,2.797680497E-1,6.615476012E-1,-6.345176101E-1
5.608462768E0,-1.612636745E-1,1.740914732E-1,-5.856497884E-1
5.618176361E0,-4.874561131E-1,-2.412846684E-1,-4.353813827E-1
5.627889070E0,-7.427902818E-1,-6.468872428E-1,-2.313583940E-1
5.637602716E0,-9.773555994E-1,-1.120904684E0,-4.443913698E-2
5.647317039E0,-1.130067468E0,-1.656006932E0,6.184828654E-2
5.657030632E0,-1.105633497E0,-2.160566807E0,1.595838517E-1
5.666743341E0,-8.845068216E-1,-2.463546991E0,3.843756318E-1
5.676456986E0,-4.251496792E-1,-2.529518604E0,6.531484127E-1
5.686171361E0,1.832541823E-1,-2.105590582E0,7.643226385E-1
5.695884851E0,6.157340407E-1,-7.605048418E-1,5.822901726E-1
5.705597664E0,7.794411182E-1,1.149003744E0,2.231119573E-1
5.715311257E0,8.686248064E-1,2.718881130E0,-2.489202656E-2
5.725025632E0,9.956810474E-1,3.268796444E0,-5.787777901E-2
5.734739226E0,1.138619304E0,2.758128166E0,2.275406010E-2
5.744451934E0,1.249793530E0,1.805053592E0,9.727742523E-2
5.754165580E0,1.294996142E0,1.081810474E0,1.314848661E-1
5.763879955E0,1.263232112E0,7.458444834E-1,1.217113137E-1
5.773593445E0,1.175270081E0,6.529957056E-1,9.849911928E-2
5.783306257E0,1.065317631E0,6.432221532E-1,6.551336497E-2
5.793019903E0,9.700254202E-1,5.870242119E-1,2.397575416E-2
5.802734226E0,9.101623893E-1,4.013266563E-1,3.252761811E-2
5.812447820E0,8.991671801E-1,4.092676565E-2,1.534753740E-1
5.822160528E0,9.345963001E-1,-4.465293586E-1,3.843756318E-1
5.831874174E0,1.026223421E0,-1.006065488E0,6.470399499E-1
5.841588549E0,1.122737288E0,-1.506960154E0,8.009734750E-1
5.851302143E0,1.163053155E0,-1.820935726E0,7.362236381E-1
5.861014851E0,1.148392797E0,-1.979755998E0,4.613423944E-1
5.870728497E0,1.138619304E0,-2.007854939E0,1.058292910E-1
5.880442872E0,1.159388065E0,-1.856364846E0,-1.910424829E-1
5.890156466E0,1.156944752E0,-1.525285602E0,-4.121691883E-1
5.899869174E0,1.099525094E0,-1.090362310E0,-5.538857579E-1
5.909582820E0,9.920159578E-1,-6.212316751E-1,-6.051968932E-1
5.919297195E0,8.527427912E-1,-1.960819662E-1,-5.868715048E-1
5.929010684E0,6.988092661E-1,1.753131598E-1,-5.318952799E-1
5.938723497E0,5.522059202E-1,4.599680007E-1,-4.940227270E-1
5.948437143E0,4.129327536E-1,6.261184216E-1,-4.891359508E-1
5.958151466E0,2.980934680E-1,6.884248853E-1,-4.805840850E-1
5.967865059E0,2.309002578E-1,6.358919740E-1,-4.610369802E-1
5.977577820E0,2.370087355E-1,4.587462842E-1,-4.402681589E-1
5.987291466E0,3.249707520E-1,1.973036677E-1,-4.194993675E-1
5.997005841E0,4.776825607E-1,-7.879929990E-2,-3.999522328E-1
6.006719330E0,6.487197876E-1,-3.121429384E-1,-3.706315756E-1
6.016432143E0,7.916580439E-1,-4.501944184E-1,-3.156553209E-1
6.026145789E0,8.918370008E-1,-4.819584787E-1,-2.496838123E-1
6.035860164E0,9.565867782E-1,-4.489727318E-1,-1.959292591E-1
6.045573653E0,1.000567794E0,-3.744493723E-1,-1.605001241E-1
6.055286466E0,1.037218690E0,-2.767138183E-1,-1.470614821E-1
6.065000111E0,1.062874198E0,-1.594311297E-1,-1.470614821E-1
6.074714486E0,1.062874198E0,-3.359659761E-2,-1.580567211E-1
6.084428080E0,1.035996914E0,8.490777016E-2,-1.678302884E-1
6.094140789E0,9.785773158E-1,1.826433241E-1,-1.776038408E-1
6.103854434E0,9.064973593E-1,2.559449971E-1,-1.800472289E-1
6.113568809E0,8.405258060E-1,2.901524603E-1,-1.751604527E-1
6.123282403E0,7.977665067E-1,3.011476994E-1,-1.543916464E-1
6.132995164E0,7.818844914E-1,3.121429384E-1,-1.336228400E-1
6.142708809E0,7.867712975E-1,3.463504016E-1,-1.152974218E-1
6.152423132E0,7.977665067E-1,4.196520746E-1,-9.086353332E-2
6.162136726E0,7.928797603E-1,5.271611810E-1,-7.009471953E-2
6.171849486E0,7.611156702E-1,6.383354068E-1,-4.443913698E-2
6.181563132E0,7.061394453E-1,7.055285573E-1,-2.611372061E-2
6.191277507E0,6.316160560E-1,7.201889157E-1,7.635590737E-4
6.200991101E0,5.351021886E-1,6.969767213E-1,3.863608837E-2
6.210703861E0,4.178195298E-1,6.505523324E-1,8.383878320E-2
6.220417455E0,2.846548259E-1,5.748072863E-1,1.412584335E-1
6.230131882E0,1.441599578E-1,4.563029110E-1,1.962346882E-1
6.239845372E0,1.832541823E-2,2.742704153E-1,2.438807636E-1
6.249558184E0,-7.574506104E-2,3.726168349E-2,2.817533016E-1
6.259271830E0,-1.099525094E-1,-2.412846684E-1,2.988570333E-1
6.268986205E0,-7.574506104E-2,-5.149442554E-1,2.903051674E-1
6.278699799E0,-1.343864016E-2,-7.030851841E-1,2.438807636E-1
6.288412559E0,2.076880634E-2,-7.629482150E-1,1.400367320E-1
6.298126205E0,3.542914242E-2,-7.201889157E-1,-3.222219273E-2
6.307840580E0,6.352811307E-2,-5.919110179E-1,-2.484621257E-1
6.317554174E0,6.474980712E-2,-4.001049399E-1,-4.769189954E-1
6.327266934E0,-5.619794875E-2,-1.911951900E-1,-6.467345357E-1
6.336980528E0,-3.469612300E-1,2.626643144E-2,-6.699467301E-1
6.346694955E0,-7.806627750E-1,2.351761907E-1,-5.380037427E-1
6.356408549E0,-1.247350097E0,3.939964771E-1,-3.266505599E-1
6.366121257E0,-1.654174328E0,4.734066129E-1,-1.409530044E-1
6.375834903E0,-1.986475229E0,4.807367921E-1,5.650337320E-3
6.385549330E0,-2.268686771E0,4.709632397E-1,1.351499557E-1
6.395262924E0,-2.513178349E0,5.002838969E-1,2.438807636E-1
6.404975632E0,-2.703762770E0,5.870242119E-1,3.196258247E-1
6.414689278E0,-2.819823742E0,7.348492742E-1,3.538332880E-1
6.424403705E0,-2.841814280E0,9.303203821E-1,3.697153032E-1
6.434117299E0,-2.786837816E0,1.153890491E0,3.770454824E-1
6.443830007E0,-2.674442053E0,1.389677525E0,3.782671690E-1
6.453543705E0,-2.522951841E0,1.588813663E0,3.758237660E-1
6.463258080E0,-2.359244823E0,1.659672022E0,3.782671690E-1
6.472971674E0,-2.205158710E0,1.522842169E0,3.978142738E-1
6.482684434E0,-2.074437380E0,1.175881028E0,4.381301999E-1
6.492398080E0,-1.964484811E0,6.945333481E-1,4.906630516E-1
6.502112455E0,-1.872857690E0,1.973036677E-1,5.419742465E-1
6.511826049E0,-1.798334360E0,-2.009687424E-1,5.957288146E-1
6.521538809E0,-1.748244882E0,-4.355340898E-1,6.470399499E-1
6.531252455E0,-1.726254344E0,-5.076140761E-1,7.081246972E-1
6.540966830E0,-1.751909971E0,-5.320479870E-1,7.753179073E-1
6.550680424E0,-1.760461807E0,-7.360709310E-1,8.192988634E-1
6.560393184E0,-1.725032687E0,-9.400939345E-1,8.241856694E-1
6.570106830E0,-1.698155403E0,-8.179244995E-1,7.521057129E-1
6.579821205E0,-1.665169597E0,-4.807367921E-1,6.006155610E-1
6.589534799E0,-1.579650998E0,-5.192201585E-2,4.027010500E-1
6.599247559E0,-1.472141862E0,4.001049399E-1,2.011214644E-1
6.608961205E0,-1.349972486E0,7.385143638E-1,6.184828654E-2
6.618675632E0,-1.211920977E0,8.924478292E-1,-1.389677543E-2
6.628389226E0,-1.051878929E0,8.496885300E-1,-5.054761097E-2
6.638101986E0,-8.783983588E-1,6.542174220E-1,-6.032116711E-2
6.647815632E0,-6.707102656E-1,2.877090573E-1,-8.108997345E-2
6.657530007E0,-4.471401870E-1,-1.240019947E-1,-1.030804738E-1
6.667243601E0,-2.174616307E-1,-4.282039404E-1,-9.452861547E-2
6.676956361E0,1.710372418E-2,-5.222744346E-1,-7.131642103E-2
6.686670007E0,2.467822880E-1,-4.587462842E-1,-5.054761097E-2
6.696384434E0,4.544703662E-1,-3.768927455E-1,-4.810422286E-2
6.706098028E0,6.193991303E-1,-3.341334462E-1,-6.642963737E-2
6.715810789E0,7.354601026E-1,-3.402419090E-1,-1.043021679E-1
6.725524434E0,8.173136115E-1,-3.720059693E-1,-1.580567211E-1
6.735238809E0,8.906152844E-1,-3.964398801E-1,-2.081461996E-1
6.744952455E0,9.565867782E-1,-4.147652984E-1,-2.338017821E-1
6.754665216E0,1.001789451E0,-4.721849263E-1,-2.680092454E-1
6.764378861E0,1.026223421E0,-6.016845703E-1,-3.498627543E-1
6.774093236E0,1.035996914E0,-7.776085734E-1,-4.928010404E-1
6.783806830E0,1.053100705E0,-9.034430981E-1,-6.907155514E-1
6.793519591E0,1.159388065E0,-8.802309036E-1,-8.666395545E-1
6.803233289E0,1.393953443E0,-6.322268844E-1,-9.069554806E-1
6.812947664E0,1.674943209E0,-1.606528312E-1,-7.627955079E-1
6.822661257E0,1.799556017E0,3.830012381E-1,-5.502206683E-1
6.832374018E0,1.601641536E0,8.044858575E-1,-4.695888162E-1
6.842087664E0,1.174048424E0,9.877400398E-1,-5.489989519E-1
6.851802091E0,7.269082665E-1,9.755230546E-1,-6.797202826E-1
6.861515684E0,3.665083647E-1,7.959339619E-1,-7.579087615E-1
6.871228445E0,1.038440317E-1,4.147652984E-1,-7.408050299E-1
6.880942091E0,-7.085828483E-2,-1.887518018E-1,-6.455128193E-1
6.890656518E0,-2.296785712E-1,-9.474241138E-1,-5.196782947E-1
6.900370111E0,-4.508052766E-1,-1.706096411E0,-4.072824121E-1
6.910082872E0,-7.146912813E-1,-2.242420197E0,-3.376458287E-1
6.919796518E0,-9.223793745E-1,-2.439113140E0,-3.168770075E-1
6.929510945E0,-9.969027042E-1,-2.291288137E0,-2.704526186E-1
6.939224539E0,-8.417475224E-1,-1.906454325E0,-1.165191159E-1
6.948937299E0,-4.043808877E-1,-1.376238823E0,4.474456236E-2
6.958650997E0,1.490467340E-1,-8.484668136E-1,3.619270027E-2
6.968365372E0,5.668662786E-1,-3.280249834E-1,-9.086353332E-2
6.978078966E0,7.672241330E-1,2.425063550E-1,-1.568350345E-1
6.987791778E0,7.953231335E-1,8.521319032E-1,-7.375980914E-2
6.997505424E0,6.462764144E-1,1.278503299E0,1.424801201E-1
7.007219799E0,3.848337829E-1,1.136786699E0,3.147390485E-1
7.016933445E0,2.492256761E-1,5.515950918E-1,2.976353168E-1
7.026646205E0,3.640649617E-1,1.264453828E-1,2.194468826E-1
7.036359851E0,5.644228458E-1,6.108472589E-4,1.693574041E-1
7.046074226E0,6.865923405E-1,5.070032179E-2,1.351499557E-1
7.055787872E0,7.073611021E-1,1.850867122E-1,1.156028435E-1
7.065500632E0,6.878139973E-1,2.803788781E-1,1.229330078E-1
7.075214278E0,6.719319820E-1,2.950392365E-1,1.742441803E-1
7.084928705E0,6.621584296E-1,2.803788781E-1,2.597627938E-1
7.094642299E0,6.853706241E-1,2.718270421E-1,3.770454824E-1
7.104355111E0,7.611156702E-1,2.192941606E-1,5.419742465E-1
7.114068757E0,9.284878373E-1,4.275931045E-3,7.130114436E-1
7.123783132E0,1.209477544E0,-3.927747905E-1,7.924215794E-1
7.133496778E0,1.530783176E0,-7.470661998E-1,6.739172339E-1
7.143209539E0,1.775122166E0,-9.193251133E-1,3.831539452E-1
7.152923184E0,1.908286810E0,-9.290986657E-1,1.021642014E-1
7.162637611E0,1.943715930E0,-8.240329623E-1,-7.864658535E-2
7.172351205E0,1.872857690E0,-6.151232123E-1,-1.812689304E-1
7.182063966E0,1.699377060E0,-3.255815804E-1,-2.472404242E-1
7.191777664E0,1.444042921E0,2.260134928E-2,-2.899997234E-1
7.201492039E0,1.154501319E0,3.536805511E-1,-2.851129472E-1
7.211205684E0,8.551861644E-1,5.002838969E-1,-2.643441558E-1
7.220918445E0,5.680879354E-1,4.404208660E-1,-2.631224692E-1
7.230632143E0,3.115321100E-1,2.901524603E-1,-2.570139766E-1
7.240346518E0,1.258345395E-1,9.468132257E-2,-2.374668717E-1
7.250060111E0,3.176405653E-2,-1.582094431E-1,-2.264716178E-1
7.259772924E0,5.741964281E-2,-4.404208660E-1,-2.240282297E-1
7.269486570E0,1.893626451E-1,-7.189671993E-1,-2.154763639E-1
7.279200997E0,3.652866483E-1,-9.193251133E-1,-2.057028115E-1
7.288914591E0,5.179984570E-1,-9.779664874E-1,-2.020377368E-1
7.298627403E0,6.193991303E-1,-8.985562921E-1,-2.020377368E-1
7.308341049E0,6.902574301E-1,-7.348492742E-1,-2.093679011E-1
7.318055476E0,7.623373866E-1,-5.454866290E-1,-2.240282297E-1
7.327769070E0,8.527427912E-1,-3.231382072E-1,-2.289150059E-1
7.337481830E0,9.602518678E-1,-4.825693369E-2,-2.215848416E-1
7.347195528E0,1.046992183E0,2.144073844E-1,-2.228065431E-1
7.356909955E0,1.089751482E0,3.817795515E-1,-2.411319613E-1
7.366623549E0,1.115407109E0,4.721849263E-1,-2.631224692E-1
7.376336309E0,1.145949483E0,5.100574493E-1,-2.924431264E-1
7.386050007E0,1.188708782E0,5.051707029E-1,-3.315373361E-1
7.395764434E0,1.229024649E0,4.795151055E-1,-3.657447994E-1
7.405478028E0,1.240019917E0,4.709632397E-1,-3.767400384E-1
7.415190789E0,1.192373872E0,4.929537475E-1,-3.547495604E-1
7.424904486E0,1.078756213E0,5.442649126E-1,-3.022166789E-1
7.434618914E0,9.223793745E-1,6.004628539E-1,-2.460187376E-1
7.444332507E0,7.684458494E-1,5.992411375E-1,-2.069245130E-1
7.454045268E0,6.389462352E-1,5.344913602E-1,-1.751604527E-1
7.463758966E0,5.070032477E-1,4.856235683E-1,-1.287360638E-1
7.473473393E0,3.469612300E-1,5.063923597E-1,-4.932591692E-2
7.483186986E0,1.588202864E-1,5.503733754E-1,5.207473040E-2
7.492899799E0,-2.565558441E-2,5.369347334E-1,1.412584335E-1
7.502613445E0,-1.710372269E-1,4.159869850E-1,2.035648525E-1
7.512327872E0,-2.541124523E-1,1.924168915E-1,2.487675399E-1
7.522041518E0,-2.724378705E-1,-9.590301663E-2,2.866400778E-1
7.531754278E0,-2.370087355E-1,-3.988832533E-1,2.988570333E-1
7.541467924E0,-1.466033459E-1,-6.639909744E-1,2.609844804E-1
7.551182351E0,-2.932066843E-2,-8.264763355E-1,1.644706279E-1
7.560895997E0,5.497625470E-2,-8.252546191E-1,1.664558798E-2
7.570608757E0,7.696675509E-2,-6.700994372E-1,-1.751604527E-1
7.580322455E0,8.185353130E-2,-4.159869850E-1,-3.926220834E-1
7.590036882E0,8.796200156E-2,-1.264453828E-1,-5.758762360E-1
7.599750476E0,3.176405653E-2,1.765348613E-1,-6.467345357E-1
7.609463289E0,-1.698155403E-1,5.125008225E-1,-5.819846988E-1
7.619176934E0,-5.143333673E-1,8.118160367E-1,-4.830274582E-1
7.628891361E0,-9.077190161E-1,9.767447710E-1,-4.317162931E-1
7.638605007E0,-1.269340634E0,9.962918758E-1,-3.889569938E-1
7.648317768E0,-1.579650998E0,9.034430981E-1,-3.058817685E-1
7.658031466E0,-1.848423839E0,7.556180358E-1,-1.690519750E-1
7.667745893E0,-2.093984365E0,6.187883019E-1,7.635590737E-4
7.677459486E0,-2.311445951E0,5.686988235E-1,1.595838517E-1
7.687172299E0,-2.491187811E0,6.224533319E-1,2.780882120E-1
7.696885945E0,-2.609692097E0,7.580614686E-1,3.526115716E-1
7.706600372E0,-2.652451515E0,9.229902029E-1,4.014793634E-1
7.716314018E0,-2.615800619E0,1.117239594E0,4.381301999E-1
7.726026778E0,-2.524173498E0,1.304158926E0,4.576773047E-1
7.735740476E0,-2.399560690E0,1.442210436E0,4.625640810E-1
7.745454903E0,-2.251583099E0,1.498408318E0,4.747810364E-1
7.755168497E0,-2.097649574E0,1.444653749E0,5.102101564E-1
7.764881309E0,-1.951046109E0,1.282168388E0,5.664080977E-1
7.774595007E0,-1.821546555E0,1.059819937E0,6.189410090E-1
7.784309382E0,-1.699377060E0,8.423583508E-1,6.494833231E-1
7.794023028E0,-1.588202834E0,6.529957056E-1,6.824691296E-1
7.803735841E0,-1.514901161E0,4.660764635E-1,7.325585485E-1
7.813449486E0,-1.492910743E0,2.119639963E-1,7.936432958E-1
7.823163914E0,-1.451373100E0,-3.011476994E-1,8.327375054E-1
7.832877559E0,-1.417165637E0,-6.920899153E-1,8.473978639E-1
7.842590372E0,-1.396396875E0,-7.983773947E-1,7.960866690E-1
7.852304018E0,-1.371962905E0,-6.297835112E-1,6.568135023E-1
7.862018445E0,-1.337755442E0,-9.956810623E-2,4.613423944E-1
7.871732091E0,-1.308434844E0,5.296045542E-1,2.512109280E-1
7.881444851E0,-1.275449038E0,9.364288449E-1,8.994726092E-2
7.891158549E0,-1.229024649E0,1.015838981E0,1.985253533E-3
7.900872976E0,-1.143506050E0,8.460234404E-1,-2.122694254E-2
7.910586622E0,-1.012784719E0,5.344913602E-1,-1.679830020E-3
7.920299382E0,-8.625163436E-1,1.435490996E-1,3.374931216E-2
7.930013080E0,-7.366818190E-1,-2.498365343E-1,8.017370105E-2
7.939727507E0,-6.389462352E-1,-5.381564498E-1,1.119377613E-1
7.949441153E0,-5.607577562E-1,-6.529957056E-1,1.009425074E-1
7.959153914E0,-4.801259339E-1,-6.371136904E-1,4.107947648E-2
7.968867611E0,-3.848337829E-1,-5.858024955E-1,-4.443913698E-2
7.978582039E0,-2.614426315E-1,-5.344913602E-1,-1.287360638E-1
7.988295684E0,-9.773556143E-2,-4.966188073E-1,-1.934858710E-1
7.998008497E0,1.111742035E-1,-4.917320311E-1,-2.203631550E-1
8.007722143E0,3.665083647E-1,-5.234960914E-1,-2.142546773E-1
8.017436570E0,6.548282504E-1,-5.784723759E-1,-1.947075576E-1
8.027150216E0,9.431481957E-1,-5.992411375E-1,-1.849340051E-1
8.036863028E0,1.215586066E0,-5.515950918E-1,-2.069245130E-1
8.046576674E0,1.477028728E0,-4.587462842E-1,-2.606790662E-1
8.056291153E0,1.703042150E0,-3.353551328E-1,-3.474193811E-1
8.066004747E0,1.860640764E0,-1.728697717E-1,-4.475983381E-1
8.075717559E0,1.931499004E0,3.481829539E-2,-5.331169367E-1
8.085431257E0,1.898513317E0,2.877090573E-1,-5.709894896E-1
8.095145684E0,1.758018374E0,5.210527182E-1,-5.380037427E-1
8.104859330E0,1.533226609E0,6.114581227E-1,-4.439332485E-1
8.114572091E0,1.258345366E0,5.271611810E-1,-3.278722763E-1
8.124285789E0,9.663603902E-1,3.854446113E-1,-2.582356930E-1
8.134000216E0,6.780404449E-1,3.280249834E-1,-2.619007528E-1
8.143713861E0,4.080459774E-1,3.952181637E-1,-2.851129472E-1
8.153426674E0,1.685938388E-1,5.540384650E-1,-2.985515893E-1
8.163140372E0,-6.352811307E-2,5.638120174E-1,-2.790044844E-1
8.172854799E0,-2.883199155E-1,2.620534599E-1,-2.289150059E-1
8.182568393E0,-4.679090083E-1,-2.620534599E-1,-1.824906170E-1
8.192281205E0,-5.619794726E-1,-8.191461563E-1,-1.690519750E-1
8.201994903E0,-5.436540842E-1,-1.089140654E0,-1.152974218E-1
8.211709330E0,-3.359659910E-1,-1.028055906E0,3.130592033E-2
8.221422976E0,-0.000000000E0,-7.556180358E-1,1.412584335E-1
8.231135789E0,2.614426315E-1,-3.219164908E-1,8.139539510E-2
8.240849486E0,3.848337829E-1,1.740914732E-1,-6.887302548E-2
8.250563914E0,4.446968138E-1,5.980194807E-1,-9.575030953E-2
8.260277559E0,4.434750974E-1,9.449806809E-1,7.040014863E-2
8.269990320E0,3.445178568E-1,1.094027400E0,3.196258247E-1
8.279704018E0,3.481829464E-1,1.030499339E0,4.136963189E-1
8.289418445E0,6.132906675E-1,1.090362310E0,3.574983478E-1
8.299132091E0,1.000567794E0,1.326149344E0,3.110739589E-1
8.308844903E0,1.275449038E0,1.531394124E0,2.951919436E-1
8.318558601E0,1.375627995E0,1.680440784E0,2.890834510E-1
8.328273028E0,1.340198874E0,1.779398084E0,2.866400778E-1
8.337986674E0,1.227802992E0,1.802610278E0,3.049654961E-1
8.347699486E0,1.089751482E0,1.746412277E0,3.550549746E-1
8.357413184E0,9.749122262E-1,1.590035439E0,4.136963189E-1
8.367127611E0,9.040539265E-1,1.324927688E0,4.845545888E-1
8.376841257E0,8.893936276E-1,9.339854717E-1,5.810684562E-1
8.386554018E0,9.455915689E-1,3.854446113E-1,6.555918455E-1
8.396267716E0,1.066539288E0,-2.412846684E-1,6.409314871E-1
8.405982143E0,1.233911514E0,-8.276980519E-1,4.943281412E-1
8.415695789E0,1.428160906E0,-1.287055135E0,2.548760176E-1
8.425408601E0,1.582094431E0,-1.464200854E0,1.420219894E-2
8.435122299E0,1.601641536E0,-1.172215939E0,-1.898207814E-1
8.444836726E0,1.462368369E0,-5.344913602E-1,-3.449759781E-1
8.454550372E0,1.249793530E0,1.386623234E-1,-4.268295169E-1
8.464263184E0,1.043327093E0,6.322268844E-1,-4.182776511E-1
8.473976882E0,8.747332692E-1,8.826742768E-1,-3.327590525E-1
8.483691309E0,7.415685654E-1,8.900044560E-1,-2.154763639E-1
8.493404955E0,6.365028620E-1,6.615476012E-1,-1.275143623E-1
8.503117768E0,5.619794726E-1,2.730487287E-1,-7.253811508E-2
8.512831466E0,5.363239050E-1,-1.716480851E-1,-3.588727489E-2
8.522545893E0,5.509842038E-1,-5.601469278E-1,-1.511846948E-2
8.532259539E0,5.766398311E-1,-8.093726039E-1,-1.389677543E-2
8.541972351E0,5.900784731E-1,-8.863393664E-1,-2.244863659E-2
8.551686049E0,5.864133835E-1,-7.886037827E-1,-2.855710872E-2
8.561400476E0,5.766398311E-1,-5.540384650E-1,-3.344388679E-2
8.571114122E0,5.680879354E-1,-2.559449971E-1,-4.810422286E-2
8.580826934E0,5.595360994E-1,2.260134928E-2,-7.131642103E-2
8.590540684E0,5.607577562E-1,2.400629669E-1,-8.842013776E-2
8.600255111E0,5.827482939E-1,3.830012381E-1,-1.043021679E-1
8.609968757E0,6.340594292E-1,4.501944184E-1,-1.250709742E-1
8.619681570E0,7.171346545E-1,4.465293586E-1,-1.507265568E-1
8.629395268E0,8.234221339E-1,3.903313875E-1,-1.788255423E-1
8.639109695E0,9.407047629E-1,3.182514310E-1,-2.044811249E-1
8.648823341E0,1.045770526E0,2.669402659E-1,-2.289150059E-1
8.658536153E0,1.119072199E0,2.620534599E-1,-2.496838123E-1
8.668249851E0,1.152057886E0,3.072561622E-1,-2.619007528E-1
8.677964278E0,1.139840961E0,4.025483429E-1,-2.655658424E-1
8.687677924E0,1.071426034E0,5.454866290E-1,-2.545706034E-1
8.697390736E0,9.480349422E-1,7.006418109E-1,-2.264716178E-1
8.707104434E0,7.965448499E-1,8.032641411E-1,-1.861557066E-1
8.716818914E0,6.523848772E-1,8.203678727E-1,-1.360662282E-1
8.726532559E0,5.289937258E-1,7.702783942E-1,-7.986827940E-2
8.736245372E0,4.190412164E-1,6.810947061E-1,-2.122694254E-2
8.745959070E0,3.090887070E-1,5.613686442E-1,1.908897609E-2
8.755673497E0,2.052446753E-1,4.379774928E-1,3.985778242E-2
8.765387143E0,1.075091213E-1,3.536805511E-1,6.062658876E-2
8.775099955E0,1.343864016E-2,3.219164908E-1,8.750387281E-2
8.784813653E0,-8.918370306E-2,3.170297146E-1,1.119377613E-1
8.794528080E0,-1.820324808E-1,2.913741469E-1,1.351499557E-1
8.804241726E0,-2.455606014E-1,2.229592502E-1,1.595838517E-1
8.813954539E0,-2.638860047E-1,1.130067408E-1,1.705790907E-1
8.823668289E0,-2.284568697E-1,-3.603998944E-2,1.424801201E-1
8.833382716E0,-1.380514801E-1,-2.095206082E-1,5.818320066E-2
8.843096361E0,-2.443389036E-2,-3.463504016E-1,-6.765133142E-2
8.852809174E0,9.651386738E-2,-3.817795515E-1,-2.338017821E-1
8.862522872E0,2.516690791E-1,-2.913741469E-1,-4.304946065E-1
8.872237299E0,4.385883212E-1,-8.857285231E-2,-6.357392669E-1
8.881950945E0,5.375455618E-1,2.058555335E-1,-8.177717924E-1
8.891663757E0,4.214846194E-1,5.748072863E-1,-8.996253014E-1
8.901377507E0,5.497625470E-2,9.852966070E-1,-8.189934492E-1
8.911091934E0,-4.850127101E-1,1.333479524E0,-6.100836992E-1
8.920805580E0,-1.066539288E0,1.525285602E0,-3.608580232E-1
8.930518393E0,-1.561325550E0,1.521620512E0,-1.556133330E-1
8.940232091E0,-1.937607527E0,1.409224629E0,1.175880991E-2
8.949946518E0,-2.230814219E0,1.251626015E0,1.669140160E-1
8.959660216E0,-2.438654900E0,1.076923728E0,3.098522723E-1
8.969373028E0,-2.562046051E0,9.523108602E-1,4.222481549E-1
8.979086726E0,-2.607248783E0,9.144383669E-1,4.918847680E-1
8.988801153E0,-2.576706409E0,9.547542930E-1,5.273138881E-1
8.998514799E0,-2.488744497E0,1.052489877E0,5.407525301E-1
9.008227611E0,-2.364131689E0,1.196649790E0,5.260922313E-1
9.017941309E0,-2.213710546E0,1.353026628E0,4.821111858E-1
9.027655789E0,-2.045116663E0,1.461757541E0,4.356867969E-1
9.037369434E0,-1.876522779E0,1.477639556E0,3.990359604E-1
9.047082247E0,-1.723810911E0,1.388455868E0,3.746020794E-1
9.056795945E0,-1.601641536E0,1.230857253E0,3.794888556E-1
9.066510372E0,-1.501462579E0,1.041494608E0,4.234698713E-1
9.076224070E0,-1.420830727E0,8.362498879E-1,4.833329022E-1
9.085936882E0,-1.382958174E0,5.784723759E-1,5.529694557E-1
9.095650580E0,-1.384179831E0,2.400629669E-1,6.445965767E-1
9.105365007E0,-1.415943980E0,-9.956810623E-2,7.435538173E-1
9.115078653E0,-1.483137131E0,-3.610107303E-1,8.131904006E-1
9.124791466E0,-1.549108624E0,-4.734066129E-1,8.156337738E-1
9.134505164E0,-1.552773714E0,-3.561239541E-1,7.814263701E-1
9.144219643E0,-1.433047652E0,-1.081199646E-1,6.959077120E-1
9.153933289E0,-1.246128440E0,3.084778786E-1,5.639647245E-1
9.163646101E0,-1.053100705E0,8.008207679E-1,4.369085133E-1
9.173359799E0,-8.368607163E-1,1.228413820E0,3.550549746E-1
9.183074226E0,-5.998520255E-1,1.482526302E0,3.122956753E-1
9.192787872E0,-3.579564989E-1,1.486191392E0,2.866400778E-1
9.202500736E0,-1.294996142E-1,1.221083641E0,2.670929730E-1
9.212214434E0,3.909422457E-2,8.191461563E-1,2.609844804E-1
9.221928861E0,1.160609797E-1,4.245388508E-1,2.793098986E-1
9.231642507E0,1.172826737E-1,1.154501289E-1,2.951919436E-1
9.241355320E0,7.330167294E-2,-8.368607610E-2,2.780882120E-1
9.251069018E0,2.809897438E-2,-1.863084137E-1,2.499892414E-1
9.260783497E0,2.199050039E-2,-2.046338320E-1,2.292204350E-1
9.270497143E0,7.085828483E-2,-1.655396074E-1,2.279987335E-1
9.280209955E0,1.820324808E-1,-1.301104724E-1,2.438807636E-1
9.289923653E0,3.457395434E-1,-1.545443535E-1,2.597627938E-1
9.299638080E0,5.485408306E-1,-2.290677279E-1,2.670929730E-1
9.309351726E0,7.708892226E-1,-2.901524603E-1,2.622061968E-1
9.319064539E0,9.969027042E-1,-2.889307439E-1,2.438807636E-1
9.328778236E0,1.203369141E0,-1.997470558E-1,1.974563748E-1
9.338492716E0,1.371962905E0,-2.137965336E-2,1.156028435E-1
9.348206361E0,1.490467310E0,2.376195788E-1,-1.679830020E-3
9.357919174E0,1.558882236E0,5.528167486E-1,-1.385096163E-1
9.367632872E0,1.578429341E0,8.924478292E-1,-2.643441558E-1
9.377347299E0,1.547886968E0,1.256512761E0,-3.413109183E-1
9.387060997E0,1.488023877E0,1.583926916E0,-3.278722763E-1
9.396773809E0,1.453816533E0,1.713426590E0,-2.276933193E-1
9.406487507E0,1.453816533E0,1.568044901E0,-1.275143623E-1
9.416201934E0,1.441599488E0,1.241852522E0,-1.519482583E-1
9.425915580E0,1.347529054E0,8.851176500E-1,-2.997733057E-1
9.435628393E0,1.136175871E0,6.297835112E-1,-4.500417113E-1
9.445342091E0,8.625163436E-1,5.613686442E-1,-5.123481154E-1
9.455056518E0,6.071822047E-1,6.517740488E-1,-4.854708612E-1
9.464770216E0,3.921639323E-1,7.446228266E-1,-4.317162931E-1
9.474483028E0,1.747023165E-1,6.957550049E-1,-3.755183518E-1
9.484196726E0,-8.185353130E-2,4.416425824E-1,-2.985515893E-1
9.493911153E0,-3.432961702E-1,-3.848337755E-2,-2.240282297E-1
9.503624799E0,-5.204418898E-1,-5.919110179E-1,-1.531699449E-1
9.513337611E0,-5.131117105E-1,-1.046381354E0,-3.222219273E-2
9.523051309E0,-2.626643181E-1,-1.371352077E0,1.082726792E-1
9.532765736E0,9.529217333E-2,-1.458092451E0,1.583621502E-1
9.542479434E0,3.127537966E-1,-1.152668834E0,2.886253223E-2
9.552192195E0,3.115321100E-1,-4.220954478E-1,-1.605001241E-1
9.561905945E0,2.199050188E-1,5.418215394E-1,-2.350234836E-1
9.571620372E0,1.575985998E-1,1.277281642E0,-1.653869003E-1
9.581334018E0,1.270562261E-1,1.335922956E0,-3.833066672E-2
9.591046830E0,1.612636745E-1,8.191461563E-1,4.474456236E-2
9.600760528E0,3.420744538E-1,3.622324169E-1,7.162184268E-2
9.610474955E0,6.022953987E-1,3.304683566E-1,6.306997687E-2
9.620188601E0,8.026533127E-1,5.650337338E-1,1.908897609E-2
9.629901414E0,8.942803741E-1,9.046648145E-1,-2.855710872E-2
9.639615111E0,9.113841057E-1,1.240630746E0,-4.077405483E-2
9.649329591E0,9.089407325E-1,1.482526302E0,-1.267508045E-2
9.659043236E0,9.309312105E-1,1.579040170E0,5.085303262E-2
9.668756049E0,9.969027042E-1,1.513068676E0,1.608055383E-1
9.678469747E0,1.097081661E0,1.298050404E0,3.208475113E-1
9.688184174E0,1.185043693E0,1.028055906E0,5.065450668E-1
9.697897820E0,1.225359559E0,7.763868570E-1,6.323796511E-1
9.707610632E0,1.220472813E0,5.577035546E-1,6.140542030E-1
9.717324330E0,1.197260618E0,3.927747905E-1,4.650074840E-1
9.727038757E0,1.207034230E0,2.131856978E-1,2.903051674E-1
9.736752403E0,1.279114127E0,-3.603998944E-2,1.656923145E-1
9.746465216E0,1.386623263E0,-3.035911024E-1,9.361234307E-2
9.756178914E0,1.447708011E0,-4.758500159E-1,2.153236605E-2
9.765893341E0,1.387844920E0,-4.294256270E-1,-1.030804738E-1
9.775606986E0,1.211920977E0,-1.154501289E-1,-2.435753495E-1
9.785319799E0,9.907942414E-1,3.695625961E-1,-3.352024257E-1
9.795033497E0,7.733326554E-1,8.509102464E-1,-3.437542915E-1
9.804747924E0,5.949652195E-1,1.203979969E0,-2.863346636E-1
9.814461622E0,4.446968138E-1,1.365243673E0,-2.044811249E-1
9.824174382E0,3.237490356E-1,1.357913494E0,-1.287360638E-1
9.833888080E0,2.467822880E-1,1.240630746E0,-6.765133142E-2
9.843602559E0,2.321219593E-1,1.054933190E0,-7.788302377E-3
9.853316205E0,2.712161839E-1,8.472451568E-1,6.429167092E-2
9.863029018E0,3.310792148E-1,6.493306160E-1,1.375933439E-1
9.872742664E0,3.775036037E-1,4.856235683E-1,1.852394342E-1
9.882457143E0,3.982724249E-1,3.683409095E-1,1.889045089E-1
9.892170789E0,4.190412164E-1,2.950392365E-1,1.595838517E-1
9.901883601E0,4.752391577E-1,2.840439677E-1,1.180462316E-1
9.911597247E0,5.888567567E-1,3.536805511E-1,7.528692484E-2
9.921311726E0,7.598940134E-1,4.856235683E-1,2.886253223E-2
9.931025372E0,9.541434050E-1,6.542174220E-1,-2.733541466E-2
9.940738132E0,1.134954214E0,8.655705452E-1,-9.452861547E-2
9.950451830E0,1.266897202E0,1.113574505E0,-1.714953631E-1
9.960166309E0,1.336533785E0,1.364021897E0,-2.496838123E-1
9.969879955E0,1.362189412E0,1.569266558E0,-3.119902313E-1
9.979592716E0,1.370741248E0,1.701209664E0,-3.571929336E-1
9.989306414E0,1.371962905E0,1.761072636E0,-3.840702176E-1
9.999020893E0,1.347529054E0,1.772067904E0,-3.877353072E-1
1.000873454E1,1.279114127E0,1.748855710E0,-3.571929336E-1
1.001844730E1,1.142284393E0,1.687770963E0,-2.899997234E-1
1.002816100E1,9.394831061E-1,1.597365618E0,-1.898207814E-1
1.003787542E1,7.024743557E-1,1.467865944E0,-6.765133142E-2
1.004758907E1,4.740174711E-1,1.279724956E0,5.940489471E-2
1.005730188E1,2.944283783E-1,1.018282413E0,1.632489264E-1
1.006701558E1,1.942494214E-1,6.908682585E-1,2.206685692E-1
1.007673001E1,1.771457046E-1,3.658975065E-1,2.463241518E-1
1.008644365E1,1.942494214E-1,1.643179059E-1,2.683146596E-1
1.009615647E1,1.869192570E-1,1.606528312E-1,2.976353168E-1
1.010587016E1,1.392731816E-1,2.925958335E-1,3.122956753E-1
1.011558459E1,8.063183725E-2,4.208737612E-1,2.793098986E-1
1.012529824E1,5.375456065E-2,4.587462842E-1,2.072299272E-1
1.013501105E1,6.841489673E-2,4.123218954E-1,1.290414780E-1
1.014472470E1,1.136175916E-1,3.035911024E-1,5.696150661E-2
1.015443912E1,1.918060333E-1,1.655396074E-1,-1.756185852E-2
1.016415277E1,3.103103936E-1,5.925218388E-2,-1.140757278E-1
1.017386558E1,4.715740979E-1,2.626643144E-2,-2.252499312E-1
1.018357928E1,6.731536984E-1,9.468132257E-2,-3.168770075E-1
1.019329370E1,8.686248064E-1,2.889307439E-1,-3.742966652E-1
1.020300735E1,9.712471366E-1,5.906893015E-1,-4.194993675E-1
1.021272016E1,9.407047629E-1,9.547542930E-1,-4.830274582E-1
1.022243381E1,8.405258060E-1,1.331036210E0,-5.722111464E-1
1.023214829E1,7.330167294E-1,1.645011663E0,-6.540647149E-1
1.024186188E1,5.595360994E-1,1.841704488E0,-6.626165509E-1
1.025157470E1,2.260134816E-1,1.938218355E0,-5.648810267E-1
1.026128839E1,-2.577775419E-1,1.934553266E0,-3.987305462E-1
1.027100282E1,-7.647807598E-1,1.784284830E0,-2.069245130E-1
1.028071647E1,-1.187487125E0,1.489856482E0,-4.123218823E-3
1.029042928E1,-1.496575832E0,1.116017938E0,2.023431510E-1
1.030014292E1,-1.717702508E0,7.776085734E-1,3.978142738E-1
1.030985735E1,-1.903400064E0,5.980194807E-1,5.431959033E-1
1.031957100E1,-2.104979753E0,6.224533319E-1,6.397097707E-1
1.032928381E1,-2.319997787E0,8.252546191E-1,7.032378912E-1
1.033899751E1,-2.502183199E0,1.122126460E0,7.252284288E-1
1.034871193E1,-2.606027126E0,1.442210436E0,7.044596076E-1
1.035842558E1,-2.624352455E0,1.754964232E0,6.678087711E-1
1.036813834E1,-2.571819782E0,2.039618969E0,6.226060390E-1
1.037785204E1,-2.454536915E0,2.276627779E0,5.737382770E-1
1.038756647E1,-2.285790443E0,2.409792423E0,5.199837089E-1
1.039728011E1,-2.104979753E0,2.389023542E0,4.637857676E-1
1.040699292E1,-1.940050840E0,2.203325987E0,4.332434237E-1
1.041670657E1,-1.781230569E0,1.921114683E0,4.479037523E-1
1.042642100E1,-1.627297044E0,1.604695797E0,4.845545888E-1
1.043613464E1,-1.484358788E0,1.261399627E0,5.370874405E-1
1.044584746E1,-1.364632726E0,8.838959932E-1,6.238277555E-1
1.045556115E1,-1.292552829E0,5.149442554E-1,7.240067124E-1
1.046527558E1,-1.294996142E0,2.327328026E-1,7.985301018E-1
1.047498917E1,-1.389066696E0,1.117850468E-1,8.596147895E-1
1.048470199E1,-1.481915474E0,7.024743408E-2,9.084826112E-1
1.049441568E1,-1.480693698E0,1.337755471E-1,9.243646264E-1
1.050413011E1,-1.382958174E0,3.597890437E-1,8.571714163E-1
1.051384371E1,-1.263232112E0,6.920899153E-1,7.301151752E-1
1.052355652E1,-1.153279662E0,9.743013978E-1,5.945070982E-1
1.053327022E1,-1.054322362E0,9.559759498E-1,4.442386627E-1
1.054298464E1,-9.736905098E-1,6.627692580E-1,3.196258247E-1
1.055269824E1,-9.003888369E-1,3.158080280E-1,2.719797492E-1
1.056241105E1,-8.197570443E-1,1.093416587E-1,2.890834510E-1
1.057212475E1,-7.427902818E-1,1.020114943E-1,3.538332880E-1
1.058183917E1,-6.584933400E-1,2.547233105E-1,4.149180055E-1
1.059155277E1,-5.668662786E-1,4.037700295E-1,4.210264683E-1
1.060126558E1,-4.605788291E-1,4.257605374E-1,3.684936166E-1
1.061097928E1,-3.213056624E-1,3.402419090E-1,2.793098986E-1
1.062069370E1,-1.429382563E-1,2.156290859E-1,1.937913001E-1
1.063040730E1,7.818844914E-2,8.735115826E-2,1.363716573E-1
1.064012011E1,3.298575282E-1,-3.115320951E-2,1.119377613E-1
1.064983381E1,5.827482939E-1,-1.411057115E-1,1.094943732E-1
1.065954818E1,8.148702383E-1,-2.620534599E-1,1.094943732E-1
1.066926183E1,1.012784719E0,-3.878880143E-1,8.750387281E-2
1.067897464E1,1.171604991E0,-4.587462842E-1,3.497100621E-2
1.068868829E1,1.277892470E0,-4.196520746E-1,-4.199574888E-2
1.069840272E1,1.341420531E0,-2.559449971E-1,-1.299577504E-1
1.070811636E1,1.374406338E0,-1.282779220E-2,-2.118112892E-1
1.071782912E1,1.379293084E0,2.559449971E-1,-2.631224692E-1
1.072754282E1,1.351194143E0,5.112791657E-1,-2.753393948E-1
1.073725725E1,1.292552829E0,7.311841846E-1,-2.447970361E-1
1.074697089E1,1.216807723E0,9.242119193E-1,-1.824906170E-1
1.075668365E1,1.152057886E0,1.068371892E0,-1.262926757E-1
1.076639735E1,1.117850542E0,1.076923728E0,-1.030804738E-1
1.077611178E1,1.082421303E0,8.900044560E-1,-1.201841980E-1
1.078582537E1,9.773555994E-1,5.711421967E-1,-1.653869003E-1
1.079553818E1,7.928797603E-1,2.840439677E-1,-2.228065431E-1
1.080525183E1,5.644228458E-1,1.533226669E-1,-2.545706034E-1
1.081496626E1,3.432961702E-1,1.655396074E-1,-2.435753495E-1
1.082467990E1,1.698155403E-1,1.655396074E-1,-2.215848416E-1
1.083439266E1,4.886778072E-2,1.771457121E-2,-2.020377368E-1
1.084410636E1,-2.809897438E-2,-2.693836391E-1,-1.776038408E-1
1.085382079E1,-7.696675509E-2,-5.674771070E-1,-1.055238619E-1
1.086353438E1,-7.452336699E-2,-8.215895891E-1,1.786728203E-2
1.087324720E1,1.588202827E-2,-1.030499339E0,1.131594554E-1
1.088296084E1,9.040539712E-2,-1.054933190E0,8.139539510E-2
1.089267527E1,5.497625470E-2,-7.189671993E-1,-1.165191159E-1
1.090238891E1,-3.665083647E-2,-9.345962852E-2,-3.547495604E-1
1.091210167E1,-3.420744836E-2,4.123218954E-1,-4.121691883E-1
1.092181537E1,8.551861346E-2,4.709632397E-1,-2.570139766E-1
1.093152980E1,2.345653474E-1,1.911951900E-1,-1.023169141E-2
1.094124339E1,4.263713956E-1,6.536065787E-2,1.632489264E-1
1.095095620E1,7.146912813E-1,3.939964771E-1,2.328855246E-1
1.096066985E1,1.034775257E0,9.181034565E-1,2.463241518E-1
1.097038428E1,1.265675545E0,1.324927688E0,2.402156889E-1
1.098009792E1,1.374406338E0,1.586370349E0,2.328855246E-1
1.098981068E1,1.382958174E0,1.747634053E0,2.328855246E-1
1.099952438E1,1.324316859E0,1.814827204E0,2.499892414E-1
1.100923876E1,1.251015186E0,1.752520800E0,2.841966748E-1
1.101895240E1,1.215586066E0,1.482526302E0,3.416163325E-1
1.102866516E1,1.243685007E0,9.987352490E-1,4.295783341E-1
1.103837886E1,1.302326322E0,4.721849263E-1,5.138752460E-1
1.104809329E1,1.294996142E0,2.626643144E-2,5.322006941E-1
1.105780688E1,1.194817185E0,-3.121429384E-1,4.454603493E-1
1.106751970E1,1.076312900E0,-5.454866290E-1,3.061871827E-1
1.107723334E1,9.907942414E-1,-7.189671993E-1,1.815743446E-1
1.108694777E1,9.553651214E-1,-8.252546191E-1,8.872556686E-2
1.109666136E1,9.468132257E-1,-8.008207679E-1,1.420219894E-2
1.110637417E1,9.101623893E-1,-6.420004964E-1,-7.131642103E-2
1.111608782E1,8.417475224E-1,-4.001049399E-1,-1.910424829E-1
1.112580225E1,7.574505806E-1,-1.203369126E-1,-2.936648130E-1
1.113551584E1,6.743753552E-1,1.227803007E-1,-3.400892019E-1
1.114522865E1,6.084038615E-1,2.901524603E-1,-3.278722763E-1
1.115494230E1,5.778614879E-1,3.915531039E-1,-2.838912606E-1
1.116465673E1,5.998520255E-1,4.135435820E-1,-2.435753495E-1
1.117437037E1,6.438329816E-1,3.035911024E-1,-2.179197669E-1
1.118408313E1,6.878139973E-1,1.166718230E-1,-1.824906170E-1
1.119379678E1,7.085828185E-1,-4.092676565E-2,-1.360662282E-1
1.120351120E1,6.914790869E-1,-9.345962852E-2,-7.986827940E-2
1.121322485E1,6.462764144E-1,-6.536065787E-2,-2.489202656E-2
1.122293761E1,5.900784731E-1,-5.497625098E-3,1.542389300E-2
1.123265126E1,5.473191738E-1,3.359659761E-2,4.352286831E-2
1.124236568E1,5.289937258E-1,3.603998944E-2,6.184828654E-2
1.125207928E1,5.363239050E-1,1.282779220E-2,6.184828654E-2
1.126179209E1,5.741963983E-1,-2.015795931E-2,4.107947648E-2
1.127150574E1,6.365028620E-1,-4.947862774E-2,3.206948051E-3
1.128122016E1,7.183563709E-1,-6.169557199E-2,-4.321744293E-2
1.129093376E1,8.099834919E-1,-4.703523964E-2,-9.452861547E-2
1.130064657E1,8.955020905E-1,1.282779220E-2,-1.458397806E-1
1.131036022E1,9.700254202E-1,1.130067408E-1,-1.885990947E-1
1.132007464E1,1.029888511E0,2.351761907E-1,-2.289150059E-1
1.132978824E1,1.084864736E0,3.573456407E-1,-2.728960216E-1
1.133950100E1,1.152057886E0,4.819584787E-1,-3.205420971E-1
1.134921470E1,1.231468081E0,6.139014959E-1,-3.730749488E-1
1.135892907E1,1.313321590E0,7.434011102E-1,-4.256078303E-1
1.136864272E1,1.374406338E0,8.692356348E-1,-4.695888162E-1
1.137835548E1,1.380514860E0,1.003622055E0,-4.879142344E-1
1.138806917E1,1.298661232E0,1.155112147E0,-4.610369802E-1
1.139778355E1,1.122737288E0,1.302937150E0,-3.901786804E-1
1.140749720E1,8.845068216E-1,1.392120957E0,-2.936648130E-1
1.141720996E1,6.303943992E-1,1.367686987E0,-1.959292591E-1
1.142692360E1,3.933856487E-1,1.238187432E0,-1.018587798E-1
1.143663803E1,1.844758689E-1,1.067150116E0,-1.023169141E-2
1.144635162E1,-1.221694518E-3,9.107732773E-1,7.773031294E-2
1.145606438E1,-1.600419879E-1,7.922688723E-1,1.510319859E-1
1.146577808E1,-2.822114229E-1,7.043069005E-1,2.072299272E-1
1.147549251E1,-3.616215885E-1,6.212316751E-1,2.573194206E-1
1.148520610E1,-4.141544402E-1,5.137225389E-1,3.025220931E-1
1.149491886E1,-4.508052766E-1,3.830012381E-1,3.342861533E-1
1.150463256E1,-4.654656053E-1,2.510582209E-1,3.440597057E-1
1.151434693E1,-4.312581718E-1,1.252236813E-1,3.269560039E-1
1.152406053E1,-3.249707520E-1,6.719320081E-3,2.573194206E-1
1.153377334E1,-1.575985998E-1,-8.246438205E-2,1.058292910E-1
1.154348699E1,3.787253052E-2,-8.735115826E-2,-1.006370857E-1
1.155320141E1,2.736595869E-1,6.719320081E-3,-3.242071867E-1
1.156291501E1,5.693096519E-1,1.704263836E-1,-5.209000111E-1
1.157262777E1,8.918370008E-1,3.365768492E-1,-6.626165509E-1
1.158234147E1,1.161831498E0,4.697415531E-1,-7.566870451E-1
1.159205584E1,1.287665963E0,6.248967648E-1,-7.823426127E-1
1.160176943E1,1.165496588E0,8.875610828E-1,-7.029324770E-1
1.161148225E1,7.122479081E-1,1.249182701E0,-5.270084739E-1
1.162119589E1,-4.886778072E-2,1.568044901E0,-2.790044844E-1
1.163091027E1,-9.358180165E-1,1.688992620E0,-5.344913341E-3
1.164062391E1,-1.703042150E0,1.618134379E0,2.206685692E-1
1.165033667E1,-2.214932203E0,1.498408318E0,3.599417508E-1
1.166005032E1,-2.521730185E0,1.440988660E0,4.552339315E-1
1.166976475E1,-2.684215546E0,1.488634825E0,5.480827093E-1
1.167947834E1,-2.726974964E0,1.583926916E0,6.152759194E-1
1.168919110E1,-2.703762770E0,1.629129648E0,6.372663975E-1
1.169890480E1,-2.654894829E0,1.592478752E0,6.274928451E-1
1.170861917E1,-2.579149723E0,1.477639556E0,6.030589342E-1
1.171833277E1,-2.485079288E0,1.340809703E0,5.896202922E-1
1.172804558E1,-2.354357958E0,1.247960925E0,5.761816502E-1
1.173775923E1,-2.177059650E0,1.229635477E0,5.749599934E-1
1.174747360E1,-1.985253572E0,1.265064716E0,5.798467398E-1
1.175718725E1,-1.810551286E0,1.315154195E0,5.908420086E-1
1.176690001E1,-1.646844268E0,1.400672793E0,6.079457402E-1
1.177661365E1,-1.488023877E0,1.531394124E0,6.397097707E-1
1.178632808E1,-1.351194143E0,1.590035439E0,6.824691296E-1
1.179604167E1,-1.222916245E0,1.476417780E0,7.178982496E-1
1.180575443E1,-1.127624035E0,1.276059866E0,7.337802649E-1
1.181546808E1,-1.097081661E0,1.065928459E0,7.386670709E-1
1.182518251E1,-1.093416572E0,8.924478292E-1,7.435538173E-1
1.183489610E1,-1.048213840E0,7.495095730E-1,7.313368917E-1
1.184460886E1,-9.602518678E-1,6.603258848E-1,6.690304875E-1
1.185432251E1,-8.698465228E-1,5.662553906E-1,5.578562617E-1
1.186403693E1,-7.782194018E-1,2.974826097E-1,4.271349311E-1
1.187375053E1,-7.281299233E-1,7.146912813E-2,2.854183912E-1
1.188346329E1,-7.427902818E-1,1.649287529E-2,1.913478971E-1
1.189317693E1,-8.063184023E-1,8.002099395E-2,1.705790907E-1
1.190289136E1,-8.722898960E-1,2.241809368E-1,2.145601064E-1
1.191260496E1,-9.003888369E-1,3.830012381E-1,2.878617644E-1
1.192231772E1,-8.796200752E-1,4.941754341E-1,3.501681983E-1
1.193203136E1,-8.124268651E-1,5.002838969E-1,3.672719002E-1
1.194174579E1,-7.036960125E-1,3.927747905E-1,3.257342875E-1
1.195145938E1,-5.558710098E-1,2.241809368E-1,2.377723008E-1
1.196117214E1,-3.591781855E-1,7.269082218E-2,1.363716573E-1
1.197088579E1,-1.062874198E-1,-2.260134928E-2,6.551336497E-2
1.198060022E1,1.979145110E-1,-5.192201585E-2,3.741439432E-2
1.199031381E1,5.399889946E-1,-2.748812735E-2,3.863608837E-2
1.200002657E1,8.845068216E-1,1.160609815E-2,3.619270027E-2
1.200974022E1,1.199704051E0,4.947862774E-2,1.298050396E-2
1.201945459E1,1.459924936E0,7.879929990E-2,-2.977880463E-2
1.202916818E1,1.666391373E0,8.735115826E-2,-9.452861547E-2
1.203888094E1,1.845980406E0,8.735115826E-2,-1.812689304E-1
1.204859464E1,2.001135588E0,1.276670843E-1,-2.838912606E-1
1.205830902E1,2.103757858E0,2.644968629E-1,-3.865135908E-1
1.206802261E1,2.118418217E0,4.734066129E-1,-4.537068009E-1
1.207773537E1,2.019461155E0,6.713211536E-1,-4.634803534E-1
1.208744907E1,1.793447495E0,8.264763355E-1,-4.036173224E-1
1.209716345E1,1.458703279E0,9.388722181E-1,-2.973299026E-1
1.210687704E1,1.081199646E0,1.056154966E0,-1.910424829E-1
1.211658980E1,7.537854910E-1,1.225970507E0,-1.348445266E-1
1.212630345E1,5.228852630E-1,1.382347345E0,-1.470614821E-1
1.213601787E1,3.946073353E-1,1.444653749E0,-2.105895877E-1
1.214573147E1,3.652866483E-1,1.360356808E0,-2.594573796E-1
1.215544423E1,3.836120665E-1,1.072036982E0,-2.411319613E-1
1.216515787E1,3.860554695E-1,5.796940327E-1,-1.898207814E-1
1.217487225E1,3.151971996E-1,-1.038440317E-2,-1.507265568E-1
1.218458584E1,1.258345395E-1,-5.943543911E-1,-1.201841980E-1
1.219429860E1,-1.612636745E-1,-1.083032131E0,-8.353336155E-2
1.220401225E1,-4.727957845E-1,-1.339588046E0,5.650337320E-3
1.221372667E1,-6.927008033E-1,-1.349361539E0,1.669140160E-1
1.222344027E1,-6.682668924E-1,-1.267508030E0,2.915268540E-1
1.223315303E1,-4.092676640E-1,-1.153890491E0,2.463241518E-1
1.224286667E1,-9.773556143E-2,-8.985562921E-1,-2.901524538E-3
1.225258105E1,1.160609797E-1,-3.744493723E-1,-2.851129472E-1
1.226229464E1,2.235700935E-1,4.465293586E-1,-4.194993675E-1
1.227200740E1,3.213056624E-1,1.235743999E0,-3.352024257E-1
1.228172110E1,4.019374847E-1,1.425106645E0,-6.154286116E-2
1.229143548E1,3.872771561E-1,9.168817401E-1,1.840177327E-1
1.230114907E1,4.104893506E-1,4.526378214E-1,2.487675399E-1
1.231086183E1,6.120689511E-1,5.503733754E-1,2.194468826E-1
1.232057548E1,9.052756429E-1,8.631271720E-1,1.986780763E-1
1.233028985E1,1.148392797E0,1.095249176E0,1.852394342E-1
1.234000344E1,1.280335903E0,1.288276911E0,1.950129867E-1
1.234971620E1,1.323095202E0,1.509403586E0,2.499892414E-1
1.235942985E1,1.319430113E0,1.695101142E0,3.440597057E-1
1.236914428E1,1.302326322E0,1.710983157E0,4.588989913E-1
1.237885787E1,1.288887739E0,1.522842169E0,5.920637250E-1
1.238857063E1,1.275449038E0,1.206423283E0,6.922426820E-1
1.239828428E1,1.257123709E0,8.142594099E-1,7.056813240E-1
1.240799865E1,1.238798261E0,3.842229247E-1,6.262711287E-1
1.241771225E1,1.236354828E0,-3.481829539E-2,4.833329022E-1
1.242742501E1,1.297439575E0,-4.660764635E-1,3.159607351E-1
1.243713865E1,1.440377831E0,-9.022213817E-1,1.681357026E-1
1.244685303E1,1.596754789E0,-1.166107416E0,4.840964451E-2
1.245656662E1,1.649287581E0,-1.035386086E0,-6.887302548E-2
1.246627938E1,1.546665311E0,-4.990622103E-1,-2.203631550E-1
1.247599303E1,1.326760292E0,2.461714447E-1,-3.620797098E-1
1.248570740E1,1.066539288E0,9.193251133E-1,-4.256078303E-1
1.249542105E1,8.173136115E-1,1.334701300E0,-3.962871730E-1
1.250513376E1,6.071822047E-1,1.439767003E0,-3.107685447E-1
1.251484746E1,4.385883212E-1,1.266286373E0,-2.191414535E-1
1.252456183E1,3.188622594E-1,9.278770089E-1,-1.409530044E-1
1.253427542E1,2.663294077E-1,5.149442554E-1,-7.620319724E-2
1.254398818E1,2.785463631E-1,7.146912813E-2,-2.000524849E-2
1.255370183E1,3.213056624E-1,-3.475720882E-1,1.664558798E-2
1.256341621E1,3.591781855E-1,-6.334486008E-1,3.619270027E-2
1.257312980E1,3.713951409E-1,-7.348492742E-1,3.985778242E-2
1.258284256E1,3.603998721E-1,-6.591041684E-1,3.130592033E-2
1.259255621E1,3.420744538E-1,-4.526378214E-1,1.298050396E-2
1.260227058E1,3.384093940E-1,-1.838650256E-1,-1.145338640E-2
1.261198417E1,3.750602305E-1,1.215586066E-1,-4.321744293E-2
1.262169693E1,4.556920528E-1,4.196520746E-1,-9.330692142E-2
1.263141058E1,5.815265775E-1,6.700994372E-1,-1.556133330E-1
1.264112496E1,7.415685654E-1,8.680139780E-1,-2.069245130E-1
1.265083855E1,9.064973593E-1,1.024390817E0,-2.276933193E-1
1.266055131E1,1.049435616E0,1.147781968E0,-2.313583940E-1
1.267026496E1,1.164274931E0,1.236965656E0,-2.350234836E-1
1.267997933E1,1.257123709E0,1.288276911E0,-2.362451702E-1
1.268969292E1,1.329203606E0,1.311489105E0,-2.301367074E-1
1.269940568E1,1.358524323E0,1.316375852E0,-2.179197669E-1
1.270911933E1,1.332868695E0,1.293163657E0,-1.995943487E-1
1.271883371E1,1.247350097E0,1.233300567E0,-1.641651988E-1
1.272854730E1,1.105633497E0,1.141673565E0,-1.079672500E-1
1.273826006E1,9.236010313E-1,1.014617324E0,-4.566083103E-2
1.274797371E1,7.305732965E-1,8.545753360E-1,1.542389300E-2
1.275768808E1,5.668662786E-1,6.737645268E-1,5.940489471E-2
1.276740167E1,4.581354558E-1,4.819584787E-1,7.406523079E-2
1.277711443E1,3.946073353E-1,3.048127890E-1,7.895200700E-2
1.278682808E1,3.335226178E-1,1.838650256E-1,1.009425074E-1
1.279654246E1,2.333436459E-1,1.362189353E-1,1.412584335E-1
1.280625605E1,1.026223376E-1,1.081199646E-1,1.608055383E-1
1.281596881E1,-2.199050039E-2,4.337015375E-2,1.265980899E-1
1.282568246E1,-1.111742035E-1,-6.536065787E-2,6.917845458E-2
1.283539683E1,-1.514901221E-1,-1.997470558E-1,1.420219894E-2
1.284511042E1,-1.392731816E-1,-3.365768492E-1,-3.955236077E-2
1.285482318E1,-7.452336699E-2,-4.465293586E-1,-1.104106456E-1
1.286453678E1,5.131116882E-2,-4.990622103E-1,-1.947075576E-1
1.287425120E1,2.186833173E-1,-4.550811946E-1,-2.728960216E-1
1.288396480E1,3.738385141E-1,-2.828222811E-1,-3.425326049E-1
1.289367751E1,4.679090083E-1,6.719320081E-3,-4.133908749E-1
1.290339115E1,5.241069198E-1,3.439069986E-1,-5.025745630E-1
1.291310553E1,6.084038615E-1,6.310052276E-1,-6.247440577E-1
1.292281912E1,7.293516397E-1,8.411366940E-1,-7.383615971E-1
1.293253188E1,7.782194018E-1,9.962918758E-1,-7.847860456E-1
1.294224553E1,6.365028620E-1,1.108687758E0,-7.530219555E-1
1.295195990E1,2.883199155E-1,1.153890491E0,-6.552863717E-1
1.296167350E1,-2.015796006E-1,1.116017938E0,-4.976878166E-1
1.297138626E1,-7.317950130E-1,1.023169160E0,-2.838912606E-1
1.298109990E1,-1.214364409E0,8.777875304E-1,-4.566083103E-2
1.299081428E1,-1.635848999E0,7.128587365E-1,1.815743446E-1
1.300052787E1,-2.019461155E0,5.992411375E-1,3.733803928E-1
1.301024063E1,-2.371461868E0,5.980194807E-1,5.273138881E-1
1.301995428E1,-2.668333530E0,7.226322889E-1,6.409314871E-1
1.302966865E1,-2.874799967E0,9.242119193E-1,7.142331600E-1
1.303938225E1,-2.973757267E0,1.157555580E0,7.765395641E-1
1.304909496E1,-2.968870401E0,1.378682256E0,8.400676847E-1
1.305880860E1,-2.885795116E0,1.558271408E0,8.828269839E-1
1.306852298E1,-2.733083248E0,1.712204814E0,8.706100583E-1
1.307823657E1,-2.536390543E0,1.845369577E0,8.180772066E-1
1.308794933E1,-2.326106310E0,1.908897638E0,7.459971905E-1
1.309766298E1,-2.118418217E0,1.866138339E0,6.641436815E-1
1.310737735E1,-1.922947168E0,1.720756769E0,5.810684562E-1
1.311709095E1,-1.749466538E0,1.510625243E0,5.077667832E-1
1.312680370E1,-1.604084849E0,1.261399627E0,4.674508572E-1
1.313651730E1,-1.512457848E0,9.535325766E-1,4.857762754E-1
1.314623173E1,-1.484358788E0,5.271611810E-1,5.566345453E-1
1.315594522E1,-1.489245653E0,-4.947862774E-2,6.360446811E-1
1.316565803E1,-1.481915474E0,-6.481089592E-1,6.763606071E-1
1.317537167E1,-1.464811683E0,-9.229902029E-1,6.445965767E-1
1.318508605E1,-1.437934399E0,-7.189671993E-1,5.700731874E-1
1.319479964E1,-1.367076159E0,-2.339545041E-1,4.784461260E-1
1.320451240E1,-1.238798261E0,3.292466700E-1,3.611634374E-1
1.321422605E1,-1.120293856E0,8.692356348E-1,2.512109280E-1
1.322394042E1,-1.033553600E0,1.247960925E0,1.827960461E-1
1.323365402E1,-9.700254202E-1,1.371352077E0,1.754658818E-1
1.324336673E1,-8.979454637E-1,1.289498568E0,2.279987335E-1
1.325308037E1,-8.050966859E-1,1.061041713E0,2.988570333E-1
1.326279475E1,-6.743753552E-1,6.566607952E-1,3.513898849E-1
1.327250834E1,-5.399889946E-1,1.997470558E-1,3.758237660E-1
1.328222110E1,-4.410317242E-1,-9.834641218E-2,3.892624080E-1
1.329193475E1,-3.762819171E-1,-1.740914732E-1,3.855973184E-1
1.330164912E1,-3.200839758E-1,-1.191152185E-1,3.403946459E-1
1.331136261E1,-2.382304370E-1,-6.047387794E-2,2.585411072E-1
1.332107542E1,-9.529217333E-2,-7.391251624E-2,1.718007922E-1
1.333078907E1,1.258345395E-1,-1.655396074E-1,1.119377613E-1
1.334050345E1,4.043808877E-1,-3.353551328E-1,7.284353673E-2
1.335021704E1,7.000309825E-1,-5.405998230E-1,2.886253223E-2
1.335992980E1,9.797990322E-1,-7.165238261E-1,-4.566083103E-2
1.336964339E1,1.222916245E0,-8.276980519E-1,-1.653869003E-1
1.337935777E1,1.414722204E0,-8.655705452E-1,-3.205420971E-1
1.338907136E1,1.546665311E0,-8.484668136E-1,-4.879142344E-1
1.339878412E1,1.618745208E0,-7.666133046E-1,-6.149705052E-1
1.340849777E1,1.607749939E0,-5.943543911E-1,-6.626165509E-1
1.341821214E1,1.510014415E0,-3.329117596E-1,-6.271874309E-1
1.342792574E1,1.384179831E0,-3.970507160E-2,-5.318952799E-1
1.343763845E1,1.271783948E0,2.388412803E-1,-4.219427407E-1
1.344735209E1,1.104411840E0,4.526378214E-1,-3.755183518E-1
1.345706647E1,8.075400591E-1,5.906893015E-1,-4.036173224E-1
1.346678006E1,4.337015450E-1,6.908682585E-1,-4.475983381E-1
1.347649282E1,1.014006436E-1,7.715001106E-1,-4.891359508E-1
1.348620641E1,-1.136175916E-1,7.751652002E-1,-5.172349215E-1
1.349592079E1,-1.954711229E-1,6.090146899E-1,-4.903576374E-1
1.350563438E1,-1.979145110E-1,2.095206082E-1,-3.865135908E-1
1.351534714E1,-2.162399292E-1,-4.282039404E-1,-2.399102598E-1
1.352506079E1,-2.785463631E-1,-1.119683027E0,-1.201841980E-1
1.353477516E1,-3.665083647E-1,-1.601030707E0,-4.321744293E-2
1.354448865E1,-4.337015450E-1,-1.814827204E0,5.085303262E-2
1.355420147E1,-4.239279926E-1,-1.801388621E0,1.119377613E-1
1.356391511E1,-3.677300513E-1,-1.509403586E0,4.963133857E-2
1.357362949E1,-3.384093940E-1,-9.168817401E-1,-1.079672500E-1
1.358334308E1,-3.261924386E-1,-2.046338320E-1,-2.301367074E-1
1.359305579E1,-2.944283783E-1,3.353551328E-1,-2.313583940E-1
1.360276943E1,-2.663294077E-1,4.990622103E-1,-6.032116711E-2
1.361248381E1,-2.015796006E-1,2.987042964E-1,1.327065676E-1
1.362219740E1,-1.343864016E-2,9.590301663E-2,1.437018216E-1
1.363191011E1,2.797680497E-1,1.227803007E-1,6.184828654E-2
1.364162376E1,5.888567567E-1,2.009687424E-1,-1.267508045E-2
1.365133813E1,8.527427912E-1,2.241809368E-1,-5.421269313E-2
1.366105173E1,1.043327093E0,2.938175201E-1,-3.955236077E-2
1.367076449E1,1.148392797E0,4.844018817E-1,4.596625641E-2
1.368047808E1,1.193595529E0,7.910472155E-1,1.766875684E-1
1.369019246E1,1.210699320E0,1.102579355E0,3.269560039E-1
1.369990605E1,1.215586066E0,1.262621284E0,4.405735731E-1
1.370961881E1,1.227802992E0,1.140451789E0,5.138752460E-1
1.371933246E1,1.276670814E0,7.568397522E-1,6.128324866E-1
1.372904678E1,1.364632726E0,2.657185495E-1,7.472189069E-1
1.373876037E1,1.430604339E0,-1.679829955E-1,8.034168482E-1
1.374847313E1,1.406170368E0,-5.051707029E-1,6.959077120E-1
1.375818673E1,1.315765023E0,-7.837170362E-1,4.784461260E-1
1.376790115E1,1.220472813E0,-1.046381354E0,2.744231224E-1
1.377761464E1,1.136175871E0,-1.212531805E0,1.534753740E-1
1.378732746E1,1.044548869E0,-1.142895222E0,7.895200700E-2
1.379704110E1,9.468132257E-1,-8.252546191E-1,-4.123218823E-3
1.380675548E1,8.686248064E-1,-4.428642690E-1,-1.214058921E-1
1.381646897E1,7.794411182E-1,-1.948602796E-1,-2.606790662E-1
1.382618178E1,6.438329816E-1,-1.557660550E-1,-3.828485310E-1
1.383589542E1,4.911212027E-1,-2.877090573E-1,-4.439332485E-1
1.384560975E1,3.530697227E-1,-5.344913602E-1,-4.317162931E-1
1.385532334E1,2.284568697E-1,-8.020424247E-1,-3.620797098E-1
1.386503610E1,1.258345395E-1,-1.029277682E0,-2.777827978E-1
1.387474970E1,6.230641901E-2,-1.205201626E0,-2.142546773E-1
1.388446407E1,4.886778072E-2,-1.334701300E0,-1.824906170E-1
1.389417766E1,7.941014320E-2,-1.398229361E0,-1.641651988E-1
1.390389042E1,1.392731816E-1,-1.366465330E0,-1.336228400E-1
1.391360402E1,2.040229887E-1,-1.243074179E0,-1.006370857E-1
1.392331839E1,2.651077211E-1,-1.048824787E0,-8.353336155E-2
1.393303199E1,3.188622594E-1,-8.130376935E-1,-9.452861547E-2
1.394274475E1,3.872771561E-1,-5.711421967E-1,-1.238492802E-1
1.395245834E1,4.837910235E-1,-3.390202224E-1,-1.409530044E-1
1.396217272E1,6.035171151E-1,-1.276670843E-1,-1.470614821E-1
1.397188631E1,7.293516397E-1,5.192201585E-2,-1.543916464E-1
1.398159902E1,8.466343284E-1,2.021904439E-1,-1.727170646E-1
1.399131266E1,9.541434050E-1,3.182514310E-1,-2.008160353E-1
1.400102704E1,1.034775257E0,4.159869850E-1,-2.203631550E-1
1.401074063E1,1.067761064E0,5.088357925E-1,-2.301367074E-1
1.402045334E1,1.045770526E0,5.821374655E-1,-2.386885732E-1
1.403016699E1,9.822424054E-1,6.200099587E-1,-2.325800955E-1
1.403988136E1,9.003888369E-1,6.273401380E-1,-1.983726472E-1
1.404959496E1,8.026533127E-1,6.236750484E-1,-1.372879148E-1
1.405930766E1,6.817055345E-1,6.187883019E-1,-6.642963737E-2
1.406902131E1,5.351021886E-1,6.077930331E-1,7.635590737E-4
1.407873568E1,3.762819171E-1,5.894675851E-1,6.673506647E-2
1.408844917E1,2.150182426E-1,5.528167486E-1,1.278197914E-1
1.409816199E1,7.085828483E-2,4.831801951E-1,1.730224788E-1
1.410787558E1,-4.642439261E-2,3.805578351E-1,1.974563748E-1
1.411758996E1,-1.404948682E-1,2.620534599E-1,1.998997629E-1
1.412730355E1,-2.150182426E-1,1.374406368E-1,1.925695986E-1
1.413701626E1,-2.858765125E-1,1.527118124E-2,1.754658818E-1
1.414672990E1,-3.542914093E-1,-1.007898003E-1,1.485885978E-1
1.415644428E1,-4.043808877E-1,-2.034121305E-1,1.253764033E-1
1.416615787E1,-4.300364852E-1,-2.852656841E-1,1.192679256E-1
1.417587058E1,-4.398100376E-1,-3.634541333E-1,1.265980899E-1
1.418558423E1,-4.227063060E-1,-4.514161348E-1,1.278197914E-1
1.419529855E1,-3.567348123E-1,-5.540384650E-1,9.972081333E-2
1.420501214E1,-2.125748396E-1,-6.749862432E-1,2.886253223E-2
1.421472490E1,2.809897438E-2,-7.959339619E-1,-8.231166750E-2
1.422443850E1,3.139754832E-1,-8.484668136E-1,-2.044811249E-1
1.423415287E1,5.632011890E-1,-7.812736630E-1,-3.315373361E-1
1.424386647E1,7.379034758E-1,-6.187883019E-1,-4.573718905E-1
1.425357917E1,8.722898960E-1,-4.391991794E-1,-5.648810267E-1
1.426329282E1,1.021336675E0,-2.669402659E-1,-6.406260729E-1
1.427300720E1,1.103190184E0,-5.192201585E-2,-6.650599241E-1
1.428272068E1,9.773555994E-1,1.985253543E-1,-5.966450572E-1
1.429243350E1,5.925218463E-1,5.296045542E-1,-4.500417113E-1
1.430214709E1,-7.330167107E-3,8.570187092E-1,-2.594573796E-1
1.431186147E1,-6.963658929E-1,9.987352490E-1,-8.108997345E-2
1.432157506E1,-1.345085621E0,9.132166505E-1,1.420219894E-2
1.433128777E1,-1.844758749E0,7.641699314E-1,3.374931216E-2
1.434100141E1,-2.164842606E0,7.043069005E-1,5.818320066E-2
1.435071579E1,-2.350692987E0,7.275190949E-1,1.033858955E-1
1.436042928E1,-2.466753960E0,7.531746626E-1,1.424801201E-1
1.437014209E1,-2.544942379E0,7.385143638E-1,1.595838517E-1
1.437985568E1,-2.596253633E0,6.798729897E-1,1.620272398E-1
1.438957006E1,-2.598696947E0,6.248967648E-1,1.681357026E-1
1.439928365E1,-2.522951841E0,6.737645268E-1,2.047865391E-1
1.440899636E1,-2.362909794E0,8.496885300E-1,2.646495700E-1
1.441871001E1,-2.158734322E0,1.083032131E0,3.049654961E-1
1.442842438E1,-1.958376288E0,1.252847672E0,3.171824515E-1
1.443813787E1,-1.782452345E0,1.263842940E0,3.220692277E-1
1.444785068E1,-1.639514089E0,1.076923728E0,3.342861533E-1
1.445756428E1,-1.545443535E0,7.043069005E-1,3.794888556E-1
1.446727865E1,-1.488023877E0,1.484358907E-1,4.698942602E-1
1.447699225E1,-1.429382563E0,-6.908682585E-1,5.700731874E-1
1.448670496E1,-1.447708011E0,-1.520398855E0,6.274928451E-1
1.449641860E1,-1.616301894E0,-2.068939686E0,6.006155610E-1
1.450613292E1,-1.822768211E0,-2.158123255E0,5.370874405E-1
1.451584652E1,-1.899734974E0,-1.784284830E0,4.833329022E-1
1.452555923E1,-1.792225838E0,-1.001178622E0,4.124746025E-1
1.453527287E1,-1.564990640E0,-1.105633527E-1,2.951919436E-1
1.454498725E1,-1.299883008E0,5.393781066E-1,1.693574041E-1
1.455470074E1,-1.006676316E0,7.995990515E-1,6.673506647E-2
1.456441355E1,-7.342383862E-1,7.189671993E-1,-1.511846948E-2
1.457412714E1,-5.558710098E-1,5.479300022E-1,-5.543438718E-2
1.458384152E1,-4.654656053E-1,3.988832533E-1,-5.176930502E-2
1.459355511E1,-4.337015450E-1,2.302894145E-1,-4.443913698E-2
1.460326782E1,-4.288147688E-1,4.275931045E-3,-5.543438718E-2
1.461298147E1,-4.007157981E-1,-1.630962193E-1,-9.208522737E-2
1.462269579E1,-3.335226178E-1,-3.451287150E-1,-1.433963925E-1
1.463240938E1,-2.296785712E-1,-5.308262706E-1,-1.873773932E-1
1.464212209E1,-1.075091213E-1,-6.236750484E-1,-2.276933193E-1
1.465183574E1,2.076880634E-2,-6.187883019E-1,-2.631224692E-1
1.466155011E1,1.539335102E-1,-5.540384650E-1,-2.961082160E-1
1.467126360E1,2.993151546E-1,-4.660764635E-1,-3.217637837E-1
1.468097636E1,4.532486796E-1,-4.074351192E-1,-3.413109183E-1
1.469069001E1,6.010736823E-1,-4.062134326E-1,-3.559712470E-1
1.470040438E1,7.342383862E-1,-4.575245976E-1,-3.681881726E-1
1.471011787E1,8.515210748E-1,-5.601469278E-1,-3.938437700E-1
1.471983068E1,9.614735842E-1,-6.969767213E-1,-4.366030693E-1
1.472954428E1,1.072647810E0,-8.325847983E-1,-4.891359508E-1
1.473925865E1,1.170383334E0,-8.936695457E-1,-5.135698318E-1
1.474897214E1,1.236354828E0,-8.081509471E-1,-4.842491746E-1
1.475868496E1,1.264453769E0,-5.858024955E-1,-4.121691883E-1
1.476839855E1,1.221694469E0,-3.084778786E-1,-3.254288733E-1
1.477811292E1,1.045770526E0,-5.070032179E-2,-2.802261710E-1
1.478782652E1,7.281299233E-1,8.368607610E-2,-3.095468581E-1
1.479753923E1,3.371876776E-1,-3.054236295E-3,-3.694098890E-1
1.480725282E1,-7.330167107E-3,-2.168507725E-1,-3.840702176E-1
1.481696720E1,-2.382304370E-1,-3.646758199E-1,-3.584146202E-1
1.482668079E1,-3.713951409E-1,-3.830012381E-1,-3.352024257E-1
1.483639350E1,-4.190412164E-1,-3.133646548E-1,-3.339807391E-1
1.484610709E1,-3.958290219E-1,-2.889307439E-1,-3.437542915E-1
1.485582147E1,-3.274141252E-1,-4.049917459E-1,-3.535278440E-1
1.486553506E1,-2.492256761E-1,-6.664343476E-1,-3.449759781E-1
1.487524777E1,-1.966928244E-1,-9.779664874E-1,-2.887780368E-1
1.488496136E1,-1.893626451E-1,-1.217418551E0,-1.629435122E-1
1.489467574E1,-2.150182426E-1,-1.338366389E0,-5.299099907E-2
1.490438933E1,-2.431172132E-1,-1.339588046E0,-7.742489129E-2
1.491410204E1,-2.773246467E-1,-1.208866715E0,-2.582356930E-1
1.492381563E1,-3.103103936E-1,-8.790091872E-1,-4.366030693E-1
1.493353001E1,-3.249707520E-1,-3.658975065E-1,-4.964661002E-1
1.494324360E1,-2.980934680E-1,1.447708011E-1,-4.023956358E-1
1.495295631E1,-2.858765125E-1,3.158080280E-1,-1.751604527E-1
1.496266990E1,-3.909422457E-1,-1.044548824E-1,4.474456236E-2
1.497238428E1,-4.679090083E-1,-8.325847983E-1,9.605573118E-2
1.498209787E1,-2.418955117E-1,-1.141673565E0,1.786728203E-2
1.499181058E1,2.345653474E-1,-9.400939345E-1,-6.276455522E-2
1.500152417E1,7.049177289E-1,-5.454866290E-1,-1.140757278E-1
1.501123855E1,1.016449809E0,-7.513421029E-2,-1.006370857E-1
1.502095214E1,1.186265349E0,4.428642690E-1,5.650337320E-3
1.503066485E1,1.271783948E0,9.376505613E-1,1.705790907E-1
1.504037845E1,1.299883008E0,1.327371120E0,3.379512429E-1
1.505009282E1,1.297439575E0,1.537502527E0,4.674508572E-1
1.505980631E1,1.298661232E0,1.492299795E0,5.700731874E-1
1.506951912E1,1.323095202E0,1.203979969E0,6.946860552E-1
1.507923272E1,1.338977218E0,7.201889157E-1,8.119687438E-1
