"Time (s)","Acceleration x (m/s^2)","Acceleration y (m/s^2)","Acceleration z (m/s^2)"
5.272281200E-2,-2.837289333E0,-1.673211098E1,-5.967699528E0
6.243739600E-2,-2.212463617E0,-1.491745472E1,-4.124329090E0
7.215109400E-2,-1.274178028E0,-1.373240948E1,-2.247458696E0
8.186411500E-2,-3.547359705E-1,-1.246361542E1,-7.797610760E-1
9.157786500E-2,5.168496966E-1,-1.117777157E1,3.095714152E-1
1.012925000E-1,1.242174029E0,-9.760622978E0,5.416752100E-1
1.110062500E-1,1.656431437E0,-8.072785378E0,-1.022931710E-1
1.207192190E-1,1.819143414E0,-5.961119175E0,-1.117448211E0
1.304330730E-1,1.898106575E0,-3.801596880E0,-2.316850424E0
1.401476560E-1,1.634896040E0,-1.701895118E0,-3.549752474E0
1.498613540E-1,1.474277854E0,-2.362912335E-2,-4.634299278E0
1.595743750E-1,1.941177368E0,1.324128270E0,-5.666203976E0
1.692881250E-1,2.432005167E0,2.305783749E0,-5.886343479E0
1.790027600E-1,2.312364101E0,3.131606579E0,-5.086842060E0
1.887164580E-1,1.591825247E0,3.385545015E0,-3.537788391E0
1.984294790E-1,7.058826685E-1,3.076571703E0,-2.230708838E0
2.081432290E-1,-2.997010350E-1,2.585743904E0,-1.105484009E0
2.178578650E-1,-1.175773263E0,2.123630047E0,-5.811567903E-1
2.275716150E-1,-2.255534410E0,1.381555915E0,-5.691927075E-1
2.372845830E-1,-2.569293261E0,4.262215197E-1,-7.701897621E-1
2.469984370E-1,-1.613958836E0,7.208377868E-2,-1.672882080E0
2.567129690E-1,-2.518445849E-1,-4.354937077E-1,-3.511467218E0
2.664267190E-1,1.426421404E0,-9.741778970E-1,-5.311767101E0
2.761396870E-1,2.827120066E0,-1.232901812E0,-5.680561066E0
2.858535420E-1,3.267698526E0,-1.350150228E0,-4.328018188E0
2.955681250E-1,3.128615618E0,-1.723430514E0,-1.792523265E0
3.052818230E-1,2.750549555E0,-2.321935177E0,1.449153185E0
3.149948440E-1,1.907677889E0,-2.295614243E0,5.157430172E0
3.247085940E-1,1.146461129E0,-1.819442511E0,7.917850018E0
3.344232290E-1,6.556333899E-1,-1.390828133E0,9.078967094E0
3.441369270E-1,4.618147612E-1,-7.181459069E-1,8.439785004E0
3.538499480E-1,-5.102694035E-1,3.257229924E-1,5.629115105E0
3.635636980E-1,-2.552543640E0,1.659422517E0,5.751747489E-1
3.732783330E-1,-4.185346127E0,2.736790895E0,-4.835296154E0
3.829920830E-1,-4.266701698E0,2.676671267E0,-6.872784615E0
3.927050520E-1,-2.969193697E0,8.428717852E-1,-5.682953835E0
4.024189060E-1,-1.087238789E0,-1.852941990E0,-4.505086899E0
4.121334370E-1,3.251247704E-1,-4.004986763E0,-5.311767101E0
4.218471870E-1,3.035893738E-1,-5.405685425E0,-6.628716946E0
4.315601560E-1,-1.968395710E0,-7.589136124E0,-7.025925636E0
4.412740100E-1,-6.392724991E0,-1.290389442E1,-1.048804092E1
4.509885940E-1,-9.866504669E0,-1.917907143E1,-7.813762188E0
4.607022920E-1,-1.154955673E1,-2.637787819E1,-3.733999729E0
4.704153120E-1,-7.443772316E0,-2.929652405E1,-4.062115669E0
4.801290620E-1,-2.111965179E0,-2.892773056E1,-3.628715515E0
4.898436980E-1,-8.910273314E-1,-3.410370636E1,-4.416552544E0
4.995573960E-1,2.223829508E0,-3.831746674E1,-8.421838760E0
5.092704170E-1,6.133402824E0,-3.692633820E1,-1.173529911E1
5.189841670E-1,5.455635548E0,-3.436960602E1,-9.444171906E0
5.286988020E-1,1.984248161E0,-3.250201035E1,-4.404588223E0
5.384125520E-1,-1.609173179E0,-3.023002434E1,-2.419741869E0
5.481255210E-1,-4.829314232E0,-2.722553635E1,-4.591228485E0
5.578393750E-1,-7.656733513E0,-2.460150719E1,-8.728119850E0
5.675539060E-1,-9.320642471E0,-2.239412880E1,-1.164915752E1
5.772676560E-1,-9.212965012E0,-2.018914223E1,-1.175922775E1
5.869806250E-1,-7.888837337E0,-1.834337807E1,-1.034417248E1
5.966944790E-1,-6.284748554E0,-1.727558136E1,-8.314161301E0
6.064090620E-1,-4.328915119E0,-1.621974754E1,-5.934200287E0
6.161227600E-1,-2.324926376E0,-1.422323704E1,-3.518645763E0
6.258357810E-1,-5.150550604E-1,-1.187228870E1,-1.296909928E0
6.355495310E-1,5.886343718E-1,-1.044048309E1,1.417747438E-1
6.452641670E-1,1.290030479E0,-8.822037697E0,6.158527136E-1
6.549778650E-1,1.601396561E0,-6.224329948E0,2.377867550E-1
6.646908850E-1,1.474277854E0,-3.959523201E0,-7.677969933E-1
6.744046350E-1,8.135597110E-1,-2.144866467E0,-2.111067772E0
6.841192710E-1,-1.585244983E-1,-3.708875179E-1,-3.159423113E0
6.938330210E-1,-6.825526357E-1,1.161416292E0,-3.451646566E0
7.035459900E-1,-5.222335458E-1,2.545065880E0,-3.097209692E0
7.132598440E-1,-1.752742529E-1,3.445365429E0,-2.630609512E0
7.229743750E-1,1.935195327E-1,3.677469254E0,-1.940878272E0
7.326881250E-1,3.299104273E-1,3.710968733E0,-1.155733347E0
7.424010940E-1,2.006980032E-1,3.344866991E0,-6.290132403E-1
7.521149480E-1,-3.379862010E-2,2.537887573E0,-2.386840582E-1
7.618295310E-1,-7.857431173E-1,1.135095239E0,5.249254704E-1
7.715432290E-1,-1.056132078E0,2.300100774E-1,9.918249846E-1
7.812562500E-1,-9.077770710E-1,-3.320041299E-2,3.909274042E-1
7.909700000E-1,-5.150550604E-1,-1.938186288E-1,-1.036092162E0
8.006846350E-1,3.320041299E-2,-3.038884699E-1,-2.209173441E0
8.103983850E-1,4.689932466E-1,-3.661018610E-1,-2.501097918E0
8.201113540E-1,8.063812256E-1,-5.910272002E-1,-1.809273005E0
8.298252080E-1,1.091426253E0,-9.000003934E-1,-6.984050870E-1
8.395397920E-1,1.134497046E0,-1.182353497E0,2.521436810E-1
8.492534900E-1,1.141675472E0,-1.374078393E0,8.123632669E-1
8.589665100E-1,1.036391258E0,-1.534397483E0,8.985049129E-1
8.686802600E-1,7.250252366E-1,-1.512862086E0,7.450651526E-1
8.783948960E-1,4.594219327E-1,-1.426720500E0,3.526422381E-1
8.881086460E-1,3.035893738E-1,-1.254437327E0,-2.093719877E-2
8.978216150E-1,7.387840003E-2,-9.933205247E-1,-4.064807594E-1
9.075354690E-1,-1.728814393E-1,-6.822535396E-1,-9.834501147E-1
9.172500000E-1,-4.097708762E-1,-3.349951804E-1,-1.560419440E0
9.269637500E-1,-5.964110494E-1,-4.516452923E-2,-1.761416554E0
9.366767710E-1,-6.777670383E-1,1.079761237E-1,-1.165304661E0
9.463905210E-1,-6.996015310E-1,4.097708687E-2,-5.787639618E-1
9.561051560E-1,-1.094417214E0,-9.263214469E-1,-1.373480201E0
9.658189060E-1,-1.601994753E0,-2.475374937E0,-2.594418049E0
9.755318750E-1,-1.877468467E0,-3.547957659E0,-4.304089546E0
9.852457290E-1,-1.877468467E0,-4.953142643E0,-4.799404144E0
9.949603120E-1,-1.460818172E0,-9.023035049E0,-7.828119278E0
1.004674062E0,-2.619542599E0,-1.541546059E1,-1.524257946E1
1.014387031E0,-2.100000858E0,-2.143909264E1,-1.575494289E1
1.024100885E0,-3.177369356E0,-2.532443810E1,-1.293230915E1
1.033815469E0,-5.401497841E0,-3.015345383E1,-1.176162052E1
1.043529167E0,-7.477271557E0,-3.344059372E1,-4.399802685E0
1.053242187E0,-6.251249313E0,-3.603112411E1,-4.141078472E0
1.062956042E0,-1.930110574E0,-3.368227005E1,-6.717251301E0
1.072670573E0,1.481456280E0,-3.083092117E1,-6.456134796E0
1.082384323E0,2.022533417E0,-2.903540802E1,-9.257232547E-1
1.092097344E0,7.944171429E-1,-2.829811859E1,-1.067198873E0
1.101811198E0,-2.459223509E0,-2.523351097E1,-4.900201797E0
1.111525729E0,-5.827719688E0,-2.411307144E1,-5.201697350E0
1.121239479E0,-7.110870838E0,-2.341885376E1,-4.912165642E0
1.130952500E0,-6.972086906E0,-2.202084732E1,-5.239982605E0
1.140666250E0,-6.279963017E0,-2.096022987E1,-5.812166214E0
1.150380885E0,-3.998406649E0,-2.084776688E1,-6.722036839E0
1.160094635E0,-1.223629713E0,-2.083789635E1,-6.810571671E0
1.169807656E0,7.298108935E-1,-1.958824348E1,-6.190531254E0
1.179521406E0,1.498206019E0,-1.748405647E1,-4.856831551E0
1.189236042E0,1.613360643E0,-1.529581928E1,-2.721536636E0
1.198949792E0,1.136889815E0,-1.302144146E1,-1.253839016E0
1.208662812E0,2.844468057E-1,-1.103420258E1,-1.038485050E0
1.218376667E0,-4.432703853E-1,-9.217152596E0,-1.529312730E0
1.228091198E0,-1.039382339E0,-7.284948349E0,-2.139781713E0
1.237804948E0,-1.077667475E0,-5.489434242E0,-2.893819809E0
1.247517969E0,-8.288139701E-1,-3.571886063E0,-3.830011845E0
1.257231823E0,-5.006981492E-1,-1.654038668E0,-4.682155609E0
1.266946354E0,9.272187948E-3,-3.708875179E-1,-5.211268425E0
1.276660104E0,8.853443861E-1,4.070789516E-1,-5.266303539E0
1.286373125E0,1.721037745E0,1.240379453E0,-4.830510616E0
1.296086979E0,1.902892232E0,2.408675194E0,-3.542573929E0
1.305801562E0,1.534098387E0,3.263211966E0,-1.909771562E0
1.315515260E0,6.053841114E-1,3.452543974E0,-7.582256794E-1
1.325228281E0,-9.005986452E-1,3.160320520E0,-1.477568001E-1
1.334942135E0,-2.353640079E0,2.918645382E0,1.680957973E-1
1.344656719E0,-3.426223040E0,1.450947881E0,2.617149651E-1
1.354370469E0,-2.858824968E0,2.754737139E-1,3.239283562E-1
1.364083437E0,-1.836790442E0,-2.321037948E-1,-1.860419661E-1
1.373797292E0,-7.833502889E-1,-4.211367965E-1,-1.625025630E0
1.383511875E0,5.048855543E-1,-4.043870270E-1,-3.487539053E0
1.393225625E0,1.208674550E0,1.917249113E-1,-4.605585575E0
1.402938646E0,1.215852976E0,2.539383173E-1,-4.354339123E0
1.412652500E0,1.062712312E0,-9.023932219E-1,-3.501895905E0
1.422367083E0,1.172782183E0,-1.570289850E0,-1.749452472E0
1.432080781E0,1.215852976E0,-1.644467354E0,-4.007977992E-2
1.441793802E0,1.352243900E0,-1.572682738E0,1.039681435E0
1.451507656E0,1.524527073E0,-1.414756417E0,1.628614902E0
1.461222240E0,1.438385487E0,-1.201795220E0,2.006979942E0
1.470935990E0,1.141675472E0,-8.976075649E-1,2.167299032E0
1.480649010E0,8.566305041E-1,-7.109674215E-1,2.073979139E0
1.490362865E0,6.723831892E-1,-5.982056856E-1,1.499402523E0
1.500077448E0,3.634099364E-1,-4.761717021E-1,4.914259613E-1
1.509791146E0,-1.872383654E-1,-4.713860750E-1,-5.213362575E-1
1.519504167E0,-6.681957245E-1,-7.660023570E-1,-1.332802176E0
1.529218021E0,-8.718847632E-1,-1.266401410E0,-2.288136721E0
1.538932604E0,-1.096810102E0,-2.027618170E0,-3.051746130E0
1.548646354E0,-1.678565025E0,-3.140878916E0,-3.528217077E0
1.558359375E0,-2.684148788E0,-4.565206528E0,-3.269792080E0
1.568073229E0,-4.517948151E0,-6.640980244E0,-4.126721859E0
1.577787812E0,-7.216155052E0,-1.140060329E1,-8.783154488E0
1.587501562E0,-7.434200764E0,-1.835534286E1,-1.535025597E1
1.597214531E0,-4.173381805E0,-2.394557381E1,-1.143589783E1
1.606928385E0,-1.058524966E0,-2.695006180E1,-7.777870178E0
1.616642969E0,2.063211441E0,-2.804417992E1,-1.266879940E1
1.626356719E0,1.761715651E0,-2.686152840E1,-1.136172009E1
1.636069740E0,-7.187440991E-1,-2.854218674E1,-5.953342915E0
1.645783594E0,-2.853440940E-1,-3.160440063E1,-3.113959551E0
1.655498177E0,1.265204996E-1,-3.263391495E1,-4.397409916E0
1.665211927E0,3.083750308E-1,-3.082613564E1,-9.135198593E0
1.674924948E0,-5.198407173E-1,-2.641137886E1,-1.250369453E1
1.684638802E0,-3.206083298E0,-2.478366089E1,-1.066510963E1
1.694353385E0,-4.791028976E0,-2.343799782E1,-7.595716476E0
1.704067135E0,-6.093322754E0,-2.179083824E1,-5.999105453E0
1.713780156E0,-6.840182781E0,-1.946860313E1,-5.134698391E0
1.723494010E0,-7.091728210E0,-1.758694649E1,-5.434100151E0
1.733208594E0,-6.514758587E0,-1.668186188E1,-6.264708996E0
1.742922344E0,-5.631208897E0,-1.681586075E1,-7.337291718E0
1.752635312E0,-4.781457901E0,-1.764198303E1,-7.763513088E0
1.762349219E0,-3.850051641E0,-1.769701767E1,-7.428218842E0
1.772063802E0,-2.490330219E0,-1.601635742E1,-5.582455158E0
1.781777552E0,-1.084846020E0,-1.464198112E1,-2.956033230E0
1.791490521E0,7.148557901E-2,-1.406740475E1,-6.960122585E-1
1.801204375E0,1.074676514E0,-1.340429306E1,4.818546474E-1
1.810919010E0,1.893320918E0,-1.219053364E1,8.554341197E-1
1.820632708E0,2.570788860E0,-1.062473106E1,6.613163352E-1
1.830345729E0,3.032902718E0,-9.042177200E0,-3.529413417E-2
1.840059583E0,3.104687452E0,-7.217949390E0,-1.172483087E0
1.849774167E0,2.831905603E0,-5.051248550E0,-2.527418852E0
1.859487917E0,2.542074919E0,-2.999702215E0,-3.956831455E0
1.869200937E0,2.309971094E0,-1.510469317E0,-4.763511658E0
1.878914792E0,2.484647274E0,-6.101697683E-1,-4.706083775E0
1.888629375E0,2.889333248E0,2.682952285E-1,-3.851547241E0
1.898343125E0,3.109472990E0,1.053739309E0,-2.469991207E0
1.908056146E0,2.767299414E0,1.599302888E0,-1.270588875E0
1.917770000E0,2.024926186E0,2.051845312E0,-2.985046208E-1
1.927484583E0,5.407779217E-1,2.571387053E0,-2.889333367E-1
1.937198333E0,-1.274178028E0,3.145963669E0,-7.199404836E-1
1.946911354E0,-3.476472139E0,3.498007536E0,-1.395015597E0
1.956625208E0,-5.607280731E0,3.074178934E0,-2.168495417E0
1.966339844E0,-6.368796349E0,2.219642162E0,-3.032603502E0
1.976053594E0,-5.128417015E0,1.860419631E0,-3.133102179E0
1.985766562E0,-3.196511984E0,1.640279889E0,-2.936890602E0
1.995480417E0,-1.396211982E0,1.063310504E0,-2.601596355E0
2.005195052E0,-4.097708687E-2,3.879363835E-1,-1.995913148E0
2.014908802E0,1.014855862E0,-1.172483116E-1,-1.031306505E0
2.024621771E0,1.843071699E0,-6.583253145E-1,1.824527234E-1
2.034335677E0,2.393719912E0,-1.122532964E0,1.240678549E0
2.044050260E0,2.668894529E0,-1.328614831E0,1.841576099E0
2.053764010E0,2.767299414E0,-1.412363529E0,1.911267042E0
2.063477031E0,2.477468729E0,-1.424327731E0,1.315155149E0
2.073190885E0,1.850250125E0,-1.350150228E0,2.641077936E-1
2.082905469E0,1.156032443E0,-1.208973646E0,-8.419744968E-1
2.092619219E0,3.801597059E-1,-9.430712461E-1,-1.962413669E0
2.102332240E0,-2.709871531E-1,-6.583253145E-1,-2.666501760E0
2.112046094E0,-3.379862010E-1,-7.109674215E-1,-2.767000198E0
2.121760677E0,1.166501082E-2,-1.100997567E0,-2.405385017E0
2.131474427E0,1.408774406E-1,-1.639681697E0,-1.229910851E0
2.141187448E0,-4.671986103E-1,-2.358126640E0,1.585244983E-1
2.150901302E0,-1.661815286E0,-3.107379198E0,4.842474759E-1
2.160615937E0,-2.796611547E0,-4.093820572E0,-5.309075117E-1
2.170329687E0,-4.446163654E0,-6.332305908E0,-4.076472282E0
2.180042708E0,-5.437390327E0,-1.123759270E1,-1.295623684E1
2.189756458E0,-2.988336325E0,-1.741197205E1,-2.466342163E1
2.199471146E0,-3.212364316E-1,-1.940638924E1,-2.151745796E1
2.209184896E0,-6.275177598E-1,-2.176930237E1,-1.477089405E1
2.218897917E0,-1.312463164E0,-2.471157646E1,-8.802596092E0
2.228611771E0,-2.052144527E0,-2.698595428E1,-5.733202934E0
2.238326354E0,-2.272284269E0,-2.758236504E1,-3.928117514E0
2.248040104E0,-1.467996716E0,-2.588226509E1,-2.125424623E0
2.257753125E0,-3.714857101E-1,-2.544916344E1,-2.192423820E0
2.267466979E0,-1.393819153E-1,-2.562144661E1,-4.651049137E0
2.277181615E0,-7.689933777E-1,-2.512344170E1,-6.460920334E0
2.286895365E0,-2.305783749E0,-2.366322136E1,-7.370790958E0
2.296608385E0,-4.596911430E0,-2.275574303E1,-7.706085205E0
2.306322240E0,-5.559424400E0,-2.229602242E1,-7.459325314E0
2.316036823E0,-5.245964527E0,-2.174058914E1,-6.714858532E0
2.325750573E0,-4.462913513E0,-2.172862434E1,-7.059424877E0
2.335463594E0,-3.440579891E0,-2.198256302E1,-8.383553505E0
2.345177448E0,-2.741576433E0,-2.161137581E1,-9.202198029E0
2.354892031E0,-2.437688112E0,-2.080439568E1,-9.309874535E0
2.364605885E0,-2.377867460E0,-2.014367867E1,-9.065806389E0
2.374318854E0,-1.896611094E0,-1.934178352E1,-7.590930939E0
2.384032708E0,-1.036989570E0,-1.811127472E1,-5.467599869E0
2.393747292E0,-2.829512656E-1,-1.679911041E1,-3.303291559E0
2.403461042E0,9.302098304E-2,-1.558774376E1,-1.971984982E0
2.413174062E0,2.940180898E-1,-1.449841118E1,-1.809273005E0
2.422887917E0,2.341975123E-1,-1.288714409E1,-2.185245275E0
2.432602500E0,-3.379862010E-2,-1.081645584E1,-2.946461916E0
2.442316250E0,-2.973082066E-1,-8.716753960E0,-3.758227110E0
2.452029271E0,-3.978067636E-1,-6.779763699E0,-4.205684662E0
2.461743177E0,-3.355933726E-1,-4.955535889E0,-4.102793694E0
2.471457760E0,-1.944168471E-2,-3.411267757E0,-3.707678795E0
2.481171510E0,4.474578202E-1,-2.168794632E0,-3.063710213E0
2.490884531E0,1.065105200E0,-1.031605721E0,-2.312064886E0
2.500598385E0,1.699502230E0,-1.555334777E-1,-1.569990754E0
2.510312969E0,2.183151484E0,6.514459848E-1,-9.089735150E-1
2.520026719E0,2.321935177E0,1.695314884E0,-5.213362575E-1
2.529739740E0,1.924427629E0,2.578565598E0,-3.702892959E-1
2.539453646E0,1.201496124E0,3.136392355E0,-3.008974493E-1
2.549168229E0,-2.422732860E-2,3.754039526E0,-8.395816684E-1
2.558881979E0,-1.910967946E0,3.933800459E0,-2.309672117E0
2.568595000E0,-3.809373617E0,2.537887573E0,-3.628715515E0
2.578308854E0,-3.677768469E0,1.482054472E0,-3.511467218E0
2.588023490E0,-3.191726208E0,1.242772222E0,-2.621038198E0
2.597737240E0,-2.813361168E0,1.113559842E0,-1.581954837E0
2.607450260E0,-2.298605204E0,5.772684813E-1,-1.148554921E0
2.617164115E0,-1.700100541E0,3.140579537E-2,-1.036092162E0
2.626878698E0,-8.694919348E-1,-1.028913707E-1,-6.290132403E-1
2.636592448E0,5.952146277E-2,-1.507478207E-1,-1.118644550E-1
2.646305469E0,1.098604679E0,-4.402793646E-1,2.330010980E-1
2.656019323E0,1.938784599E0,-8.712865710E-1,2.569293380E-1
2.665733958E0,2.365005970E0,-1.115354419E0,2.138585299E-1
2.675447708E0,2.465504646E0,-1.134497046E0,-7.118647546E-2
2.685160729E0,2.278864384E0,-1.481755376E0,-5.285146832E-1
2.694874583E0,2.180758715E0,-1.955833435E0,-1.081555843E0
2.704589167E0,1.886142492E0,-2.006082773E0,-1.383051515E0
2.714302917E0,1.010070205E0,-1.826620936E0,-1.457229018E0
2.724015937E0,8.344969153E-2,-1.520040631E0,-1.538884044E0
2.733729792E0,-8.883354068E-2,-1.206580877E0,-1.871486425E0
2.743444427E0,1.169492081E-1,-1.295115232E0,-2.355135679E0
2.753158177E0,2.413759828E-1,-1.752144337E0,-2.781357288E0
2.762871198E0,-1.079761237E-1,-2.183151484E0,-2.781357288E0
2.772585052E0,-1.058524966E0,-3.136093140E0,-3.202793121E0
2.782299635E0,-2.080858469E0,-4.945964336E0,-4.663012981E0
2.792013385E0,-3.031407118E0,-8.410173416E0,-7.404290676E0
2.801726406E0,-3.828516245E0,-1.258564854E1,-1.004267693E1
2.811440312E0,-4.417449474E0,-1.547767448E1,-9.408279419E0
2.821154896E0,-4.690530777E0,-1.771137428E1,-9.894022942E0
2.830868646E0,-3.287439108E0,-2.063689804E1,-1.379881001E1
2.840581667E0,-2.030609131E0,-2.190329933E1,-1.123968601E1
2.850295521E0,-2.925225794E-1,-2.435743904E1,-7.701299667E0
2.860010104E0,1.701895118E0,-2.709393120E1,-7.344470024E0
2.869723958E0,2.372184515E0,-2.816890717E1,-6.934998035E0
2.879436927E0,1.965105653E0,-2.776422119E1,-6.008676529E0
2.889150781E0,1.079462171E0,-2.748874664E1,-5.960521221E0
2.898865365E0,-1.204487085E0,-2.583201599E1,-5.338088036E0
2.908579115E0,-3.799802303E0,-2.345474625E1,-4.002295017E0
2.918292135E0,-5.842076302E0,-2.167598152E1,-3.032603502E0
2.928005990E0,-6.239284992E0,-2.027289009E1,-3.523431301E0
2.937720625E0,-5.655137062E0,-1.929153442E1,-4.924129963E0
2.947434375E0,-4.901099205E0,-1.915484428E1,-5.979663849E0
2.957147396E0,-3.996013880E0,-1.940878296E1,-6.858428001E0
2.966861250E0,-2.799004316E0,-1.988525391E1,-7.284649372E0
2.976575833E0,-2.121536493E0,-2.064168549E1,-7.394719124E0
2.986289583E0,-2.401795626E0,-2.053161430E1,-7.124330521E0
2.996002604E0,-3.048156977E0,-1.954995918E1,-6.602396011E0
3.005716458E0,-2.612364054E0,-1.824766541E1,-5.687739372E0
3.015431094E0,-1.472782373E0,-1.700519180E1,-4.801796913E0
3.025144844E0,-7.283154130E-1,-1.596132374E1,-4.385445595E0
3.034857865E0,-7.402794957E-1,-1.467817211E1,-4.469194412E0
3.044571719E0,-9.795617461E-1,-1.316740417E1,-4.789832592E0
3.054286302E0,-9.077770710E-1,-1.161595726E1,-4.940879822E0
3.064000052E0,-3.164508045E-1,-1.010040379E1,-4.823332310E0
3.073713073E0,5.599204898E-1,-8.644968987E0,-4.706083775E0
3.083426927E0,1.402493119E0,-7.325626373E0,-4.289433479E0
3.093141562E0,1.981855392E0,-6.025725842E0,-3.099602699E0
3.102855312E0,2.223829508E0,-4.577469826E0,-2.091925144E0
3.112568333E0,2.240579367E0,-3.334697485E0,-1.560419440E0
3.122282187E0,2.130509377E0,-2.422732830E0,-1.567597985E0
3.131996771E0,2.036890268E0,-1.191924810E0,-1.962413669E0
3.141710521E0,1.778465390E0,1.630110443E-1,-2.103889227E0
3.151423542E0,1.325922847E0,1.211665511E0,-2.003091574E0
3.161137396E0,7.058826685E-1,1.925025821E0,-1.739881158E0
3.170852031E0,-2.973082066E-1,2.578565598E0,-1.648953915E0
3.180565781E0,-1.365105271E0,3.114856958E0,-2.163709879E0
3.190278802E0,-2.430509567E0,3.294617653E0,-2.728715181E0
3.199992656E0,-3.787838221E0,2.789433002E0,-3.142673492E0
3.209707240E0,-4.618745804E0,1.848455548E0,-2.984747171E0
3.219420990E0,-4.269094467E0,1.532303810E0,-2.197209358E0
3.229134010E0,-3.060121059E0,1.364806175E0,-1.344766378E0
3.238847865E0,-1.822433591E0,7.591229677E-1,-7.175477147E-1
3.248562500E0,-6.753742099E-1,2.491526604E-1,-5.404788256E-1
3.258276250E0,4.689932466E-1,-9.571290761E-2,-4.399802685E-1
3.267989271E0,1.493420482E0,-4.043870270E-1,-4.256233275E-1
3.277703125E0,2.226222277E0,-7.995018363E-1,-2.410768867E-1
3.287417708E0,2.546860695E0,-1.206580877E0,1.824527234E-1
3.297131458E0,2.568396091E0,-1.488933921E0,6.852445602E-1
3.306844479E0,2.489432812E0,-1.867298961E0,8.434699774E-1
3.316558333E0,2.120938063E0,-2.022832394E0,5.967101455E-1
3.326272917E0,1.862214208E0,-2.161616087E0,3.598206937E-1
3.335986771E0,1.673181176E0,-2.221436739E0,8.913264424E-2
3.345699687E0,1.558026671E0,-2.228615284E0,-3.655036688E-1
3.355413594E0,1.335494161E0,-2.118545294E0,-7.438687682E-1
3.365128177E0,9.044869542E-1,-1.788335800E0,-1.031306505E0
3.374841927E0,3.490529954E-1,-1.649253011E0,-1.502991676E0
3.384554948E0,1.360917836E-1,-2.070688963E0,-2.359921217E0
3.394268802E0,-1.369891018E-1,-2.669193745E0,-3.113959551E0
3.403983385E0,-1.539781332E0,-3.468994617E0,-5.513063431E0
3.413697135E0,-4.027120590E0,-4.354638100E0,-7.052246571E0
3.423410156E0,-7.175477028E0,-7.335197926E0,-7.919046402E0
3.433124010E0,-1.100369358E1,-1.361516094E1,-7.576573849E0
3.442838646E0,-1.114487076E1,-1.822134399E1,-7.682157040E0
3.452552396E0,-6.929016113E0,-2.089323044E1,-7.813762188E0
3.462265417E0,-2.327319145E0,-2.536541557E1,-1.392114258E1
3.471979271E0,2.166401863E0,-2.549462891E1,-1.397139263E1
3.481693854E0,6.928118706E0,-2.625584412E1,-1.024845982E1
3.491407604E0,7.251449108E0,-2.842493820E1,-1.223330593E1
3.501120625E0,5.233103275E0,-2.891576576E1,-1.409581947E1
3.510834479E0,2.573181629E0,-2.706521606E1,-9.494421005E0
3.520549062E0,-4.887340367E-1,-2.542762947E1,-3.705285788E0
3.530262812E0,-4.216452599E0,-2.377568436E1,-1.347159147E0
3.539975833E0,-6.416653156E0,-2.181955147E1,-3.032902777E-1
3.549689687E0,-7.812266827E0,-2.052682877E1,1.971087605E-1
3.559404323E0,-8.884849548E0,-1.977518272E1,-1.696810365E0
3.569118073E0,-9.684650421E0,-1.802244186E1,-3.858725548E0
3.578831094E0,-1.029033375E1,-1.649761391E1,-6.638288021E0
3.588544948E0,-9.593423843E0,-1.586800289E1,-8.371588707E0
3.598259531E0,-7.987242222E0,-1.729950905E1,-9.269196510E0
3.607973281E0,-6.227321148E0,-1.944946098E1,-8.354839325E0
3.617686302E0,-4.673780918E0,-2.092194366E1,-6.791429043E0
3.627400156E0,-3.452543974E0,-2.086212349E1,-5.043771267E0
3.637114740E0,-2.128714800E0,-1.962174416E1,-2.714358091E0
3.646828490E0,-9.819545746E-1,-1.781187248E1,-1.308874011E0
3.656541510E0,1.097707376E-1,-1.668664742E1,-4.926223755E-1
3.666255365E0,8.973084688E-1,-1.548485279E1,-7.366902828E-1
3.675970000E0,1.167996526E0,-1.365583897E1,-2.197209358E0
3.685683750E0,9.571290612E-1,-1.148435211E1,-4.457230568E0
3.695396771E0,4.570291340E-1,-9.147761345E0,-6.403492451E0
3.705110625E0,-5.054838061E-1,-6.576374054E0,-6.743572235E0
3.714825208E0,-1.331605792E0,-4.337888241E0,-5.970092297E0
3.724538958E0,-1.575673699E0,-2.865405083E0,-5.239982605E0
3.734251979E0,-1.077667475E0,-1.692323804E0,-4.457230568E0
3.743965833E0,-3.212364316E-1,-6.966105103E-1,-3.353540897E0
3.753680417E0,4.402793646E-1,-5.234299600E-2,-1.871486425E0
3.763394167E0,1.285244823E0,4.357928336E-1,-5.021936297E-1
3.773107187E0,1.610967875E0,1.190130115E0,2.665006220E-1
3.782821042E0,1.043569803E0,2.078166485E0,1.899302900E-1
3.792535625E0,-2.303091735E-1,2.904288530E0,-8.395816684E-1
3.802249375E0,-1.802991867E0,3.620041609E0,-2.187638044E0
3.811962396E0,-2.861217737E0,3.565006733E0,-2.814856768E0
3.821676250E0,-3.115155935E0,3.251247883E0,-2.884248495E0
3.831390885E0,-2.700898647E0,2.825325251E0,-2.903391123E0
3.841104635E0,-1.616351724E0,2.351247311E0,-3.023032188E0
3.850817656E0,-4.025924206E-1,1.750349760E0,-2.900998354E0
3.860531510E0,4.498506486E-1,9.266205430E-1,-2.381456852E0
3.870246094E0,1.086640596E0,-6.879365072E-3,-1.802094579E0
3.879959844E0,1.706680775E0,-9.861420393E-1,-1.440479279E0
3.889672865E0,2.171187401E0,-1.848156333E0,-1.088734269E0
3.899386719E0,2.604288340E0,-2.434697151E0,-8.802596331E-1
3.909101302E0,2.927618504E0,-2.626122952E0,-5.835496187E-1
3.918815052E0,2.953939438E0,-2.630908489E0,-5.309075117E-1
3.928528073E0,2.685943365E0,-2.640479803E0,-9.233304262E-1
3.938241927E0,2.113460541E0,-2.707478762E0,-9.281160831E-1
3.947956510E0,1.433599830E0,-2.264507532E0,-5.404788256E-1
3.957670260E0,7.250252366E-1,-2.271686077E0,-1.980060786E-1
3.967383281E0,2.318046987E-1,-2.525624275E0,2.377867550E-1
3.977097135E0,2.820539773E-1,-2.772084951E0,1.495514158E-2
3.986811719E0,5.168496966E-1,-2.616551638E0,-6.553342938E-1
3.996525469E0,4.498506486E-1,-1.967797518E0,-1.447657704E0
4.006238490E0,3.275175989E-1,-1.237687469E0,-3.113959551E0
4.015952344E0,-4.025924206E-1,-1.005284667E0,-5.172983646E0
4.025666927E0,-2.466402054E0,-1.469791293E0,-6.441777706E0
4.035380677E0,-4.714458942E0,-2.475374937E0,-5.833701611E0
4.045093698E0,-6.253642082E0,-5.022534847E0,-3.923331738E0
4.054807552E0,-7.494021416E0,-9.209974289E0,-3.164208889E0
4.064522135E0,-6.792325974E0,-1.260000610E1,-2.556132793E0
4.074235885E0,-4.965705395E0,-1.637079430E1,-2.874677420E0
4.083948906E0,-3.330509901E0,-2.351217461E1,-9.999606133E0
4.093662760E0,6.604190469E-1,-2.880330276E1,-1.877139473E1
4.103377344E0,4.328018188E0,-2.699073982E1,-1.693520164E1
4.113091094E0,3.624228954E0,-2.489851570E1,-1.025085258E1
4.122804115E0,1.455135226E0,-2.582723045E1,-5.204090118E0
4.132517969E0,-3.906283081E-1,-2.789343262E1,-4.347160339E0
4.142232552E0,-2.344068766E0,-2.851586533E1,-7.456932545E0
4.151946302E0,-5.018347263E0,-2.561905479E1,-9.063413620E0
4.161659323E0,-8.870492935E0,-2.356002998E1,-6.937391281E0
4.171373177E0,-1.155194950E1,-2.265045929E1,-5.206482887E0
4.181087760E0,-1.239691544E1,-2.211655998E1,-5.364409447E0
4.190801510E0,-1.174337578E1,-2.205434799E1,-8.124829292E0
4.200514531E0,-9.076275826E0,-2.184347916E1,-9.731310844E0
4.210228385E0,-6.074180126E0,-2.189133644E1,-8.977272034E0
4.219942969E0,-4.053740501E0,-2.142473602E1,-7.899903774E0
4.229656719E0,-3.318545818E0,-2.079003906E1,-6.781857491E0
4.239369740E0,-2.918645382E0,-2.011735725E1,-5.778666496E0
4.249083594E0,-2.291426897E0,-1.926042747E1,-5.105984211E0
4.258798177E0,-1.925324917E0,-1.795065689E1,-3.995116472E0
4.268511927E0,-1.616351724E0,-1.638036728E1,-2.709572554E0
4.278224948E0,-1.154237866E0,-1.477627850E1,-2.216351986E0
4.287938802E0,-6.514459848E-1,-1.303101349E1,-2.690429926E0
4.297653385E0,-1.369891018E-1,-1.115384388E1,-3.681357622E0
4.307367135E0,3.801597059E-1,-9.257830620E0,-4.385445595E0
4.317080156E0,1.024427176E0,-7.335197926E0,-4.275076866E0
4.326794010E0,1.433599830E0,-5.343472004E0,-4.301397800E0
4.336508594E0,1.371386528E0,-3.136093140E0,-4.902594566E0
4.346222344E0,1.223031521E0,-6.894320250E-1,-5.584847927E0
4.355935365E0,8.039883971E-1,1.960918188E0,-4.665405750E0
4.365649219E0,6.053841114E-1,4.043870449E0,-3.176172972E0
4.375363802E0,6.915257573E-1,4.039084435E0,-1.447657704E0
4.385077552E0,4.929214716E-1,3.706183195E0,3.406781256E-1
4.394790521E0,-3.834498227E-1,4.544269085E0,8.626125455E-1
4.404504375E0,-2.832503796E0,3.844966888E0,-6.242275834E-1
4.414218958E0,-4.130311012E0,2.451745987E0,-2.522633314E0
4.423932708E0,-3.481257915E0,1.546660781E0,-3.782155275E0
4.433645729E0,-2.243570328E0,4.166502357E-1,-4.165007114E0
4.443359583E0,-8.599206209E-1,-6.655037999E-1,-3.724428415E0
4.453074167E0,3.586242795E-1,-1.476969719E0,-2.707179785E0
4.462787917E0,1.376172066E0,-1.936690807E0,-1.806880236E0
4.472500937E0,2.152044773E0,-2.051546335E0,-1.040877819E0
4.482214792E0,2.635395050E0,-2.020439625E0,-2.793620527E-1
4.491929375E0,3.040081263E0,-1.989332914E0,2.952145040E-1
4.501643125E0,2.951546669E0,-1.886441588E0,6.110670567E-1
4.511356146E0,2.400898457E0,-1.728216171E0,7.139584422E-1
4.521070000E0,1.919641972E0,-1.682752490E0,5.392823815E-1
4.530784583E0,1.380957723E0,-1.637288928E0,2.090728730E-1
4.540498333E0,8.805587292E-1,-1.453041553E0,-2.937189937E-1
4.550211302E0,3.275175989E-1,-1.158425212E0,-8.300103545E-1
4.559925156E0,-5.054838061E-1,-7.875377536E-1,-1.287338614E0
4.569639740E0,-1.214058399E0,-2.991028428E-1,-1.651346684E0
4.579353490E0,-1.479960799E0,1.989033818E-1,-1.986341953E0
4.589066510E0,-1.606780410E0,5.102694035E-1,-2.038984060E0
4.598780365E0,-1.685743570E0,6.083751321E-1,-1.519741535E0
4.608494948E0,-1.891825438E0,4.118646085E-1,-5.620142221E-1
4.618208698E0,-1.882254124E0,-1.507478207E-1,1.298106313E-1
4.627921719E0,-1.274178028E0,-7.707880139E-1,8.673982322E-2
4.637635573E0,-5.246263742E-1,-1.402792215E0,-1.064806104E0
4.647350156E0,-9.269196987E-1,-2.118545294E0,-2.546561480E0
4.657063906E0,-2.346461773E0,-2.453839540E0,-5.982056618E0
4.666776875E0,-3.069692373E0,-5.091926575E0,-7.344470024E0
4.676490729E0,-2.437688112E0,-1.027059269E1,-1.081107140E1
4.686205312E0,-4.403092861E0,-1.431894970E1,-9.420243263E0
4.695919062E0,-5.315356255E0,-1.940878296E1,-6.295815468E0
4.705632083E0,-5.576174259E0,-2.699073982E1,-8.222934723E0
4.715345937E0,-2.265105724E0,-3.025395203E1,-8.362017632E0
4.725060521E0,1.998605132E0,-3.013431168E1,-8.639585495E0
4.734774271E0,2.815155745E0,-2.842972374E1,-1.015513897E1
4.744487240E0,5.766702294E-1,-2.594717026E1,-8.979664803E0
4.754201094E0,-2.013859272E0,-2.518804741E1,-6.628716946E0
4.763915677E0,-4.671388149E0,-2.402692986E1,-7.641180038E0
4.773629427E0,-6.421438694E0,-2.248027039E1,-9.915857315E0
4.783342448E0,-7.668697357E0,-2.154437637E1,-1.012642574E1
4.793056302E0,-9.119645119E0,-2.081875420E1,-7.799405575E0
4.802770885E0,-9.801898956E0,-2.018196297E1,-6.851249218E0
4.812484635E0,-8.954241753E0,-1.995943069E1,-7.452147007E0
4.822197604E0,-7.299903870E0,-1.999293137E1,-8.055437088E0
4.831911458E0,-5.624030590E0,-2.027049828E1,-7.993224144E0
4.841626042E0,-4.283451557E0,-2.056272125E1,-7.875975609E0
4.851339792E0,-3.522234917E0,-2.048615074E1,-7.720442295E0
4.861052812E0,-3.481257915E0,-2.022503471E1,-7.636394501E0
4.870766667E0,-3.464508057E0,-1.981586075E1,-6.860820770E0
4.880481250E0,-2.882753134E0,-1.920299911E1,-5.611168861E0
4.890194948E0,-2.212463617E0,-1.802004814E1,-4.416552544E0
4.899907969E0,-1.774278045E0,-1.644257927E1,-3.494717360E0
4.909621823E0,-1.477568030E0,-1.477867126E1,-2.558525562E0
4.919336406E0,-1.499103427E0,-1.304058456E1,-1.948056698E0
4.929050156E0,-1.877468467E0,-1.121366405E1,-2.115853310E0
4.938763177E0,-1.891825438E0,-9.475577354E0,-2.714358091E0
4.948476927E0,-1.357926846E0,-7.641777992E0,-2.905783892E0
4.958191562E0,-4.767699242E-1,-5.748157978E0,-2.474776745E0
4.967905312E0,2.676970363E-1,-4.019642830E0,-2.410170555E0
4.977618333E0,8.255237937E-1,-2.298007011E0,-3.085245609E0
4.987332187E0,1.041176915E0,-4.857429862E-1,-3.552145243E0
4.997046771E0,8.781659007E-1,1.209272742E0,-3.303291559E0
5.006760469E0,5.096712112E-1,2.336890459E0,-2.295315027E0
5.016473490E0,1.959123611E-1,2.497209549E0,-7.558328509E-1
5.026187344E0,1.480558962E-1,2.765504837E0,9.343972206E-1
5.035901927E0,-1.513460279E-1,3.445365429E0,1.930409670E0
5.045615677E0,-1.123131156E0,3.777967930E0,1.128215909E0
5.055328646E0,-2.720041037E0,3.483650684E0,-1.014556766E0
5.065042500E0,-4.415056705E0,1.680957913E0,-3.566502094E0
5.074757083E0,-4.199702740E0,6.299105883E-1,-4.986343384E0
5.084470833E0,-2.638685226E0,1.175474152E-1,-5.513063431E0
5.094183854E0,-7.307082415E-1,-9.693922997E-1,-5.041378021E0
5.103897604E0,7.154539824E-1,-1.936690807E0,-3.561716557E0
5.113612240E0,1.931606054E0,-2.611765862E0,-1.558026671E0
5.123325990E0,3.147758245E0,-2.788834810E0,3.837489188E-1
5.133039010E0,3.887738705E0,-2.585444927E0,1.987837434E0
5.142752865E0,3.880560160E0,-2.132902384E0,2.500200510E0
5.152467448E0,3.214757204E0,-1.567897081E0,1.731506228E0
5.162181146E0,2.149652004E0,-1.144068360E0,7.956135273E-2
5.171894167E0,8.566305041E-1,-7.372884750E-1,-1.735095501E0
5.181608021E0,-3.523431420E-1,-1.962114573E-1,-3.147459030E0
5.191322604E0,-1.300499082E0,1.103689447E-1,-3.767798424E0
5.201036354E0,-1.882254124E0,-2.841476910E-2,-3.406183004E0
5.210749323E0,-1.824826360E0,-3.732803464E-1,-2.144567251E0
5.220463177E0,-1.211665511E0,-8.234301209E-1,-4.639084935E-1
5.230177760E0,-5.030909777E-1,-1.091426253E0,1.214357495E0
5.239891510E0,2.123630047E-2,-1.261615753E0,2.129014015E0
5.249604479E0,4.642075896E-1,-1.426720500E0,2.679662228E0
5.259318333E0,9.020941257E-1,-1.472184181E0,2.684448004E0
5.269032917E0,7.657032609E-1,-1.730608940E0,3.933202326E-1
5.278746667E0,-6.011967063E-1,-2.468196630E0,-4.052544117E0
5.288459687E0,-2.329711914E0,-3.488137245E0,-8.053044319E0
5.298173437E0,-2.973979473E0,-5.824728489E0,-1.021496010E1
5.307888073E0,-3.641875982E0,-1.092173958E1,-1.535025597E1
5.317601823E0,-7.266404152E0,-1.687568092E1,-1.810589027E1
5.327314844E0,-9.619745255E0,-2.055075645E1,-1.100489044E1
5.337028594E0,-8.659924507E0,-2.481715965E1,-4.093222141E0
5.346743229E0,-4.424628258E0,-2.622234535E1,-3.623929977E0
5.356456979E0,-3.571287692E-1,-2.531726074E1,-3.818047523E0
5.366170000E0,1.263709426E0,-2.518804741E1,-8.158329010E0
5.375883750E0,6.963114142E-1,-2.411546516E1,-1.098335457E1
5.385598385E0,-1.966002941E0,-2.324178505E1,-9.058628082E0
5.395312135E0,-4.438984871E0,-2.284906387E1,-7.239185810E0
5.405025156E0,-6.148357868E0,-2.225534439E1,-6.147460461E0
5.414739010E0,-6.950551510E0,-2.173340988E1,-5.496313572E0
5.424453542E0,-7.896015644E0,-2.147259140E1,-6.276672840E0
5.434167292E0,-8.087740898E0,-2.150609207E1,-7.631608486E0
5.443880312E0,-7.460521698E0,-2.122583199E1,-8.362017632E0
5.453594167E0,-6.627221584E0,-2.096262169E1,-7.966903210E0
5.463308698E0,-5.616852283E0,-2.102244186E1,-7.789834023E0
5.473022448E0,-4.534698009E0,-2.084776688E1,-7.430611610E0
5.482735469E0,-3.962514400E0,-2.043111610E1,-6.638288021E0
5.492449323E0,-3.629911900E0,-1.982782555E1,-6.338886261E0
5.502163906E0,-3.438187122E0,-1.911895180E1,-5.615954876E0
5.511877604E0,-3.112763166E0,-1.833859253E1,-4.536193371E0
5.521590625E0,-2.466402054E0,-1.753669739E1,-3.528217077E0
5.531304375E0,-1.683350682E0,-1.649043655E1,-2.668894529E0
5.541019010E0,-8.838488460E-1,-1.533171177E1,-2.166102648E0
5.550732760E0,-3.164508045E-1,-1.384726429E1,-2.087139606E0
5.560445781E0,4.522434771E-1,-1.215224934E1,-2.838784933E0
5.570159635E0,1.151246786E0,-1.002622604E1,-4.224827290E0
5.579874167E0,1.663609982E0,-7.701598644E0,-5.424229622E0
5.589587917E0,2.175973177E0,-5.503791332E0,-5.848058701E0
5.599300937E0,2.618645191E0,-3.586242914E0,-5.354837894E0
5.609014687E0,2.889333248E0,-1.680359721E0,-4.617549419E0
5.618729323E0,3.004188776E0,-2.297109663E-1,-4.263112545E0
5.628443073E0,2.752942562E0,3.161516786E-1,-4.294219494E0
5.638156094E0,2.252543449E0,1.283450246E0,-2.917748213E0
5.647869844E0,1.031605721E0,2.523530483E0,-8.970093727E-1
5.657584479E0,-1.728814393E-1,2.583351135E0,5.608177781E-1
5.667298229E0,-1.216451168E0,2.638386011E0,1.559223056E0
5.677011250E0,-2.236391783E0,3.349652529E0,1.133001566E0
5.686725000E0,-3.189333439E0,3.402294636E0,-7.438687682E-1
5.696439635E0,-4.084847450E0,2.238784790E0,-2.539382935E0
5.706153385E0,-3.261118174E0,1.939382792E0,-3.070888758E0
5.715866354E0,-2.751147747E0,1.934597135E0,-2.642573595E0
5.725580208E0,-2.600399971E0,1.692921996E0,-1.974377751E0
5.735294792E0,-2.586043119E0,1.147059321E0,-1.684846282E0
5.745008542E0,-2.442473650E0,4.214358926E-1,-1.136590719E0
5.754721510E0,-1.901396751E0,-1.603191197E-1,-3.152543902E-1
5.764435365E0,-1.139880896E0,-6.197410822E-1,2.353939265E-1
5.774149948E0,-2.973082066E-1,-1.010070205E0,4.148556292E-1
5.783863698E0,4.666004181E-1,-1.283151150E0,1.776670814E-1
5.793576667E0,9.140582681E-1,-1.421934843E0,-3.224328458E-1
5.803290521E0,1.077069283E0,-1.441077471E0,-7.103692293E-1
5.813005104E0,9.308080077E-1,-1.354935765E0,-9.329017401E-1
5.822718854E0,6.125625968E-1,-1.122532964E0,-1.004985452E0
5.832431823E0,1.384846121E-1,-8.353942037E-1,-9.185447693E-1
5.842145677E0,-2.327020019E-1,-7.755736113E-1,-9.858429432E-1
5.851860260E0,-2.757728100E-1,-1.077069283E0,-1.256231904E0
5.861574010E0,-1.968096644E-1,-1.400399446E0,-1.107876897E0
5.871286979E0,-2.015953064E-1,-1.682752490E0,-1.908276081E-1
5.881000833E0,-3.427718580E-1,-2.199901342E0,6.972087026E-1
5.890715417E0,-5.988038778E-1,-2.839084148E0,4.052843451E-1
5.900429115E0,-4.552344978E-1,-3.873381615E0,-5.189434290E-1
5.910142135E0,7.627122104E-2,-5.566004753E0,-3.489931822E0
5.919855990E0,5.455635786E-1,-8.300103188E0,-1.207268715E1
5.929570573E0,-7.618148923E-1,-1.382812214E1,-2.102423668E1
5.939284271E0,-2.672184706E0,-2.000967979E1,-1.593679714E1
5.948997292E0,-4.642673969E0,-2.267199516E1,-5.647061348E0
5.958711146E0,-5.624030590E0,-2.381636238E1,-8.730512619E0
5.968425677E0,-5.952146530E0,-2.462304306E1,-1.439492226E1
5.978139427E0,-5.889933109E0,-2.561187553E1,-1.471107388E1
5.987852448E0,-3.854837179E0,-2.643530655E1,-1.459143257E1
5.997566302E0,-1.836790442E0,-2.578415871E1,-1.086849976E1
6.007280885E0,-1.324427366E0,-2.554248428E1,-5.893522263E0
6.016994583E0,-1.561316729E0,-2.532683182E1,-2.752643347E0
6.026707604E0,-3.651447296E0,-2.512344170E1,-2.915355206E0
6.036421458E0,-6.830611229E0,-2.256192398E1,-5.582455158E0
6.046135990E0,-8.846564293E0,-2.196072769E1,-8.009973526E0
6.055849740E0,-8.980562210E0,-2.205195427E1,-7.650751114E0
6.065562760E0,-7.558627605E0,-2.225295067E1,-6.915855408E0
6.075276510E0,-5.193322659E0,-2.202084732E1,-7.576573849E0
6.084991146E0,-2.373081923E0,-2.119233322E1,-7.978867054E0
6.094704896E0,-3.882354796E-1,-1.999053764E1,-7.523931503E0
6.104417917E0,6.191428751E-2,-1.856830406E1,-6.355636120E0
6.114131667E0,-3.308077157E-1,-1.716551208E1,-4.794618607E0
6.123846302E0,-9.675976634E-1,-1.585125351E1,-3.288934708E0
6.133560052E0,-1.542174220E0,-1.478584957E1,-2.158924341E0
6.143273073E0,-1.743171334E0,-1.401715469E1,-1.711167336E0
6.152986823E0,-1.808076620E0,-1.304537010E1,-1.957628012E0
6.162701458E0,-1.511067510E0,-1.172124195E1,-2.508276224E0
6.172415208E0,-5.341976285E-1,-9.861121178E0,-3.298506021E0
6.182128177E0,3.801597059E-1,-7.409674644E0,-4.581656933E0
6.191842031E0,5.790630579E-1,-4.677968502E0,-6.190531254E0
6.201556615E0,2.102692872E-1,-2.199901342E0,-6.274280071E0
6.211270365E0,-2.590230405E-1,-9.765707254E-1,-4.624728203E0
6.220983333E0,-3.332005441E-1,-3.230310678E-1,-2.771785975E0
6.230697187E0,1.480558962E-1,6.418746710E-1,-1.488335729E0
6.240411771E0,8.135597110E-1,1.159023523E0,-6.170491576E-1
6.250125521E0,1.304387450E0,1.752742529E0,1.441675574E-1
6.259838490E0,1.153639674E0,2.310569286E0,5.368895531E-1
6.269552344E0,4.304089844E-1,2.909074068E0,-1.645065546E-1
6.279266927E0,-4.863412082E-1,2.937788010E0,-2.170888424E0
6.288980677E0,-9.747761488E-1,1.517946839E0,-3.973581076E0
6.298693646E0,-5.629115105E-1,9.385846853E-1,-4.473979950E0
6.308407500E0,-2.638086975E-1,6.658028960E-1,-3.688536167E0
6.318122083E0,-1.489532143E-1,-4.277170449E-2,-2.297708035E0
6.327835781E0,-1.704886183E-2,-8.952147961E-1,-7.342974544E-1
6.337548802E0,2.294118702E-1,-9.239286184E-1,1.130608678E0
6.347262656E0,3.610171080E-1,-7.325028181E-1,2.588735104E0
6.356977240E0,8.638089895E-1,-6.125625968E-1,3.333201885E0
6.366690937E0,1.479063511E0,-6.149554253E-1,3.282952785E0
6.376403958E0,1.945963025E0,-9.574281573E-1,2.859123945E0
6.386117812E0,2.374577284E0,-1.273579836E0,1.947159410E0
6.395832396E0,2.379363060E0,-1.378864050E0,3.239283562E-1
6.405546094E0,1.840678811E0,-1.347757339E0,-1.234696507E0
6.415259115E0,1.053141117E0,-1.285543919E0,-2.161317110E0
6.424972969E0,7.866404206E-2,-1.065105200E0,-2.395813704E0
6.434687500E0,-7.067800164E-1,-9.526425004E-1,-2.422134638E0
6.444401250E0,-1.115952611E0,-1.163210869E0,-2.723929405E0
6.454114271E0,-1.089631557E0,-1.400399446E0,-3.137887716E0
6.463828021E0,-1.053739309E0,-1.704287887E0,-3.877868176E0
6.473542656E0,-1.226022482E0,-2.106581211E0,-4.421338081E0
6.483256406E0,-1.264606714E0,-2.623729944E0,-5.572884083E0
6.492969427E0,-1.415354609E0,-3.619742393E0,-8.024331093E0
6.502683177E0,-1.963610053E0,-5.357829094E0,-1.015035343E1
6.512397812E0,-2.327319145E0,-7.342376232E0,-8.641978264E0
6.522111562E0,-3.380759239E0,-1.101027393E1,-5.606383324E0
6.531824531E0,-5.420640469E0,-1.635883141E1,-3.394218922E0
6.541538385E0,-6.881159782E0,-1.934178352E1,-8.515457511E-1
6.551252969E0,-5.336891651E0,-2.078525352E1,1.295713425E0
6.560966719E0,-1.001097202E0,-2.352413940E1,-5.936593056E0
6.570679687E0,4.155734539E0,-2.416810608E1,-1.931965065E1
6.580393542E0,6.439683914E0,-2.357438850E1,-2.221646118E1
6.590108125E0,3.480659723E0,-2.338296127E1,-1.319551945E1
6.599821823E0,-1.511067510E0,-2.340928268E1,-3.145066261E0
6.609534844E0,-5.133202553E0,-2.366082764E1,2.308475733E0
6.619248698E0,-7.436593533E0,-2.260738754E1,1.800898194E0
6.628963281E0,-8.169096947E0,-2.005035782E1,-5.711667538E0
6.638676979E0,-8.836993217E0,-1.840559196E1,-1.205593777E1
6.648390000E0,-8.726922989E0,-1.800569153E1,-1.123490047E1
6.658103854E0,-8.231309891E0,-1.857069588E1,-7.358827114E0
6.667818385E0,-7.522735119E0,-1.941596031E1,-4.919344425E0
6.677532135E0,-6.600900173E0,-2.040718842E1,-5.438885689E0
6.687245156E0,-5.430212021E0,-2.066561317E1,-7.382755280E0
6.696958906E0,-4.434199333E0,-2.067757607E1,-7.919046402E0
6.706673542E0,-3.368795156E0,-2.036890221E1,-7.339684486E0
6.716387292E0,-2.394617319E0,-2.003600121E1,-6.468098640E0
6.726100260E0,-1.412961721E0,-2.011257172E1,-5.761917114E0
6.735814115E0,-4.887340367E-1,-2.020828438E1,-5.402694225E0
6.745528698E0,2.602194622E-2,-2.009821510E1,-5.287838936E0
6.755242448E0,7.130611539E-1,-1.686132431E1,-4.397409916E0
6.764955417E0,2.796611488E-1,-1.361994648E1,-4.098007679E0
6.774669271E0,-5.341976285E-1,-1.242772293E1,-4.643870354E0
6.784383854E0,-9.675976634E-1,-1.071565819E1,-4.418945312E0
6.794097552E0,-1.298106313E0,-8.654540062E0,-3.573680639E0
6.803810573E0,-8.575277925E-1,-6.688836575E0,-2.843570709E0
6.813524427E0,8.584251255E-2,-4.900500774E0,-2.611167669E0
6.823238958E0,1.048355460E0,-3.073879719E0,-2.410170555E0
6.832952708E0,1.768894196E0,-1.271187067E0,-2.055733681E0
6.842665729E0,1.977069736E0,-7.627122104E-2,-1.586740494E0
6.852379479E0,1.969891191E0,7.782655358E-1,-1.071984529E0
6.862094115E0,1.400100350E0,1.781456470E0,-5.045864582E-1
6.871807865E0,-6.969095767E-2,2.607279301E0,-2.578266263E-1
6.881520833E0,-1.649851203E0,2.985644341E0,-9.305089116E-1
6.891234687E0,-3.146262646E0,3.342474222E0,-2.132603168E0
6.900949271E0,-4.664209366E0,3.282354355E0,-3.461217880E0
6.910662969E0,-4.908277512E0,2.109273195E0,-4.021437645E0
6.920375990E0,-3.253939629E0,1.123131156E0,-3.669393539E0
6.930089844E0,-1.601994753E0,2.252244353E-1,-2.999104023E0
6.939804375E0,-2.853440940E-1,-7.277171612E-1,-2.448455811E0
6.949518125E0,6.675975323E-1,-1.541576028E0,-1.890628934E0
6.959231146E0,1.412064433E0,-1.974975944E0,-1.177268744E0
6.968944896E0,1.785643935E0,-1.924726725E0,-2.554338276E-1
6.978659531E0,1.800000787E0,-1.711466432E0,4.746761918E-1
6.988373281E0,1.752144337E0,-1.467398524E0,8.051848412E-1
6.998086250E0,1.630110383E0,-1.158425212E0,8.051848412E-1
7.007800104E0,1.428814173E0,-7.947162390E-1,6.756733060E-1
7.017514687E0,1.165603757E0,-4.809573591E-1,4.938187599E-1
7.027228385E0,9.762716293E-1,-3.397808075E-1,2.497508675E-1
7.036941406E0,1.010070205E0,-3.230310678E-1,-2.093719877E-2
7.046655260E0,1.096211910E0,-3.134597540E-1,-2.051845491E-1
7.056369792E0,1.189531922E0,-4.450650215E-1,-2.578266263E-1
7.066083542E0,9.834501147E-1,-6.221339107E-1,-2.003988922E-1
7.075796562E0,2.557329237E-1,-6.631109715E-1,1.489532143E-1
7.085510312E0,-6.107679605E-1,-6.750751138E-1,4.698905349E-1
7.095224948E0,-1.044167995E0,-7.803592682E-1,3.143570721E-1
7.104938698E0,-1.170987606E0,-1.029212832E0,-3.176472187E-1
7.114651667E0,-1.132702470E0,-1.424327731E0,-1.866700768E0
7.124365521E0,-1.968395710E0,-2.415554523E0,-3.308077335E0
7.134080104E0,-2.935694218E0,-3.538386583E0,-5.017449856E0
7.143793802E0,-2.478366137E0,-6.291627884E0,-7.670193195E0
7.153506823E0,-2.842075109E0,-1.194407368E1,-1.073450184E1
7.163220573E0,-4.491627216E0,-1.805624008E1,-8.469695091E0
7.172935208E0,-5.784648895E0,-2.184587288E1,-3.930510283E0
7.182648958E0,-5.427819252E0,-2.400060844E1,-3.044567823E0
7.192361927E0,-3.603590965E0,-2.186262321E1,-4.196113586E0
7.202075781E0,-3.622733593E0,-2.399582291E1,-5.517848969E0
7.211790365E0,-1.925324917E0,-2.866900635E1,-9.712167740E0
7.221504062E0,8.398807645E-1,-3.063949585E1,-1.566401482E1
7.231217083E0,9.284151793E-1,-2.953819847E1,-1.265205002E1
7.240930833E0,-3.068794906E-1,-2.820719147E1,-4.033401489E0
7.250645469E0,-2.305783749E0,-2.864268494E1,-1.118644550E-1
7.260359219E0,-4.371985912E0,-2.665574455E1,-1.241874933E0
7.270072187E0,-6.581758022E0,-2.333032036E1,-5.409873009E0
7.279786042E0,-8.365307808E0,-2.170948219E1,-8.574978828E0
7.289500625E0,-1.015842915E1,-2.049093628E1,-8.819346428E0
7.299214375E0,-1.125254726E1,-1.934896278E1,-8.783154488E0
7.308927344E0,-1.074975586E1,-1.885813522E1,-8.946166039E0
7.318641198E0,-8.571390152E0,-1.852762604E1,-8.910273552E0
7.328355729E0,-6.033502102E0,-1.841755676E1,-8.467302322E0
7.338069479E0,-3.629911900E0,-1.843430519E1,-7.073781967E0
7.347782500E0,-1.278963685E0,-1.857548141E1,-5.034199715E0
7.357496250E0,8.327022791E-1,-1.837927055E1,-2.541775942E0
7.367210885E0,2.154437780E0,-1.756780434E1,-7.223333120E-1
7.376924635E0,2.992224693E0,-1.610250092E1,-2.195414752E-1
7.386637604E0,3.585943937E0,-1.402194023E1,-9.089735150E-1
7.396351458E0,3.087937593E0,-1.159202957E1,-2.017448664E0
7.406065990E0,2.568396091E0,-9.355937004E0,-2.379063845E0
7.415779740E0,1.991426587E0,-7.325626373E0,-2.738286495E0
7.425492760E0,1.060319543E0,-5.238187790E0,-3.391826153E0
7.435206510E0,2.868396044E-1,-3.040380239E0,-4.304089546E0
7.444921146E0,6.191428751E-2,-9.000003934E-1,-4.418945312E0
7.454634844E0,4.689932466E-1,1.300199986E0,-4.016652107E0
7.464347865E0,4.594219327E-1,2.066202402E0,-2.879462957E0
7.474061615E0,-3.092723191E-1,2.332104683E0,-3.777668774E-1
7.483776250E0,-6.972087026E-1,4.259224415E0,6.349952817E-1
7.493490000E0,-1.362712502E0,5.035097122E0,-1.131805062E0
7.503202969E0,-2.803789854E0,4.529912472E0,-3.707678795E0
7.512916823E0,-3.842873096E0,2.944966555E0,-4.304089546E0
7.522631406E0,-2.669791937E0,2.327319145E0,-4.143471718E0
7.532345104E0,-1.494317770E0,1.293021560E0,-3.434896946E0
7.542058125E0,-8.120641708E-1,1.630110443E-1,-1.751845241E0
7.551771979E0,-9.840483218E-2,-8.760721684E-1,-8.611170650E-1
7.561486510E0,6.987041831E-1,-1.433898926E0,-3.559323549E-1
7.571200260E0,1.483849168E0,-1.764407635E0,4.483551383E-1
7.580913229E0,2.144866467E0,-1.970190287E0,1.231107235E0
7.590627083E0,2.228615284E0,-1.773978829E0,1.561615825E0
7.600341667E0,2.020140409E0,-1.335793257E0,1.243071318E0
7.610055365E0,1.591825247E0,-9.957132936E-1,6.469594240E-1
7.619768385E0,1.211067319E0,-6.388836503E-1,2.138585299E-1
7.629482240E0,9.523434043E-1,-5.144568682E-1,2.330010980E-1
7.639196771E0,6.317051649E-1,-4.307080805E-1,5.464608669E-1
7.648910521E0,-4.815555736E-2,-3.206382394E-1,8.721838593E-1
7.658623490E0,-9.053842425E-1,-1.339980662E-1,9.032905698E-1
7.668337344E0,-1.525424480E0,5.533402413E-2,3.430709541E-1
7.678051927E0,-1.640279889E0,5.533402413E-2,-5.356931686E-1
7.687765625E0,-1.400997639E0,-4.037888348E-2,-1.272981644E0
7.697478646E0,-1.056132078E0,-1.172483116E-1,-1.670489311E0
7.707192396E0,-7.139584422E-1,-5.312066078E-1,-1.881057739E0
7.716907031E0,-1.609173268E-1,-1.374078393E0,-3.765405416E0
7.726620781E0,-9.867402315E-1,-2.556730986E0,-5.826523304E0
7.736333750E0,-2.803789854E0,-3.258127213E0,-1.099531937E1
7.746047604E0,-3.019443035E0,-6.042475224E0,-1.166590786E1
7.755762187E0,-2.877967358E0,-1.146042442E1,-7.442575932E0
7.765475885E0,-4.003192425E0,-1.536999702E1,-7.435397148E0
7.775188906E0,-4.901099205E0,-1.910459518E1,-4.971986294E0
7.784902656E0,-4.252345085E0,-2.530529594E1,-7.131508827E0
7.794617292E0,6.029912829E-1,-2.936591530E1,-1.657119370E1
7.804331042E0,2.396112680E0,-2.766132927E1,-9.314660072E0
7.814044010E0,2.202294111E0,-2.785036278E1,-4.359124660E0
7.823757865E0,8.135597110E-1,-2.666531563E1,-5.974878311E0
7.833472396E0,-2.049751759E0,-2.485305214E1,-6.923034191E0
7.843186146E0,-5.375176907E0,-2.439333153E1,-5.821737289E0
7.852899167E0,-7.278368473E0,-2.412503624E1,-4.531407833E0
7.862612917E0,-7.551449299E0,-2.302613258E1,-4.035794258E0
7.872327552E0,-7.723732471E0,-2.205195427E1,-5.187340260E0
7.882041302E0,-7.663911819E0,-2.128326035E1,-6.678966045E0
7.891754271E0,-7.589734554E0,-2.067279053E1,-7.342077255E0
7.901468125E0,-7.074978352E0,-2.063689804E1,-8.534300804E0
7.911182656E0,-5.612066269E0,-2.099851418E1,-9.314660072E0
7.920896406E0,-3.711267948E0,-2.093869400E1,-8.618049622E0
7.930609375E0,-2.248355865E0,-2.040240288E1,-7.610073090E0
7.940323229E0,-1.214058399E0,-1.982782555E1,-6.645466805E0
7.950037812E0,-8.096713424E-1,-1.921735764E1,-5.556134224E0
7.959751510E0,-2.853440940E-1,-1.855873299E1,-4.243969917E0
7.969464531E0,-1.175474152E-1,-1.758455467E1,-2.743072033E0
7.979178385E0,-4.935196638E-1,-1.603789330E1,-1.950449586E0
7.988892917E0,-1.027418256E0,-1.406261826E1,-2.050948143E0
7.998606667E0,-1.288534999E0,-1.192253780E1,-2.491526604E0
8.008319635E0,-1.032203913E0,-9.810872078E0,-2.762214661E0
8.018033490E0,-1.393819153E-1,-7.747062206E0,-2.103889227E0
8.027748073E0,5.527420044E-1,-5.839085579E0,-2.647359133E0
8.037461771E0,1.373779297E0,-3.832703590E0,-3.882653952E0
8.047174792E0,2.175973177E0,-1.752144337E0,-4.232006073E0
8.056888542E0,2.786442041E0,3.616153300E-1,-3.784548044E0
8.066603177E0,3.052045345E0,2.248355865E0,-3.015853882E0
8.076316927E0,2.228615284E0,3.375973701E0,-2.335993052E0
8.086029896E0,1.289133132E-1,3.804288864E0,-2.405385017E0
8.095743750E0,-2.983550787E0,3.801896095E0,-3.075674295E0
8.105458333E0,-5.978467464E0,3.098107100E0,-3.209971666E0
8.115172031E0,-6.026323795E0,2.190928221E0,-3.420539856E0
8.124885052E0,-4.297808647E0,1.068096161E0,-3.604787350E0
8.134598802E0,-2.044965982E0,-6.669992954E-2,-3.209971666E0
8.144313437E0,-1.151545867E-1,-9.119645357E-1,-1.696810365E0
8.154027187E0,1.280459166E0,-1.333400369E0,-9.272187948E-2
8.163740156E0,2.096710920E0,-1.393221021E0,1.013360381E0
8.173454010E0,2.144866467E0,-1.069890857E0,1.358225942E0
8.183168542E0,1.471885085E0,-5.335994363E-1,1.010967612E0
8.192882292E0,8.422735929E-1,-1.166501082E-2,4.339981973E-1
8.202595260E0,3.921238184E-1,2.300100774E-1,1.974078640E-2
8.212309115E0,-1.776670814E-1,2.515454888E-1,3.888336942E-2
8.222023698E0,-7.139584422E-1,1.845464408E-1,2.691925503E-2
8.231737396E0,-8.503493667E-1,1.199402362E-1,-2.147558331E-1
8.241450417E0,-7.019943595E-1,-1.148554832E-1,-3.801597059E-1
8.251164167E0,-6.155536175E-1,-4.426721931E-1,-9.750752151E-2
8.260878802E0,-2.829512656E-1,-7.277171612E-1,6.999006122E-2
8.270592552E0,1.265204996E-1,-1.050748229E0,-7.597211748E-2
8.280305521E0,3.203391433E-1,-1.366899967E0,-2.817548811E-1
8.290019375E0,4.280161560E-1,-1.632503271E0,-5.715855360E-1
8.299733958E0,3.562314808E-1,-1.936690807E0,-5.811567903E-1
8.309447656E0,3.155534863E-1,-2.516052961E0,-1.621137410E-1
8.319160677E0,9.571290612E-1,-2.908775091E0,-1.459621787E0
8.328874427E0,4.402793646E-1,-2.999702215E0,-4.619942188E0
8.338589062E0,-1.949253201E0,-3.076272726E0,-1.055982590E1
8.348302812E0,-3.024228811E0,-4.845465660E0,-9.690632820E0
8.358015781E0,-3.737588882E0,-9.925727844E0,-1.481157184E0
8.367729635E0,-3.790230989E0,-1.343061447E1,2.282154560E-1
8.377444167E0,-4.434199333E0,-1.590389538E1,1.832004786E0
8.387157917E0,-7.826623917E0,-1.955235291E1,-1.318355560E1
8.396870885E0,-4.633102894E0,-2.293999100E1,-2.604228592E1
8.406584740E0,-3.547359705E-1,-2.716093063E1,-1.012642574E1
8.416299323E0,2.123331070E0,-3.334966660E1,-8.730811477E-1
8.426013021E0,4.589134693E0,-3.349802017E1,-3.171387196E0
8.435726042E0,3.404089212E0,-2.943052292E1,-1.127557850E1
8.445439792E0,-1.322034448E-1,-2.604049110E1,-1.066510963E1
8.455154427E0,-3.084049225E0,-2.515933418E1,-4.840082169E0
8.464868177E0,-5.751149178E0,-2.316042900E1,-3.279363394E0
8.474581146E0,-8.140382767E0,-2.162334061E1,-4.825725079E0
8.484295000E0,-9.052347183E0,-2.079961014E1,-6.259922981E0
8.494009583E0,-8.808279037E0,-2.013410759E1,-6.109175205E0
8.503723281E0,-6.914659023E0,-2.040479469E1,-5.572884083E0
8.513436302E0,-4.252345085E0,-2.120190430E1,-6.384349823E0
8.523150052E0,-1.841576099E0,-2.184587288E1,-7.102495670E0
8.532864687E0,-2.255235314E-1,-2.188655090E1,-7.013961315E0
8.542578437E0,2.964109182E-1,-2.134786606E1,-5.800201893E0
8.552291406E0,3.466601670E-1,-2.010539246E1,-3.873082638E0
8.562005260E0,-2.901297435E-2,-1.859941101E1,-2.589632273E0
8.571719792E0,-8.216354847E-1,-1.660050583E1,-2.654537678E0
8.581433542E0,-1.733600020E0,-1.437877083E1,-3.279363394E0
8.591146562E0,-2.205285072E0,-1.207567883E1,-3.456432343E0
8.600860312E0,-1.750349760E0,-1.001665497E1,-3.063710213E0
8.610574948E0,-9.771689177E-1,-8.079963684E0,-2.517847538E0
8.620288646E0,-4.025924206E-1,-5.994618893E0,-2.359921217E0
8.630001667E0,-3.260220885E-1,-3.629313707E0,-2.283350945E0
8.639715417E0,-1.034596682E0,-9.885348678E-1,-2.173281193E0
8.649430052E0,-1.906182289E0,1.513161182E0,-2.345564365E0
8.659143802E0,-2.059323072E0,3.361616611E0,-2.288136721E0
8.668856771E0,-1.592423439E0,4.067798615E0,-1.888236165E0
8.678570625E0,-1.357926846E0,4.275974274E0,-1.806880236E0
8.688285208E0,-1.786242127E0,4.130012035E0,-2.218744755E0
8.697998906E0,-2.289033890E0,3.232105255E0,-2.486740828E0
8.707711927E0,-2.631506681E0,1.793420553E0,-2.161317110E0
8.717425677E0,-2.662613392E0,7.950153351E-1,-1.747059584E0
8.727140312E0,-1.987538338E0,-2.440679073E-1,-1.632204175E0
8.736854062E0,-1.044167995E0,-1.297508121E0,-1.598704576E0
8.746567031E0,-3.140579760E-1,-1.800299883E0,-1.371087432E0
8.756280885E0,5.335994363E-1,-2.120938063E0,-7.845467329E-1
8.765995417E0,1.368993640E0,-2.185544491E0,-2.769692242E-1
8.775709167E0,2.149652004E0,-1.884048700E0,5.383851007E-3
8.785422187E0,2.384148598E0,-1.280758262E0,2.353939265E-1
8.795135937E0,2.197508574E0,-8.186444640E-1,3.622135222E-1
8.804850573E0,1.783251047E0,-4.570291340E-1,3.023929596E-1
8.814564271E0,1.182353497E0,-1.698904037E-1,1.226321608E-1
8.824277292E0,7.968099117E-1,-9.332008660E-2,-1.549352705E-1
8.833991042E0,6.843472719E-1,-3.326023519E-1,-5.596213937E-1
8.843705677E0,6.101697683E-1,-7.061817646E-1,-1.150947690E0
8.853419427E0,7.250252366E-1,-1.081854939E0,-1.806880236E0
8.863132396E0,9.140582681E-1,-1.455434322E0,-2.314457655E0
8.872846250E0,6.364908218E-1,-1.534397483E0,-2.477169752E0
8.882560781E0,2.318046987E-1,-1.527219057E0,-2.331207514E0
8.892274531E0,-7.447660714E-2,-1.563111424E0,-1.737488389E0
8.901987500E0,-2.111666054E-1,-1.666002750E0,-1.172483087E0
8.911701354E0,-2.925225794E-1,-1.735394597E0,-9.305089116E-1
8.921415937E0,-8.240283132E-1,-1.754537225E0,-2.268994093E0
8.931129635E0,-2.803789854E0,-2.058724880E0,-2.458027124E0
8.940842656E0,-3.940979004E0,-2.638087034E0,-4.801796913E0
8.950556406E0,-4.170989037E0,-6.914061069E0,-3.733999729E0
8.960271042E0,-5.142774105E0,-1.154178047E1,-6.736393929E0
8.969984792E0,-4.357629299E0,-1.505145264E1,-1.009292603E1
8.979697760E0,-5.317749023E0,-2.052682877E1,-9.910772324E0
8.989411615E0,-5.356034279E0,-2.635873604E1,-1.227159119E1
8.999126146E0,-2.241177559E0,-2.799153900E1,-1.909771562E0
9.008839896E0,1.718644857E0,-2.995245743E1,4.690829754E0
9.018552865E0,5.900999546E0,-2.891337395E1,-2.776571512E0
9.028266719E0,5.003392220E0,-2.633959389E1,-8.694620132E0
9.037981302E0,4.160520434E-1,-2.605245399E1,-5.637490273E0
9.047695000E0,-4.910670280E0,-2.586312294E1,-1.510170221E0
9.057408021E0,-8.681459427E0,-2.498944283E1,-3.346362352E0
9.067121771E0,-1.105394363E1,-2.417049980E1,-7.820940971E0
9.076836406E0,-1.152084255E1,-2.367997169E1,-1.088524914E1
9.086550156E0,-9.809077263E0,-2.432154655E1,-1.130189991E1
9.096263125E0,-5.389533997E0,-2.548744965E1,-1.091874886E1
9.105976979E0,-1.767099500E0,-2.591127777E1,-1.060528946E1
9.115691510E0,-3.786641955E-1,-2.494397926E1,-9.755238533E0
9.125405260E0,-8.527421951E-1,-2.303330994E1,-7.701299667E0
9.135118229E0,-2.475973129E0,-2.081875420E1,-5.055735111E0
9.144832083E0,-3.682554007E0,-1.881506348E1,-4.153042793E0
9.154546667E0,-4.403092861E0,-1.663161278E1,-4.086043835E0
9.164260365E0,-4.450949192E0,-1.442901993E1,-3.913760424E0
9.173973385E0,-3.048156977E0,-1.249472141E1,-3.063710213E0
9.183687135E0,-1.499103427E0,-1.048355389E1,-1.811665893E0
9.193401771E0,-3.643072546E-1,-8.458029747E0,-9.906286001E-1
9.203115521E0,5.910272002E-1,-6.341877460E0,-7.701897621E-1
9.212828490E0,1.409671664E0,-4.368995190E0,-1.019342422E0
9.222542344E0,2.554039001E0,-2.662015200E0,-1.658525229E0
9.232256875E0,3.583550930E0,-1.244866014E0,-1.995913148E0
9.241970625E0,3.945166349E0,2.012962103E-1,-2.134995937E0
9.251683594E0,3.447160006E0,1.762313843E0,-2.178066730E0
9.261397448E0,1.828714728E0,1.829312921E0,-1.469193101E0
9.271111979E0,-9.580263495E-1,1.505982757E0,-5.356931686E-1
9.280825729E0,-2.746362209E0,2.291426897E0,-2.865405083E-1
9.290538750E0,-3.929014683E0,2.751147747E0,-9.161519408E-1
9.300252500E0,-5.035097122E0,2.262712955E0,-1.936092615E0
9.309967135E0,-4.735994339E0,1.522732496E0,-2.383849621E0
9.319680833E0,-2.856431961E0,7.088736892E-1,-2.257030010E0
9.329393854E0,-1.058524966E0,-2.679961324E-1,-1.773380637E0
9.339107604E0,6.819544435E-1,-1.307079315E0,-1.186840057E0
9.348822240E0,1.833500385E0,-1.805085540E0,-3.487538993E-1
9.358535937E0,2.149652004E0,-1.797907114E0,-5.922235921E-2
9.368248958E0,2.003390789E0,-1.510469317E0,-9.511470050E-2
9.377962708E0,1.443171144E0,-1.086640596E0,-1.615155302E-2
9.387677344E0,7.130611539E-1,-4.259224236E-1,-3.050848842E-2
9.397391094E0,8.105687052E-2,1.558325738E-1,-2.434697002E-1
9.407104062E0,-3.786641955E-1,5.030909777E-1,-3.272185028E-1
9.416817917E0,-6.562315822E-1,6.442674994E-1,-1.884347796E-1
9.426532448E0,-7.259225845E-1,6.107679605E-1,2.931207791E-2
9.436246198E0,-3.930211067E-1,3.472583890E-1,4.531407952E-1
9.445959167E0,-1.393819153E-1,2.324029058E-1,4.507479668E-1
9.455673021E0,-9.870393202E-3,1.007976532E-1,-6.879365444E-2
9.465387552E0,-9.840483218E-2,-2.009970993E-1,-1.000199914E0
9.475101302E0,3.559323773E-2,-5.479564071E-1,-1.660917997E0
9.484814271E0,5.479564071E-1,-9.765707254E-1,-1.644168258E0
9.494528125E0,7.513462901E-1,-1.493719578E0,-1.366301775E0
9.504242708E0,8.805587292E-1,-2.149652004E0,-2.491526604E0
9.513956406E0,9.044869542E-1,-2.729014158E0,-7.196115017E0
9.523669427E0,-6.346961856E-1,-3.803989887E0,-8.412266731E0
9.533383177E0,-1.585245013E0,-5.494219780E0,-9.733703613E0
9.543097812E0,-2.286641121E0,-9.765408516E0,-2.465205431E0
9.552811510E0,-4.383950233E0,-1.359123230E1,-4.187439568E-3
9.562524531E0,-2.945265532E0,-1.611685753E1,-6.274280071E0
9.572238281E0,-1.175773263E0,-2.031386757E1,-1.271426296E1
9.581952917E0,-3.632304668E0,-2.634437943E1,-1.815374756E1
9.591666615E0,1.432702541E-1,-2.727578545E1,-1.143111229E1
9.601379635E0,5.288137794E-1,-3.022523880E1,5.775077343E0
9.611093385E0,-1.036989570E0,-2.990220642E1,1.118644595E0
9.620808021E0,-2.602792740E0,-2.468286324E1,-6.927819729E0
9.630521771E0,-4.781457901E0,-2.257867432E1,-9.104091644E0
9.640234740E0,-6.395117760E0,-2.204238319E1,-6.291029930E0
9.649948490E0,-7.620841026E0,-2.291127586E1,-7.741977692E0
9.659663125E0,-7.472486019E0,-2.349303246E1,-8.254341125E0
9.669376875E0,-7.201797962E0,-2.381636238E1,-6.927819729E0
9.679089844E0,-5.434997559E0,-2.418007088E1,-6.767500877E0
9.688803698E0,-3.527020693E0,-2.373022079E1,-7.792226791E0
9.698518229E0,-3.045764208E0,-2.276292229E1,-9.527920723E0
9.708231979E0,-3.988835335E0,-2.141755676E1,-1.011206818E1
9.717944948E0,-5.415854931E0,-2.012214279E1,-8.491230011E0
9.727658802E0,-6.670292377E0,-1.887966919E1,-6.520740986E0
9.737373333E0,-6.830611229E0,-1.744068527E1,-6.145067692E0
9.747087083E0,-5.473282814E0,-1.587039661E1,-5.687739372E0
9.756800052E0,-3.589233875E0,-1.471406460E1,-4.813760757E0
9.766513906E0,-1.544566989E0,-1.351197052E1,-3.717249870E0
9.776228490E0,1.384846121E-1,-1.195364475E1,-2.829213619E0
9.785942187E0,1.270887971E0,-1.015065289E1,-2.111067772E0
9.795655156E0,1.737787485E0,-8.094321251E0,-1.627418518E0
9.805369010E0,1.737787485E0,-6.289235115E0,-1.366301775E0
9.815083594E0,1.316351533E0,-4.440779686E0,-1.349551916E0
9.824797292E0,1.000499010E0,-2.501696110E0,-2.352742910E0
9.834510312E0,8.518448472E-1,-2.799602449E-1,-4.196113586E0
9.844224062E0,1.091426253E0,1.791027784E0,-5.761917114E0
9.853938698E0,1.596610904E0,3.287140131E0,-5.376373291E0
9.863652396E0,2.154437780E0,3.864408493E0,-3.623929977E0
9.873365417E0,2.149652004E0,3.093321562E0,-1.804487348E0
9.883079167E0,1.096211910E0,1.537089467E0,-6.625127792E-1
9.892793802E0,-7.737790346E-1,6.227321029E-1,1.016949583E-2
9.902507500E0,-2.097608089E0,4.214358926E-1,-3.367897868E-1
9.912220521E0,-2.815753937E0,1.127617657E-1,-1.510170221E0
9.921934271E0,-3.318545818E0,1.247258782E-1,-2.273779631E0
9.931648906E0,-3.182155132E0,2.691925503E-3,-2.209173441E0
9.941362604E0,-2.269891262E0,-3.421736360E-1,-1.768594980E0
9.951075625E0,-1.103988528E0,-6.415755749E-1,-1.227517962E0
9.960789375E0,2.006980032E-1,-1.089033365E0,-1.057627559E0
9.970504010E0,1.567897081E0,-1.508076429E0,-1.083948612E0
9.980217708E0,2.446362019E0,-1.666002750E0,-1.198804140E0
9.989930729E0,2.815155745E0,-1.579861164E0,-1.186840057E0
9.999644479E0,2.685943365E0,-1.352542996E0,-9.185447693E-1
1.000935912E1,2.041675806E0,-1.129711390E0,-4.280161560E-1
1.001907281E1,1.091426253E0,-1.045962572E0,8.913264424E-2
1.002878583E1,4.522434771E-1,-1.036391258E0,5.895316601E-1
1.003849958E1,4.037888348E-2,-1.108175993E0,9.080761671E-1
1.004821422E1,-4.217349887E-1,-1.017248750E0,9.631111026E-1
1.005792792E1,-8.072785139E-1,-7.205387354E-1,6.373881102E-1
1.006764094E1,-1.099202871E0,-3.254238665E-1,2.545365095E-1
1.007735469E1,-9.340981245E-1,-3.254238665E-1,8.434699476E-2
1.008706932E1,-8.575277925E-1,-2.919243574E-1,-7.295117974E-1
1.009678302E1,-1.604387641E0,-7.061817646E-1,-3.643072367E0
1.010649604E1,-2.464009047E0,-1.656431437E0,-7.698906898E0
1.011620979E1,-1.606780410E0,-3.756133318E0,-1.029870892E1
1.012592443E1,-1.633101463E0,-8.812466621E0,-6.173781395E0
1.013563812E1,-2.552543640E0,-1.310040474E1,-6.643074036E0
1.014535115E1,-2.686541557E0,-1.764437485E1,-6.391528606E0
1.015506490E1,-2.933301449E0,-2.466372108E1,-9.113663673E0
1.016477953E1,-7.905287743E-1,-3.130260658E1,-1.430399513E1
1.017449323E1,8.823533356E-2,-3.119732285E1,-7.921439171E0
1.018420625E1,9.714859724E-1,-3.038316536E1,-5.113162994E0
1.019392000E1,2.427219391E0,-2.796282387E1,-3.758227110E0
1.020363464E1,1.469492197E0,-2.570280266E1,-2.388635159E0
1.021334833E1,-1.286142230E0,-2.497987175E1,-4.253541470E0
1.022306135E1,-4.458127499E0,-2.399103737E1,-5.814558983E0
1.023277510E1,-7.259225845E0,-2.378525543E1,-5.287838936E0
1.024248974E1,-9.421140671E0,-2.380439758E1,-5.065306664E0
1.025220344E1,-1.063968563E1,-2.412742805E1,-5.187340260E0
1.026191646E1,-9.971789360E0,-2.394318199E1,-6.082854271E0
1.027163021E1,-7.302296638E0,-2.309103775E1,-7.698906898E0
1.028134484E1,-4.058526516E0,-2.202324104E1,-8.254341125E0
1.029105854E1,-1.151844978E0,-2.091955185E1,-7.001997471E0
1.030077156E1,9.451649189E-1,-1.976082611E1,-5.158626556E0
1.031048531E1,1.778465390E0,-1.822612953E1,-3.466003656E0
1.032019995E1,1.129711390E0,-1.643779373E1,-1.888236165E0
1.032991365E1,-4.289134443E-1,-1.440269852E1,-5.500500798E-1
1.033962662E1,-1.783849239E0,-1.221446228E1,-1.118644550E-1
1.034934047E1,-2.387438774E0,-1.012193871E1,-9.954141974E-1
1.035905505E1,-2.109572172E0,-8.338388443E0,-2.324028969E0
1.036876875E1,-1.206879973E0,-6.930810928E0,-2.948854923E0
1.037848172E1,-1.103689447E-1,-5.458327770E0,-2.767000198E0
1.038819557E1,8.494520187E-1,-3.803989887E0,-2.783750057E0
1.039791010E1,1.843071699E0,-1.785943031E0,-3.353540897E0
1.040762385E1,2.307578325E0,5.318048596E-1,-3.846761465E0
1.041733682E1,2.350649118E0,2.289033890E0,-3.207578659E0
1.042705068E1,2.091925144E0,2.372782707E0,-1.811665893E0
1.043676521E1,1.110568762E0,2.832503796E0,-6.146563292E-1
1.044647896E1,-2.925225794E-1,3.426223040E0,-7.510471940E-1
1.045619193E1,-2.645863533E0,2.612065077E0,-8.826524615E-1
1.046590578E1,-3.850051641E0,1.774278045E0,-1.249053478E0
1.047562031E1,-2.950051308E0,8.668000102E-1,-3.061317444E0
1.048533406E1,-8.670991063E-1,-4.354937077E-1,-4.579264164E0
1.049504703E1,1.187139153E0,-1.785943031E0,-4.679762840E0
1.050476078E1,2.432005167E0,-2.803191662E0,-3.578466177E0
1.051447542E1,3.097508907E0,-3.387339592E0,-2.000698805E0
1.052418912E1,3.181257725E0,-3.320340633E0,-6.481558084E-1
1.053390214E1,2.786442041E0,-2.669193745E0,3.669991791E-1
1.054361589E1,2.257328987E0,-1.934298038E0,1.228714466E0
1.055333052E1,1.498206019E0,-1.036391258E0,1.803290963E0
1.056304422E1,6.149554253E-1,-2.608176768E-1,1.781755567E0
1.057275724E1,-2.542374134E-1,3.640081584E-1,1.367797256E0
1.058247099E1,-9.843474030E-1,8.285148144E-1,6.062814593E-1
1.059218562E1,-1.496710539E0,1.068096161E0,7.776673418E-3
1.060189932E1,-1.544566989E0,9.888339639E-1,-1.764706671E-1
1.061161234E1,-1.566102386E0,5.988038778E-1,-2.673979402E-1
1.062132609E1,-1.237986565E0,1.701895148E-1,-2.027917206E-1
1.063104068E1,-8.742775917E-1,-3.661018610E-1,-1.668993831E-1
1.064075443E1,-4.743770957E-1,-5.934200287E-1,-3.104687333E-1
1.065046740E1,-1.848455518E-1,-9.717850685E-1,-1.645065546E-1
1.066018125E1,-5.940182209E-1,-1.438684583E0,-1.062413216E0
1.066989578E1,-2.171785593E0,-1.876870275E0,-3.013461113E0
1.067960953E1,-4.123132706E0,-2.085045815E0,-8.311768532E0
1.068932250E1,-4.520340919E0,-4.179962158E0,-9.374779701E0
1.069903635E1,-3.373580933E0,-8.891429901E0,-7.583752155E0
1.070875088E1,-3.653840065E0,-1.369651699E1,-1.003549862E1
1.071846464E1,-4.130311012E0,-1.829073715E1,-7.425826073E0
1.072817760E1,-4.513162613E0,-2.517847633E1,-6.168995857E0
1.073789135E1,-3.084049225E0,-3.025634575E1,-8.783154488E0
1.074760599E1,6.388836503E-1,-2.952145004E1,-6.480062962E0
1.075731969E1,2.046461582E0,-2.814497757E1,-2.793321371E0
1.076703271E1,2.376970291E0,-2.593281364E1,-4.308875561E0
1.077674646E1,-1.139880896E0,-2.515215492E1,-5.857629776E0
1.078646109E1,-5.889933109E0,-2.392643166E1,-5.807380676E0
1.079617479E1,-8.269595146E0,-2.331117821E1,-5.271089077E0
1.080588776E1,-9.483354568E0,-2.287777710E1,-6.247959137E0
1.081560162E1,-9.483354568E0,-2.302852440E1,-7.337291718E0
1.082531615E1,-8.679066658E0,-2.372064972E1,-8.668298721E0
1.083502990E1,-6.646364212E0,-2.405564499E1,-9.544670105E0
1.084474286E1,-3.900300980E0,-2.411546516E1,-8.615656853E0
1.085445672E1,-1.752742529E0,-2.434068871E1,-6.451348782E0
1.086417125E1,-8.168498278E-1,-2.350499535E1,-5.101198673E0
1.087388500E1,-1.695314884E0,-2.168555260E1,-5.010271549E0
1.088359797E1,-3.208476067E0,-1.960260201E1,-4.856831551E0
1.089331172E1,-4.441378117E0,-1.766112518E1,-4.765904427E0
1.090302635E1,-4.850849628E0,-1.602353668E1,-4.466801643E0
1.091274005E1,-4.218845367E0,-1.475234985E1,-3.422932863E0
1.092245307E1,-3.179762125E0,-1.342343616E1,-2.584846735E0
1.093216682E1,-1.925324917E0,-1.188664532E1,-1.971984982E0
1.094188141E1,-5.341976285E-1,-1.021795082E1,-1.555633783E0
1.095159516E1,8.997012973E-1,-8.395816803E0,-1.478764415E0
1.096130812E1,1.646860242E0,-6.286842346E0,-1.916949987E0
1.097102198E1,1.840678811E0,-4.053142548E0,-2.553740025E0
1.098073651E1,1.366600871E0,-1.579861164E0,-3.887439489E0
1.099045026E1,8.039883971E-1,8.883354068E-1,-5.462814331E0
1.100016323E1,6.771687865E-1,2.863610506E0,-5.663811207E0
1.100987698E1,6.293123364E-1,3.794717550E0,-4.366302967E0
1.101959162E1,6.484549642E-1,3.141177893E0,-2.608774900E0
1.102930531E1,2.844468057E-1,2.439781904E0,-1.000199914E0
1.103901833E1,-4.001995921E-1,2.564208508E0,-2.530409992E-1
1.104873208E1,-2.523829699E0,2.375175476E0,-5.955137610E-1
1.105844672E1,-4.862813950E0,1.721635938E0,-1.086341500E0
1.106816042E1,-4.640281200E0,1.657029629E0,-2.091925144E0
1.107787338E1,-3.239582777E0,7.926225066E-1,-3.614358664E0
1.108758714E1,-1.396211982E0,-8.614161611E-2,-4.354339123E0
1.109730177E1,2.006980032E-1,-9.334999323E-1,-4.145864487E0
1.110701547E1,1.701895118E0,-1.520040631E0,-3.638286829E0
1.111672849E1,2.855833769E0,-1.776371717E0,-2.855534792E0
1.112644224E1,3.207578659E0,-1.831406593E0,-1.347159147E0
1.113615688E1,2.915654421E0,-1.733001828E0,6.349952817E-1
1.114587057E1,2.343470573E0,-1.601396561E0,2.181656122E0
1.115558354E1,1.699502230E0,-1.275972724E0,3.235096216E0
1.116529740E1,1.189531922E0,-8.688937426E-1,3.560819149E0
1.117501193E1,8.374879360E-1,-4.666004181E-1,2.923730135E0
1.118472568E1,6.245267391E-1,-9.272187948E-3,1.939980984E0
1.119443865E1,2.844468057E-1,3.448655605E-1,1.063609719E0
1.120415240E1,3.798605874E-2,5.724828243E-1,1.256231871E-2
1.121386703E1,-3.858426586E-2,5.820540786E-1,-1.134197950E0
1.122358073E1,-1.944168471E-2,3.281157911E-1,-1.189232826E0
1.123329375E1,-2.542374134E-1,-5.234299600E-2,-2.937189937E-1
1.124300750E1,-5.126622319E-1,-4.019941986E-1,1.006181955E0
1.125272208E1,-1.199701428E0,-9.382855892E-1,1.370190024E0
1.126243583E1,-1.944467545E0,-1.756929994E0,-2.592025042E0
1.127214880E1,-2.538186550E0,-2.855833769E0,-8.438588142E0
1.128186266E1,-2.377867460E0,-5.115854740E0,-1.193151093E1
1.129157719E1,-2.279462576E0,-1.025623608E1,-8.838488579E0
1.130129088E1,-2.842075109E0,-1.498684597E1,-7.480860710E0
1.131100391E1,-3.289832115E0,-2.005275154E1,-4.442873478E0
1.132071766E1,-4.673780918E0,-2.770439911E1,-7.375576496E0
1.133043229E1,-1.832004786E0,-3.029702377E1,-1.192911816E1
1.134014599E1,1.246959686E0,-2.949034309E1,-5.764309883E0
1.134985896E1,2.140080690E0,-3.000031281E1,-7.126723289E0
1.135957281E1,4.785645306E-1,-2.894208717E1,-8.045866013E0
1.136928734E1,-2.899502754E0,-2.604527664E1,-7.459325314E0
1.137900109E1,-6.474080563E0,-2.407717896E1,-6.621538639E0
1.138871406E1,-9.344570160E0,-2.286581230E1,-6.130710602E0
1.139842781E1,-1.178644657E1,-2.208306122E1,-6.515954971E0
1.140814245E1,-1.325175095E1,-2.160659027E1,-6.578467846E0
1.141785615E1,-1.226530933E1,-2.130958176E1,-5.871986866E0
1.142756912E1,-9.595816612E0,-2.147019958E1,-4.260719776E0
1.143728297E1,-6.241677761E0,-2.166162491E1,-5.266303539E0
1.144699750E1,-3.280260801E0,-2.143669891E1,-7.150651455E0
1.145671125E1,-2.150250196E0,-2.099372864E1,-6.678966045E0
1.146642422E1,-2.413759947E0,-2.019871330E1,-5.632704735E0
1.147613797E1,-3.186940670E0,-1.902563286E1,-4.856831551E0
1.148585260E1,-3.380759239E0,-1.794108582E1,-3.659822226E0
1.149556630E1,-2.665006161E0,-1.703151321E1,-2.817249537E0
1.150527927E1,-1.697707653E0,-1.601396561E1,-2.838784933E0
1.151499312E1,-6.370890141E-1,-1.456301785E1,-3.434896946E0
1.152470766E1,3.466601670E-1,-1.257129192E1,-3.897010803E0
1.153442141E1,7.680960894E-1,-1.036391354E1,-3.908974886E0
1.154413438E1,4.785645306E-1,-7.991429329E0,-3.647858143E0
1.155384812E1,-2.327020019E-1,-5.329114914E0,-2.759821892E0
1.156356276E1,-6.825526357E-1,-2.877369165E0,-2.300100803E0
1.157327646E1,-4.097708762E-1,-6.750751138E-1,-2.958425999E0
1.158298943E1,2.150549293E-1,1.450947881E0,-3.533002615E0
1.159270328E1,8.494520187E-1,1.867598057E0,-2.817249537E0
1.160241781E1,1.546062589E0,1.836491346E0,-1.234696507E0
1.161213156E1,2.582752943E0,3.126821041E0,3.000001311E-1
1.162184453E1,2.329113722E0,3.112463951E0,-1.375873014E-2
1.163155828E1,8.638089895E-1,3.275176048E0,-9.427721500E-1
1.164127292E1,-1.513460279E0,2.739183664E0,-1.507777333E0
1.165098662E1,-3.294617653E0,1.460519075E0,-1.759023786E0
1.166069958E1,-3.048156977E0,1.113559842E0,-2.824428082E0
1.167041344E1,-2.322533369E0,2.467598319E-1,-3.276970625E0
1.168012797E1,-1.432104349E0,-4.331009090E-1,-3.168994427E0
1.168984167E1,-6.562315822E-1,-7.420741320E-1,-2.857927561E0
1.169955464E1,2.294118702E-1,-7.923234105E-1,-2.216351986E0
1.170926849E1,1.077069283E0,-8.330013752E-1,-1.543669701E0
1.171898302E1,1.721037745E0,-8.712865710E-1,-7.414759398E-1
1.172869677E1,2.024926186E0,-1.033998489E0,2.090728730E-1
1.173840974E1,1.792822361E0,-1.129711390E0,9.535398483E-1
1.174812349E1,1.493420482E0,-1.179960608E0,1.204786181E0
1.175783813E1,9.667003751E-1,-1.170389414E0,9.152546525E-1
1.176755182E1,4.088735580E-1,-9.430712461E-1,3.502494097E-1
1.177726479E1,3.155534863E-1,-6.583253145E-1,-6.640082598E-2
1.178697865E1,2.772683203E-1,-4.498506486E-1,-3.248256743E-1
1.179669318E1,-1.465603858E-1,-4.163511395E-1,-4.734797776E-1
1.180640693E1,-5.006981492E-1,-6.364908218E-1,-4.615156651E-1
1.181611990E1,-4.528416991E-1,-9.334999323E-1,-3.320041299E-1
1.182583365E1,-2.470589429E-1,-1.342971683E0,-5.189434290E-1
1.183554828E1,2.892324328E-1,-1.826620936E0,-2.944069147E0
1.184526198E1,5.712864175E-2,-2.370090723E0,-6.291029930E0
1.185497495E1,-1.609173268E-1,-3.492922783E0,-8.809774399E0
1.186468880E1,8.823533356E-2,-6.717550278E0,-4.366302967E0
1.187440333E1,-1.716850281E0,-1.177627659E1,-1.052842021E0
1.188411703E1,-1.489532113E0,-1.566670704E1,-3.818047523E0
1.189383000E1,-4.163810730E0,-1.916950035E1,-6.537490368E0
1.190354385E1,-5.827719688E0,-2.347867393E1,-9.637990952E0
1.191325838E1,-6.244070530E0,-2.442683029E1,-9.951749802E0
1.192297214E1,-5.217250824E0,-2.480041122E1,-7.102495670E0
1.193268510E1,-3.653840065E0,-2.646431923E1,-8.129614830E0
1.194239885E1,-1.956431627E0,-2.693331337E1,-4.811367989E0
1.195211349E1,-1.764706731E0,-2.629173660E1,-5.043771267E0
1.196182719E1,-1.226022482E0,-2.540848541E1,-3.906582117E0
1.197154016E1,-1.719243050E0,-2.403889465E1,-3.717249870E0
1.198125401E1,-3.634697676E0,-2.321785736E1,-3.710071564E0
1.199096854E1,-6.150750637E0,-2.299263191E1,-3.291327477E0
1.200068229E1,-7.982456207E0,-2.255235291E1,-4.198506355E0
1.201039526E1,-9.049954414E0,-2.202084732E1,-5.864808083E0
1.202010901E1,-8.374878883E0,-2.180758667E1,-7.179365158E0
1.202982365E1,-6.553043842E0,-2.183390808E1,-8.055437088E0
1.203953734E1,-4.537090778E0,-2.121865463E1,-8.218149185E0
1.204925031E1,-3.220440149E0,-2.034018898E1,-7.052246571E0
1.205896417E1,-2.861217737E0,-1.931307030E1,-5.469992638E0
1.206867870E1,-2.676970243E0,-1.825963020E1,-4.071686745E0
1.207839245E1,-2.389831543E0,-1.707697678E1,-2.996711254E0
1.208810542E1,-2.071287155E0,-1.557099438E1,-2.697608471E0
1.209781917E1,-1.848754644E0,-1.399801254E1,-2.982354403E0
1.210753380E1,-1.506281853E0,-1.221924782E1,-2.936890602E0
1.211724750E1,-1.137488008E0,-1.039262676E1,-2.958425999E0
1.212696047E1,-4.935196638E-1,-8.324031830E0,-2.984747171E0
1.213667432E1,-1.175474152E-1,-6.159723759E0,-2.941676378E0
1.214638885E1,-2.991028305E-4,-3.981058598E0,-2.814856768E0
1.215610260E1,-4.648058116E-1,-1.520040631E0,-2.790928602E0
1.216581557E1,-4.743770957E-1,7.902296782E-1,-2.541775942E0
1.217552932E1,3.299104273E-1,2.351247311E0,-1.395015597E0
1.218524396E1,1.878963947E0,2.837289333E0,2.641077936E-1
1.219495766E1,3.047259569E0,3.203391314E0,1.166501045E0
1.220467062E1,2.594717026E0,4.043870449E0,8.434699476E-2
1.221438448E1,8.255237937E-1,3.881158352E0,-1.794916034E0
1.222409901E1,-7.737790346E-1,3.356831074E0,-3.327219963E0
1.223381276E1,-1.961217284E0,2.475674152E0,-3.892225027E0
1.224352573E1,-2.202892303E0,1.431805253E0,-3.693321705E0
1.225323948E1,-1.891825438E0,3.472583890E-1,-3.348755360E0
1.226295412E1,-1.377069473E0,-5.982056856E-1,-2.905783892E0
1.227266781E1,-7.570292354E-1,-1.316650629E0,-2.467598438E0
1.228238083E1,4.522434771E-1,-1.881655931E0,-1.943271041E0
1.229209458E1,1.766501307E0,-2.386840582E0,-1.445264935E0
1.230180917E1,2.796013355E0,-2.453839540E0,-7.510471940E-1
1.231152292E1,3.162115097E0,-2.391626120E0,1.728814393E-1
1.232123588E1,3.152543783E0,-2.269293070E0,1.006181955E0
1.233094974E1,2.879761934E0,-2.063510418E0,1.470688581E0
1.234066427E1,2.573181629E0,-1.857727647E0,1.556830287E0
1.235037802E1,2.070389748E0,-1.606182218E0,1.470688581E0
1.236009099E1,1.452742457E0,-1.417149186E0,1.264606714E0
1.236980474E1,6.556333899E-1,-1.328614831E0,8.051848412E-1
1.237951938E1,-1.848455518E-1,-1.206580877E0,2.330010980E-1
1.238923307E1,-8.216354847E-1,-1.194317579E0,-5.500500798E-1
1.239894609E1,-1.192523003E0,-1.177567840E0,-1.220339537E0
1.240865984E1,-1.427318692E0,-1.084247708E0,-1.442872047E0
1.241837448E1,-1.178166032E0,-1.115354419E0,-8.802596331E-1
1.242808818E1,-1.257428288E0,-1.575075507E0,-1.184447169E0
1.243780115E1,-2.123929262E0,-2.080260277E0,-3.561716557E0
1.244751500E1,-3.921836376E0,-2.705085993E0,-8.584549904E0
1.245722958E1,-5.308177948E0,-4.098606110E0,-1.162283707E1
1.246694328E1,-4.261916161E0,-1.041894817E1,-8.103293419E0
1.247665625E1,-6.205785751E0,-1.711286926E1,-8.122436523E0
1.248637010E1,-8.209774017E0,-2.251137543E1,-3.930510283E0
1.249608464E1,-8.432307243E0,-2.710589409E1,-3.253042459E0
1.250579838E1,-4.470091820E0,-2.888226700E1,-1.171137142E1
1.251551135E1,-1.472782373E0,-2.780729103E1,-1.041595650E1
1.252522521E1,6.915257573E-1,-2.776182747E1,-9.022735596E0
1.253493974E1,1.491027594E0,-2.634916496E1,-8.433802605E0
1.254465349E1,-1.089631557E0,-2.493680191E1,-8.950951576E0
1.255436646E1,-4.613960266E0,-2.412503624E1,-7.600502014E0
1.256408031E1,-7.350152969E0,-2.327528572E1,-5.544169903E0
1.257379484E1,-7.876873016E0,-2.211895370E1,-5.953342915E0
1.258350859E1,-8.350951195E0,-2.223380852E1,-6.372385979E0
1.259322156E1,-8.535198212E0,-2.232473564E1,-6.204888344E0
1.260293542E1,-8.145168304E0,-2.189612198E1,-6.832107067E0
1.261264995E1,-6.756433964E0,-2.106790543E1,-8.237590790E0
1.262236370E1,-4.984847546E0,-2.061775589E1,-7.655537128E0
1.263207667E1,-3.737588882E0,-2.055315018E1,-6.415456772E0
1.264179052E1,-3.431008577E0,-2.019392776E1,-5.797809124E0
1.265150510E1,-3.957728624E0,-1.941596031E1,-4.825725079E0
1.266121880E1,-4.594518661E0,-1.860449600E1,-3.485146284E0
1.267093182E1,-4.230809689E0,-1.741197205E1,-2.278565407E0
1.268064557E1,-3.220440149E0,-1.579861164E1,-1.916949987E0
1.269036021E1,-2.066501379E0,-1.373240948E1,-1.979163408E0
1.270007391E1,-1.264606714E0,-1.135513973E1,-2.527418852E0
1.270978693E1,-6.514459848E-1,-8.855537415E0,-3.274577856E0
1.271950068E1,-3.667000830E-1,-6.236293793E0,-3.310470104E0
1.272921531E1,-5.844469070E-1,-3.471387386E0,-3.233899832E0
1.273892906E1,-1.154237866E0,-5.790630579E-1,-4.328018188E0
1.274864203E1,-1.221236825E0,1.099202871E0,-5.505885124E0
1.275835588E1,-5.988038778E-1,1.814955950E0,-4.828117847E0
1.276807042E1,5.742774606E-1,3.311367512E0,-2.618346214E0
1.277778417E1,1.301994562E0,3.258426189E0,-1.091127157E0
1.278749714E1,1.843071699E0,3.241676569E0,-9.714859724E-1
1.279721099E1,1.687538147E0,3.297010422E0,-1.890628934E0
1.280692557E1,9.451649189E-1,3.248854876E0,-2.340778828E0
1.281663927E1,-2.829512656E-1,2.293819666E0,-1.967199326E0
1.282635229E1,-1.204487085E0,1.537089467E0,-1.062413216E0
1.283606604E1,-1.228415370E0,1.211665511E0,-6.314060688E-1
1.284578068E1,-8.982058167E-1,7.471588850E-1,-3.128615618E-1
1.285549443E1,-5.485545993E-1,4.334000051E-1,9.631111473E-2
1.286520740E1,-1.226321608E-2,1.869392693E-1,4.483551383E-1
1.287492125E1,7.178468108E-1,-7.627122104E-2,4.483551383E-1
1.288463578E1,1.565504193E0,-4.211367965E-1,4.244269133E-1
1.289434953E1,2.214258194E0,-7.875377536E-1,6.780661345E-1
1.290406255E1,2.171187401E0,-9.765707254E-1,8.985049129E-1
1.291377630E1,1.670788407E0,-1.048355460E0,6.972087026E-1
1.292349094E1,1.022034407E0,-1.019641519E0,2.691925503E-2
1.293320469E1,1.265204996E-1,-8.593224287E-1,-8.850452900E-1
1.294291766E1,-9.149555564E-1,-6.439684033E-1,-1.751845241E0
1.295263151E1,-1.882254124E0,-4.019941986E-1,-2.481955290E0
1.296234609E1,-2.382653236E0,-2.488535494E-1,-2.855534792E0
1.297205979E1,-2.265105724E0,-4.211367965E-1,-2.472383976E0
1.298177281E1,-2.114357948E0,-8.617152572E-1,-1.766202211E0
1.299148656E1,-1.319641709E0,-1.500898004E0,-1.323230863E0
1.300120120E1,-2.542374134E-1,-2.202294111E0,-9.714859724E-1
1.301091495E1,4.208376706E-1,-2.736192703E0,-2.048555374E0
1.302062797E1,-3.164508045E-1,-3.155235767E0,-4.267898083E0
1.303034172E1,-2.255534410E0,-3.851846218E0,-6.329315186E0
1.304005635E1,-2.880360365E0,-6.435197353E0,-4.904987335E0
1.304977010E1,-2.552543640E0,-1.095284653E1,-8.510373116E0
1.305948307E1,-3.297010422E0,-1.579382610E1,-9.697811127E0
1.306919693E1,-6.837790012E0,-2.172383881E1,-4.765904427E0
1.307891151E1,-7.687839985E0,-2.384746933E1,-1.308305645E1
1.308862526E1,-3.596412420E0,-2.328246307E1,-1.371027565E1
1.309833823E1,-3.646661758E0,-2.608356094E1,-3.470789194E0
1.310805208E1,-3.146262646E0,-2.759672356E1,1.403689623E0
1.311776667E1,-2.758326292E0,-2.669642258E1,-2.967997313E0
1.312748042E1,-5.056632519E0,-2.548505592E1,-7.895118237E0
1.313719339E1,-6.486044884E0,-2.469004059E1,-7.514360428E0
1.314690724E1,-7.829016685E0,-2.552094841E1,-4.864309311E0
1.315662182E1,-1.007228756E1,-2.664856720E1,-4.112364769E0
1.316633557E1,-1.252403355E1,-2.600938416E1,-5.955735683E0
1.317604854E1,-1.137488079E1,-2.483390999E1,-8.048258781E0
1.318576240E1,-7.654340744E0,-2.413939285E1,-7.655537128E0
1.319547698E1,-4.503591537E0,-2.305006027E1,-6.506383896E0
1.320519073E1,-3.287439108E0,-2.142473602E1,-6.302993774E0
1.321490370E1,-3.515056372E0,-1.950210190E1,-6.286244392E0
1.322461755E1,-4.429413795E0,-1.791476440E1,-5.572884083E0
1.323433214E1,-5.166702271E0,-1.657657814E1,-4.141078472E0
1.324404588E1,-5.456532955E0,-1.526232052E1,-2.932105064E0
1.325375885E1,-5.171487808E0,-1.375155163E1,-2.295315027E0
1.326347271E1,-4.714458942E0,-1.194646645E1,-2.565704107E0
1.327318729E1,-3.570091486E0,-1.033998489E1,-2.826820850E0
1.328290104E1,-3.402294636E0,-8.434102058E0,-2.548954248E0
1.329261406E1,-2.782254457E0,-6.830312252E0,-2.338385820E0
1.330232792E1,-9.221340418E-1,-5.199902534E0,-2.903391123E0
1.331204245E1,7.728816867E-1,-2.903989315E0,-3.794119358E0
1.332175620E1,2.317149639E0,-7.588238716E-1,-4.165007114E0
1.333146922E1,3.432803154E0,4.094717801E-1,-4.023830414E0
1.334118307E1,4.100699902E0,5.509474277E-1,-2.810070992E0
1.335089766E1,4.251447678E0,6.562315822E-1,-4.016951025E-1
1.336061141E1,3.971487284E0,2.183749676E0,1.422832131E0
1.337032438E1,2.774477959E0,2.382354021E0,1.302891970E0
1.338003823E1,1.074676514E0,2.830111027E0,7.956135273E-2
1.338975281E1,1.073779166E-1,3.205784082E0,-1.742274046E0
1.339946656E1,-5.054838061E-1,2.406282187E0,-3.276970625E0
1.340917958E1,-1.942074656E0,1.505982757E0,-3.480360508E0
1.341889344E1,-2.334497690E0,5.461617708E-1,-3.262613773E0
1.342860802E1,-1.827219248E0,-4.450650215E-1,-3.152244806E0
1.343832177E1,-1.680957913E0,-7.899305820E-1,-2.640180588E0
1.344803474E1,-7.881359458E-1,-1.493719578E0,-2.007877350E0
1.345774859E1,-7.686942816E-2,-1.632503271E0,-1.234696507E0
1.346746318E1,9.116654396E-1,-1.730608940E0,-7.357929647E-2
1.347717693E1,1.843071699E0,-1.694716692E0,1.257428288E0
1.348688995E1,2.408077002E0,-1.634896040E0,2.341975212E0
1.349660380E1,2.609073877E0,-1.606182218E0,2.988336325E0
1.350631838E1,2.475075960E0,-1.479362607E0,2.904587507E0
1.351603214E1,2.005783558E0,-1.117747307E0,2.112264156E0
1.352574510E1,1.414457321E0,-6.966105103E-1,9.487541914E-1
1.353545896E1,7.704889178E-1,-3.230310678E-1,-2.315055877E-1
1.354517354E1,4.516452923E-2,-2.362912335E-2,-1.328016520E0
1.355488729E1,-5.078766346E-1,6.490531564E-2,-2.448455811E0
1.356460031E1,-8.958129883E-1,9.870393202E-3,-2.982354403E0
1.357431417E1,-1.221236825E0,-3.756731451E-1,-2.479562521E0
1.358402875E1,-1.549352646E0,-9.885348678E-1,-3.987937927E0
1.359374250E1,-2.519043922E0,-1.819442511E0,-6.444170475E0
1.360345552E1,-3.991228104E0,-3.085843801E0,-8.534300804E0
1.361316938E1,-3.524627686E0,-5.156831741E0,-8.242376328E0
1.362288396E1,-2.607578516E0,-9.614361763E0,-4.007080555E0
1.363259771E1,-4.388735771E0,-1.343779278E1,-5.510670662E0
1.364231073E1,-3.208476067E0,-1.699562073E1,-7.581359386E0
1.365202448E1,-4.886742115E0,-2.164487457E1,-6.343671799E0
1.366173917E1,-3.024228811E0,-2.688306236E1,-1.844597054E1
1.367145287E1,-7.498508096E-1,-2.532443810E1,-1.509900951E1
1.368116588E1,-8.838488460E-1,-2.321546364E1,-5.840879917E0
1.369087974E1,-1.106381416E0,-2.538695145E1,-3.870689631E0
1.370059432E1,-1.975574136E0,-2.392643166E1,-6.434599400E0
1.371030807E1,-2.645863533E0,-2.263370895E1,-1.098335457E1
1.372002109E1,-3.873979807E0,-2.191526413E1,-8.177471161E0
1.372973495E1,-5.949753284E0,-2.261217308E1,-4.674977303E0
1.373944953E1,-6.881159782E0,-2.259063911E1,-5.335695267E0
1.374916328E1,-7.572984695E0,-2.180519485E1,-7.557431221E0
1.375887630E1,-7.252047062E0,-2.106551361E1,-8.977272034E0
1.376859016E1,-6.277570248E0,-2.047897339E1,-7.701299667E0
1.377830474E1,-5.106881618E0,-2.027049828E1,-6.377171516E0
1.378801849E1,-3.981656790E0,-1.988764572E1,-7.155436993E0
1.379773151E1,-3.170190811E0,-1.939203262E1,-7.804191113E0
1.380744537E1,-2.892324448E0,-1.902084541E1,-7.428218842E0
1.381715995E1,-3.201297522E0,-1.844626999E1,-7.306184769E0
1.382687370E1,-3.639483213E0,-1.746700668E1,-7.217650414E0
1.383658672E1,-3.466900826E0,-1.639950943E1,-6.030212402E0
1.384630057E1,-2.846860647E0,-1.527667713E1,-4.071686745E0
1.385601516E1,-2.413759947E0,-1.415623760E1,-2.747857809E0
1.386572891E1,-2.071287155E0,-1.294217968E1,-2.814856768E0
1.387544193E1,-1.829612017E0,-1.166381359E1,-3.832404613E0
1.388515578E1,-1.829612017E0,-1.017697334E1,-4.691727161E0
1.389487037E1,-1.511067510E0,-8.551649094E0,-4.730011940E0
1.390458412E1,-8.288139701E-1,-7.076773167E0,-4.251148701E0
1.391429714E1,-1.127617657E-1,-5.738586903E0,-3.334398270E0
1.392401099E1,4.474578202E-1,-4.373780727E0,-2.386242390E0
1.393372557E1,9.858429432E-1,-2.894418001E0,-1.754238129E0
1.394343932E1,1.254138112E0,-1.311864972E0,-1.485942841E0
1.395315234E1,1.354636669E0,-2.033899277E-1,-7.007979155E-1
1.396286620E1,1.373779297E0,7.686942816E-2,9.128618240E-1
1.397258078E1,1.385743380E0,9.505487680E-1,2.179263115E0
1.398229453E1,4.761717021E-1,2.099701881E0,1.609472275E0
1.399200755E1,-1.168594718E0,3.157927752E0,-1.381855011E-1
1.400172141E1,-3.182155132E0,4.063013077E0,-1.742274046E0
1.401143599E1,-4.865206718E0,4.362115860E0,-3.092424154E0
1.402114974E1,-5.176572800E0,3.672683716E0,-3.966402531E0
1.403086276E1,-3.869194269E0,2.767897606E0,-3.262613773E0
1.404057651E1,-2.121536493E0,1.561017632E0,-1.962413669E0
1.405029120E1,-7.115656137E-1,3.065803945E-1,-1.060020447E0
1.406000495E1,5.024927258E-1,-7.109674215E-1,-4.232304990E-1
1.406971797E1,1.575075507E0,-1.453041553E0,2.213360928E-2
1.407943172E1,2.321935177E0,-1.850549221E0,5.991029739E-1
1.408914641E1,2.666501760E0,-2.065903187E0,1.211964726E0
1.409886016E1,2.668894529E0,-2.207079887E0,1.499402523E0
1.410857313E1,2.360220432E0,-2.125723839E0,1.211964726E0
1.411828703E1,1.816750646E0,-1.809871197E0,4.986044168E-1
1.412800162E1,1.065105200E0,-1.409970760E0,-5.476573110E-1
1.413771536E1,2.653042078E-1,-1.024427176E0,-1.601097465E0
1.414742839E1,-4.863412082E-1,-7.899305820E-1,-2.568096876E0
1.415714224E1,-7.761718631E-1,-7.971090674E-1,-3.193221807E0
1.416685682E1,-8.647062778E-1,-8.856434822E-1,-3.695714474E0
1.417657057E1,-8.383852243E-1,-1.196710467E0,-3.956831455E0
1.418628359E1,-6.131607890E-1,-1.857727647E0,-5.149055004E0
1.419599745E1,-5.844469070E-1,-2.839084148E0,-6.439384937E0
1.420571203E1,-1.135095239E0,-3.961916208E0,-7.878368378E0
1.421542578E1,-1.664208174E0,-5.173581600E0,-7.576573849E0
1.422513880E1,-1.702493310E0,-8.123034477E0,-3.391826153E0
1.423485266E1,-2.722434044E0,-1.116341496E1,-3.885046721E0
1.424456724E1,-4.005585194E0,-1.367976665E1,-8.112865448E0
1.425428099E1,-5.324927807E0,-1.685893059E1,-6.626324177E0
1.426399401E1,-7.007979393E0,-1.995703888E1,-8.076972961E0
1.427370786E1,-4.580161572E0,-1.878156471E1,-8.527122498E0
1.428342245E1,-1.812862277E0,-1.905673790E1,-2.218744755E0
1.429313620E1,-1.762313843E0,-2.176930237E1,-4.447658956E-1
1.430284922E1,-2.116750717E0,-2.103679848E1,-4.423730850E0
1.431256307E1,-4.005585194E0,-2.068236160E1,-1.026760197E1
1.432227766E1,-5.647958755E0,-2.105115700E1,-1.109133148E1
1.433199141E1,-6.476473808E0,-2.271745872E1,-8.986844063E0
1.434170443E1,-5.830112457E0,-2.452493668E1,-8.048258781E0
1.435141828E1,-5.542674541E0,-2.491287231E1,-7.124330521E0
1.436113292E1,-5.485246658E0,-2.441486740E1,-8.644371033E0
1.437084667E1,-5.164309502E0,-2.322982216E1,-9.590133667E0
1.438055969E1,-4.434199333E0,-2.247787666E1,-8.218149185E0
1.439027354E1,-4.367200375E0,-2.167119598E1,-7.490432262E0
1.439998812E1,-4.872385025E0,-2.072543335E1,-7.945367813E0
1.440970188E1,-5.607280731E0,-1.983739662E1,-7.940581799E0
1.441941490E1,-5.995217323E0,-1.895623970E1,-7.275078297E0
1.442912875E1,-5.897111416E0,-1.818305969E1,-6.123532295E0
1.443884333E1,-4.972883701E0,-1.740000725E1,-4.866702080E0
1.444855708E1,-3.582055569E0,-1.655265045E1,-4.021437645E0
1.445827010E1,-2.238784790E0,-1.568345737E1,-3.324826956E0
1.446798396E1,-1.384247899E0,-1.477149200E1,-2.575275421E0
1.447769854E1,-6.729813814E-1,-1.382094383E1,-1.818844318E0
1.448741240E1,-1.298106313E-1,-1.282253838E1,-1.409372568E0
1.449712531E1,5.335994363E-1,-1.157049370E1,-1.313659668E0
1.450683917E1,1.297209024E0,-1.013390255E1,-1.670489311E0
1.451655380E1,1.876571178E0,-8.594719887E0,-2.539382935E0
1.452626755E1,2.221436739E0,-6.928418159E0,-3.339184046E0
1.453598057E1,1.766501307E0,-5.166403294E0,-3.736392498E0
1.454569443E1,1.160818100E0,-3.567100286E0,-3.997509241E0
1.455540901E1,7.274180651E-1,-1.888834357E0,-4.572085857E0
1.456512276E1,-6.251249462E-2,-2.392822653E-1,-4.655834675E0
1.457483578E1,-1.180558920E0,8.213363886E-1,-3.626322746E0
1.458454964E1,-1.961217284E0,1.031904817E0,-1.634596944E0
1.459426422E1,-2.114357948E0,2.293819666E0,7.283154130E-1
1.460397807E1,-2.882753134E0,3.071786165E0,1.458724499E0
1.461369099E1,-4.154239178E0,3.378366470E0,3.622135222E-1
1.462340490E1,-5.631208897E0,4.051048756E0,-1.428515077E0
1.463311948E1,-6.433403015E0,3.330509901E0,-3.434896946E0
1.464283323E1,-4.944169998E0,2.130808592E0,-4.433301926E0
1.465254625E1,-2.906681299E0,1.348056436E0,-4.701298237E0
1.466226010E1,-1.013061285E0,2.778665423E-1,-4.243969917E0
1.467197469E1,5.958128572E-1,-6.774678826E-1,-3.253042459E0
1.468168844E1,1.864607096E0,-1.407577872E0,-2.302493572E0
1.469140146E1,2.757728100E0,-1.838585138E0,-1.222732425E0
1.470111531E1,3.226721287E0,-2.092224360E0,9.870393574E-2
1.471082995E1,3.372982502E0,-2.262114763E0,1.413260818E0
1.472054370E1,3.262912750E0,-2.283650160E0,2.210369825E0
1.473025672E1,2.712264538E0,-2.056331873E0,1.889731646E0
1.473997057E1,2.235793591E0,-1.766800404E0,1.022931695E0
1.474968516E1,1.780858278E0,-1.486541033E0,-3.702892959E-1
1.475939891E1,1.091426253E0,-1.228116274E0,-1.213161111E0
1.476911193E1,4.304089844E-1,-1.213759303E0,-1.280160069E0
1.477882578E1,-4.576273263E-2,-1.304686546E0,-1.225125194E0
1.478854037E1,-3.762713671E-1,-1.610967875E0,-6.960122585E-1
1.479825422E1,-5.748756528E-1,-2.097009897E0,5.560321808E-1
1.480796719E1,-7.522436380E-1,-2.372483730E0,1.817647934E0
1.481768104E1,-4.671986103E-1,-2.441875458E0,9.918249846E-1
1.482739563E1,-3.882354796E-1,-2.688336134E0,-8.826524615E-1
1.483710938E1,-1.300499082E0,-2.372483730E0,-3.353540897E0
1.484682240E1,-1.551745534E0,-2.168794632E0,-7.643572807E0
1.485653625E1,-2.921038151E0,-6.930810928E0,-9.147162437E0
1.486625089E1,-4.003192425E0,-1.014826012E1,-9.535099030E0
1.487596458E1,-6.454938412E0,-1.364866066E1,-1.002592659E1
1.488567766E1,-9.758828163E0,-1.936331940E1,-1.408385468E1
1.489539151E1,-6.907480717E0,-2.421147728E1,-1.481157207E1
1.490510609E1,-3.354438305E0,-2.840340233E1,-5.974878311E0
1.491481984E1,6.149554253E-1,-2.931327438E1,-1.213161111E0
1.492453287E1,4.153341770E0,-2.839383125E1,-2.826820850E0
1.493424672E1,4.737489700E0,-2.736671257E1,-9.350552559E0
1.494396130E1,5.383850932E-1,-2.481955338E1,-1.137607670E1
1.495367516E1,-4.637888432E0,-2.369911385E1,-9.257232666E0
1.496338813E1,-8.037490845E0,-2.309103775E1,-7.016354084E0
1.497310198E1,-9.061918259E0,-2.263610268E1,-6.748358250E0
1.498281656E1,-8.908778191E0,-2.218355942E1,-6.305386543E0
1.499253031E1,-8.834600449E0,-2.178126717E1,-5.330909729E0
1.500224333E1,-8.262416840E0,-2.128565216E1,-6.554539204E0
1.501195719E1,-6.699006081E0,-2.073261261E1,-9.022735596E0
1.502167177E1,-5.111667156E0,-2.017957115E1,-1.039681435E1
1.503138562E1,-4.036691666E0,-1.946142387E1,-1.042313576E1
1.504109859E1,-3.586841106E0,-1.865235138E1,-9.171091080E0
1.505081245E1,-3.285046339E0,-1.819741631E1,-7.526324749E0
1.506052703E1,-3.191726208E0,-1.802004814E1,-5.871986866E0
