"Time (s)","Gyroscope x (rad/s)","Gyroscope y (rad/s)","Gyroscope z (rad/s)"
5.762739600E-2,1.946006656E0,1.308434844E0,3.637595475E-1
6.734109400E-2,1.974105597E0,1.288887739E0,3.808632791E-1
7.705411500E-2,1.916685939E0,1.043327093E0,3.955236077E-1
8.676786500E-2,1.811620235E0,6.218425035E-1,3.918585181E-1
9.648250000E-2,1.704111099E0,9.147437662E-2,3.613161445E-1
1.061962500E-1,1.613705754E0,-4.069769979E-1,3.014531136E-1
1.159092190E-1,1.540404081E0,-7.233958840E-1,2.267770469E-1
1.256230730E-1,1.479319334E0,-8.211314082E-1,1.522536725E-1
1.353376560E-1,1.401130915E0,-7.490514517E-1,8.383878320E-2
1.450513540E-1,1.269187927E0,-5.987830162E-1,3.130592033E-2
1.547643750E-1,1.061347127E0,-3.935383558E-1,-2.000524849E-2
1.644781250E-1,7.901309133E-1,-9.422318637E-2,-8.475505561E-2
1.741927600E-1,5.274665952E-1,3.115321100E-1,-1.800472289E-1
1.839064580E-1,3.344388604E-1,7.574505806E-1,-2.863346636E-1
1.936194790E-1,2.257080674E-1,1.145949483E0,-3.828485310E-1
2.033332290E-1,1.695101112E-1,1.378071427E0,-4.622586668E-1
2.130478650E-1,1.365243644E-1,1.354859233E0,-5.050179958E-1
2.227616150E-1,8.399149776E-2,1.123958945E0,-4.915793240E-1
2.324745830E-1,3.359660041E-3,8.246437907E-1,-3.938437700E-1
2.421884370E-1,-6.749862432E-2,6.059604883E-1,-2.533488870E-1
2.519029690E-1,-1.725643575E-1,4.935645759E-1,-1.214058921E-1
2.616167190E-1,-4.071297050E-1,4.630222321E-1,-2.733541466E-2
2.713296870E-1,-7.907418013E-1,4.556920528E-1,-1.145338640E-2
2.810435420E-1,-1.220778227E0,3.872771561E-1,-6.398624927E-2
2.907581250E-1,-1.557965875E0,2.211267054E-1,-1.238492802E-1
3.004718230E-1,-1.732668281E0,1.695101149E-2,-1.788255423E-1
3.101848440E-1,-1.707012653E0,-1.443126649E-1,-2.619007528E-1
3.198985940E-1,-1.444348335E0,-2.615953386E-1,-3.339807391E-1
3.296132290E-1,-1.017976999E0,-3.642176688E-1,-3.706315756E-1
3.393269270E-1,-5.415160656E-1,-5.169295073E-1,-4.146125913E-1
3.490399480E-1,-1.408002973E-1,-7.966975570E-1,-4.695888162E-1
3.587536980E-1,1.801999472E-2,-1.188861489E0,-4.475983381E-1
3.684683330E-1,-2.153236568E-1,-1.588355541E0,-3.156553209E-1
3.781820830E-1,-7.504258752E-1,-1.774053097E0,-8.719844371E-2
3.878950520E-1,-1.245212078E0,-1.659213901E0,1.791309565E-1
3.976089060E-1,-1.448013425E0,-1.344016671E0,3.894151151E-1
4.073234370E-1,-1.411362648E0,-9.054283500E-1,4.712686539E-1
4.170371870E-1,-1.313627005E0,-1.528645307E-1,4.004103839E-1
4.267501560E-1,-1.130372882E0,6.145123243E-1,2.182251811E-1
4.364640100E-1,-9.825478196E-1,8.515210748E-1,1.229330078E-1
4.461785940E-1,-9.813261032E-1,1.155722976E0,2.953446507E-1
4.558922920E-1,-6.233696342E-1,1.440377831E0,7.290462255E-1
4.656053120E-1,6.933116168E-2,1.431825995E0,1.206728816E0
4.753190620E-1,5.653391480E-1,1.716480851E0,1.337450027E0
4.850336980E-1,7.094991207E-1,1.589424610E0,1.148087382E0
4.947473960E-1,4.895940721E-1,5.839699507E-1,8.817580342E-1
5.044604170E-1,4.245388508E-2,-6.073349118E-1,4.981459379E-1
5.141741670E-1,-3.118375242E-1,-9.286405444E-1,-7.498150319E-2
5.238888020E-1,-2.776300907E-1,-7.710419297E-1,-5.917583108E-1
5.336025520E-1,7.177454978E-2,-7.380561829E-1,-9.387195110E-1
5.433155210E-1,5.299099684E-1,-8.602256775E-1,-1.178171635E0
5.530293750E-1,9.184088707E-1,-9.090934396E-1,-1.246586561E0
5.627439060E-1,1.140757203E0,-6.403206587E-1,-1.082879424E0
5.724576560E-1,1.200773001E0,-1.919587553E-1,-7.566870451E-1
5.821706250E-1,1.210546613E0,1.930277348E-1,-3.901786804E-1
5.918844790E-1,1.214211583E0,4.398100376E-1,-6.032116711E-2
6.015990620E-1,1.211768270E0,5.534276366E-1,2.023431510E-1
6.113127600E-1,1.203216434E0,5.314370990E-1,3.613161445E-1
6.210257810E-1,1.179851532E0,3.261924386E-1,4.004103839E-1
6.307395310E-1,1.156639338E0,-4.291202128E-2,3.442124426E-1
6.404541670E-1,1.140757203E0,-4.753918648E-1,2.145601064E-1
6.501678650E-1,1.146865726E0,-8.199097514E-1,3.741439432E-2
6.598808850E-1,1.165191174E0,-9.677347541E-1,-1.226275861E-1
6.695946350E-1,1.181073189E0,-8.773293495E-1,-2.399102598E-1
6.793092710E-1,1.156639338E0,-6.097782850E-1,-2.924431264E-1
6.890230210E-1,1.056460381E0,-3.300102353E-1,-2.667875290E-1
6.987359900E-1,9.037485123E-1,-1.394258887E-1,-2.020377368E-1
7.084498440E-1,7.412631512E-1,-1.527118147E-4,-1.507265568E-1
7.181643750E-1,5.983248949E-1,1.759240031E-1,-1.324011385E-1
7.278781250E-1,4.908157587E-1,3.872771561E-1,-1.446180940E-1
7.375910940E-1,4.114056230E-1,5.717530251E-1,-1.776038408E-1
7.473049480E-1,3.405473530E-1,6.853706241E-1,-2.142546773E-1
7.570195310E-1,2.855710983E-1,7.134696245E-1,-2.386885732E-1
7.667332290E-1,2.965663373E-1,6.536065936E-1,-2.203631550E-1
7.764462500E-1,3.759764731E-1,5.668662786E-1,-1.702736765E-1
7.861600000E-1,4.431696832E-1,5.497625470E-1,-7.986827940E-2
7.958746350E-1,4.126273096E-1,6.132906675E-1,2.886253223E-2
8.055883850E-1,2.550287247E-1,6.340594292E-1,1.119377613E-1
8.153013540E-1,7.024743594E-3,5.094466209E-1,1.546970755E-1
8.250152080E-1,-2.495311052E-1,2.541124523E-1,1.559187621E-1
8.347297920E-1,-4.413371384E-1,-3.313846514E-2,1.327065676E-1
8.444434900E-1,-5.488462448E-1,-2.872509360E-1,1.070509851E-1
8.541565100E-1,-5.891621709E-1,-4.802786708E-1,8.750387281E-2
8.638702600E-1,-5.989357233E-1,-6.036698222E-1,6.917845458E-2
8.735848960E-1,-6.074876189E-1,-6.806365848E-1,6.551336497E-2
8.832986460E-1,-6.319214702E-1,-7.527165413E-1,7.040014863E-2
8.930116150E-1,-6.697940230E-1,-8.370134830E-1,6.429167092E-2
9.027254690E-1,-7.149966955E-1,-9.090934396E-1,4.596625641E-2
9.124400000E-1,-7.687512636E-1,-9.286405444E-1,2.275406010E-2
9.221537500E-1,-8.322793841E-1,-8.822161555E-1,9.315420873E-3
9.318667710E-1,-8.945857882E-1,-7.869240046E-1,1.542389300E-2
9.415805210E-1,-9.177979827E-1,-6.867450476E-1,3.497100621E-2
9.512951560E-1,-9.165763259E-1,-6.390989423E-1,5.940489471E-2
9.610089060E-1,-9.935430884E-1,-6.195518374E-1,1.046075895E-1
9.707218750E-1,-1.234216928E0,-5.657972693E-1,1.656923145E-1
9.804357290E-1,-1.616607308E0,-4.876088202E-1,2.035648525E-1
9.901503120E-1,-1.990445852E0,-4.350759685E-1,1.461452097E-1
9.998640620E-1,-2.453468084E0,-4.094203711E-1,3.497100621E-2
1.009577031E0,-2.975131512E0,1.856975704E-1,3.008422814E-2
1.019290885E0,-3.075310469E0,1.726254344E0,1.420219894E-2
1.029005469E0,-2.707580566E0,3.078670263E0,4.230117425E-2
1.038719167E0,-2.040535212E0,3.746937037E0,1.620272398E-1
1.048432187E0,-1.298966646E0,3.049349546E0,2.892361879E-1
1.058146042E0,-9.251281619E-1,1.578429341E0,2.622061968E-1
1.067860573E0,-9.055810571E-1,4.300364852E-1,8.628217876E-2
1.077574323E0,-8.725953102E-1,-1.467560530E-1,-9.697200358E-2
1.087287344E0,-5.537330508E-1,-5.865660906E-1,-2.411319613E-1
1.097001198E0,-1.640124917E-1,-8.272398710E-1,-3.290939629E-1
1.106715729E0,9.620844573E-2,-7.233958840E-1,-2.313583940E-1
1.116429479E0,3.820849657E-1,-5.548020005E-1,-1.756185852E-2
1.126142500E0,6.997255087E-1,-4.240806997E-1,1.974563748E-1
1.135856250E0,9.391776323E-1,-3.190149665E-1,4.211791754E-1
1.145570885E0,1.112658262E0,-2.005106062E-1,6.569662094E-1
1.155284635E0,1.242310643E0,-6.001574174E-2,7.742488980E-1
1.164997656E0,1.379140377E0,1.207950488E-1,7.070556879E-1
1.174711406E0,1.539182425E0,3.432961702E-1,5.213581324E-1
1.184426042E0,1.713884711E0,4.886777997E-1,3.063398898E-1
1.194139792E0,1.873926640E0,3.787252903E-1,1.070509851E-1
1.203852812E0,1.980214119E0,8.414421231E-2,-4.688252881E-2
1.213566667E0,1.996096134E0,-2.982461751E-1,-1.470614821E-1
1.223281198E0,1.930124640E0,-6.891884208E-1,-1.885990947E-1
1.232994948E0,1.843384266E0,-9.897252917E-1,-1.739387512E-1
1.242707969E0,1.776191115E0,-1.082574010E0,-1.409530044E-1
1.252421823E0,1.719993114E0,-9.579612017E-1,-1.091889441E-1
1.262136354E0,1.632031202E0,-7.160657048E-1,-8.597674966E-2
1.271850104E0,1.479319334E0,-4.375193417E-1,-8.231166750E-2
1.281563125E0,1.253305912E0,-1.284306347E-1,-1.360662282E-1
1.291276979E0,9.990406632E-1,2.076880634E-1,-2.606790662E-1
1.300991562E0,7.730271816E-1,4.886777997E-1,-4.292729199E-1
1.310705260E0,6.044333577E-1,6.633801460E-1,-6.161921620E-1
1.320418281E0,4.651601911E-1,6.939224601E-1,-7.603521347E-1
1.330132135E0,3.124483824E-1,5.143333673E-1,-7.933378816E-1
1.339846719E0,1.585148573E-1,2.089097649E-1,-6.858287454E-1
1.349560469E0,5.833591148E-2,-1.236965694E-2,-4.695888162E-1
1.359273437E0,3.756710514E-2,-6.245913357E-2,-2.472404242E-1
1.368987292E0,4.123219103E-2,3.649812192E-2,-5.176930502E-2
1.378701875E0,-2.107422985E-2,1.966928244E-1,9.972081333E-2
1.388415625E0,-2.116585821E-1,3.249707520E-1,1.644706279E-1
1.398128646E0,-4.889832437E-1,4.043808877E-1,1.754658818E-1
1.407842500E0,-7.479824424E-1,4.569137394E-1,1.852394342E-1
1.417557083E0,-9.287932515E-1,5.033381581E-1,1.852394342E-1
1.427270781E0,-9.886562824E-1,4.911212027E-1,1.473668963E-1
1.436983802E0,-9.410101771E-1,4.532486796E-1,8.872556686E-2
1.446697656E0,-8.432746530E-1,4.263713956E-1,1.420219894E-2
1.456412240E0,-7.455390692E-1,3.982724249E-1,-7.620319724E-2
1.466125990E0,-6.746807694E-1,3.213056624E-1,-1.653869003E-1
1.475839010E0,-6.478035450E-1,1.588202864E-1,-2.435753495E-1
1.485552865E0,-6.636855602E-1,-8.078455180E-2,-3.132119179E-1
1.495267448E0,-7.186617851E-1,-3.361186981E-1,-3.767400384E-1
1.504981146E0,-8.102889061E-1,-5.474718809E-1,-4.170559645E-1
1.514694167E0,-9.226847887E-1,-6.537593007E-1,-4.085040987E-1
1.524408021E0,-1.027750492E0,-6.317687631E-1,-3.571929336E-1
1.534122604E0,-1.135259628E0,-5.144860744E-1,-2.851129472E-1
1.543836354E0,-1.267202616E0,-3.239017725E-1,-2.044811249E-1
1.553549375E0,-1.450456858E0,-1.149920002E-1,-1.214058921E-1
1.563263229E0,-1.644706249E0,-1.675248593E-1,-4.199574888E-2
1.572977812E0,-1.858502746E0,-7.172874212E-1,6.917845458E-2
1.582691562E0,-2.144379377E0,-1.241394401E0,3.539859951E-1
1.592404531E0,-2.286095858E0,-6.500942111E-1,7.840224504E-1
1.602118385E0,-1.726559758E0,5.619794726E-1,1.137092113E0
1.611832969E0,-6.697940230E-1,2.058555365E0,1.190846682E0
1.621546719E0,-1.395785958E-1,3.004146814E0,9.342908859E-1
1.631259740E0,-2.751866877E-1,2.692614794E0,5.738909841E-1
1.640973594E0,-5.073086619E-1,1.298661232E0,2.609844804E-1
1.650688177E0,-6.478035450E-1,-3.116848171E-1,-6.520794332E-2
1.660401927E0,-6.160394549E-1,-1.345238328E0,-3.633013964E-1
1.670114948E0,-5.354076028E-1,-1.517497301E0,-6.601731777E-1
1.679828802E0,-4.450022280E-1,-1.152210593E0,-7.420266867E-1
1.689543385E0,-2.104368806E-1,-7.661551833E-1,-5.685460567E-1
1.699257135E0,1.206423342E-1,-5.059342384E-1,-3.828485310E-1
1.708970156E0,4.419479966E-1,-3.080197275E-1,-2.032594234E-1
1.718684010E0,7.388197780E-1,-2.554868758E-1,-1.145338640E-2
1.728398594E0,9.562813640E-1,-3.031329513E-1,2.047865391E-1
1.738112344E0,1.115101695E0,-2.884726226E-1,4.077405334E-1
1.747825312E0,1.261857748E0,-4.535540938E-2,5.909947157E-1
1.757539219E0,1.401130915E0,3.787252903E-1,7.339329720E-1
1.767253802E0,1.534295559E0,8.466343284E-1,8.304468393E-1
1.776967552E0,1.663795233E0,1.161831498E0,8.817580342E-1
1.786680521E0,1.779856205E0,1.176491857E0,8.805363178E-1
1.796394375E0,1.873926640E0,9.236010313E-1,8.182299137E-1
1.806109010E0,1.937454820E0,5.485408306E-1,7.021689415E-1
1.815822708E0,1.967997193E0,1.343863904E-1,5.506787896E-1
1.825535729E0,1.978992462E0,-2.176143378E-1,3.613161445E-1
1.835249583E0,1.969218850E0,-4.191939235E-1,1.485885978E-1
1.844964167E0,1.910577536E0,-4.827220440E-1,-5.176930502E-2
1.854677917E0,1.784742951E0,-4.680617154E-1,-2.057028115E-1
1.864390937E0,1.558729529E0,-4.411844313E-1,-3.193204105E-1
1.874104792E0,1.241088867E0,-4.179722369E-1,-4.194993675E-1
1.883819375E0,9.220739603E-1,-3.312319219E-1,-5.428904891E-1
1.893533125E0,6.789567471E-1,-1.638597846E-1,-7.078192830E-1
1.903246146E0,5.311316848E-1,4.734066315E-3,-9.032903910E-1
1.912960000E0,4.333961308E-1,1.220167428E-1,-1.112200141E0
1.922674583E0,3.759764731E-1,1.685938388E-1,-1.311336398E0
1.932388333E0,3.124483824E-1,1.293469071E-1,-1.420067191E0
1.942101354E0,2.024958730E-1,-1.481304597E-2,-1.395633221E0
1.951815208E0,3.512371704E-2,-2.542651594E-1,-1.195275426E0
1.961529844E0,-1.688992679E-1,-4.314108789E-1,-8.104416132E-1
1.971243594E0,-3.545968235E-1,-3.727695346E-1,-3.645231128E-1
1.980956562E0,-4.902049303E-1,-1.565296054E-1,9.315420873E-3
1.990670417E0,-6.013791561E-1,8.658760041E-2,2.684673667E-1
2.000385052E0,-7.174401283E-1,3.017585576E-1,4.199574888E-1
2.010098802E0,-8.322793841E-1,4.300364852E-1,4.773771465E-1
2.019811771E0,-9.226847887E-1,4.324798584E-1,4.627167881E-1
2.029525677E0,-9.617789984E-1,3.310792148E-1,3.881934285E-1
2.039240260E0,-9.422318935E-1,1.490467340E-1,2.757975459E-1
2.048954010E0,-8.725953102E-1,-6.490252167E-2,1.278197914E-1
2.058667031E0,-7.675296068E-1,-2.444916219E-1,-4.077405483E-2
2.068380885E0,-6.759024858E-1,-3.666610718E-1,-1.910424829E-1
2.078095469E0,-6.392516494E-1,-4.534013867E-1,-2.985515893E-1
2.087809219E0,-6.759024858E-1,-5.291464329E-1,-3.559712470E-1
2.097522240E0,-8.054021001E-1,-5.853443742E-1,-3.425326049E-1
2.107236094E0,-9.947647452E-1,-6.403206587E-1,-2.606790662E-1
2.116950677E0,-1.187792540E0,-7.331694365E-1,-1.788255423E-1
2.126664427E0,-1.352721214E0,-8.443436027E-1,-1.470614821E-1
2.136377448E0,-1.438239813E0,-8.761076927E-1,-1.641651988E-1
2.146091302E0,-1.450456858E0,-8.516737819E-1,-1.776038408E-1
2.155805937E0,-1.452900171E0,-8.638907075E-1,-1.446180940E-1
2.165519687E0,-1.515206575E0,-9.775083065E-1,-6.520794332E-2
2.175232708E0,-1.753437042E0,-1.235285878E0,1.094943732E-1
2.184946458E0,-2.275100708E0,-1.225512266E0,3.759764731E-1
2.194661146E0,-3.004452229E0,1.673721522E-1,6.423059106E-1
2.204374896E0,-3.302545786E0,1.970593214E0,8.622109294E-1
2.214087917E0,-2.661156178E0,3.348664761E0,1.062568784E0
2.223801771E0,-1.649592996E0,3.921639442E0,1.116323352E0
2.233516354E0,-8.945857882E-1,3.470834017E0,9.807152748E-1
2.243230104E0,-4.474456310E-1,2.426285267E0,7.156075835E-1
2.252943125E0,-2.336490750E-1,1.128845692E0,4.358395338E-1
2.262656979E0,-1.615691036E-1,-1.125486046E-1,1.620272398E-1
2.272371615E0,-1.701209545E-1,-9.090934396E-1,-9.208522737E-2
2.282085365E0,-1.517955512E-1,-1.315917730E0,-2.692309320E-1
2.291798385E0,-2.718270384E-2,-1.428313613E0,-2.863346636E-1
2.301512240E0,2.208212912E-1,-1.344016671E0,-1.556133330E-1
2.311226823E0,5.445703268E-1,-1.153432369E0,1.786728203E-2
2.320940573E0,9.171871543E-1,-9.494093657E-1,1.559187621E-1
2.330653594E0,1.271631241E0,-7.343910933E-1,2.084516287E-1
2.340367448E0,1.535517335E0,-4.692834020E-1,1.791309565E-1
2.350082031E0,1.708997965E0,-2.554868758E-1,1.388150454E-1
2.359795885E0,1.832389116E0,-1.724116355E-1,1.314848661E-1
2.369508854E0,1.949671745E0,-5.879404768E-2,1.620272398E-1
2.379222708E0,2.119487286E0,1.453816444E-1,1.889045089E-1
2.388937292E0,2.324732065E0,3.420744538E-1,1.644706279E-1
2.398651042E0,2.506764412E0,4.288147688E-1,1.058292910E-1
2.408364062E0,2.628933907E0,3.897205591E-1,4.474456236E-2
2.418077917E0,2.637485743E0,2.724378705E-1,-7.788302377E-3
2.427792500E0,2.516537905E0,7.925742865E-2,-3.344388679E-2
2.437506250E0,2.270977497E0,-1.687465608E-1,-2.489202656E-2
2.447219271E0,1.927681208E0,-4.362976551E-1,3.206948051E-3
2.456933177E0,1.548955917E0,-6.684195995E-1,3.252761811E-2
2.466647760E0,1.199398637E0,-8.394568563E-1,6.306997687E-2
2.476361510E0,9.147437811E-1,-9.371923804E-1,8.750387281E-2
2.486074531E0,7.131641507E-1,-9.689564705E-1,9.972081333E-2
2.495788385E0,5.873296261E-1,-9.652913809E-1,8.139539510E-2
2.505502969E0,5.201364160E-1,-9.323056340E-1,3.206948051E-3
2.515216719E0,5.066977739E-1,-8.492304087E-1,-1.397313178E-1
2.524929740E0,5.396835804E-1,-6.232169271E-1,-3.180987239E-1
2.534643646E0,6.007682681E-1,-2.762556672E-1,-4.830274582E-1
2.544358229E0,6.471926570E-1,4.016320780E-2,-6.064186096E-1
2.554071979E0,6.313106418E-1,2.309002578E-1,-6.662816405E-1
2.563785000E0,4.810422063E-1,2.822114229E-1,-5.880932212E-1
2.573498854E0,2.220429778E-1,3.078670204E-1,-3.718532622E-1
2.583213490E0,-3.573456407E-2,3.078670204E-1,-1.776038408E-1
2.592927240E0,-2.458660156E-1,2.296785712E-1,-2.611372061E-2
2.602640260E0,-4.120164812E-1,7.314895838E-2,1.204896197E-1
2.612354115E0,-5.512896776E-1,-5.757235363E-2,2.548760176E-1
2.622068698E0,-6.746807694E-1,-1.088835225E-1,3.698680103E-1
2.631782448E0,-7.650861740E-1,-1.272089481E-1,4.492781460E-1
2.641495469E0,-8.017370105E-1,-1.162136942E-1,4.810422063E-1
2.651209323E0,-7.919634581E-1,-4.535540938E-2,4.407263100E-1
2.660923958E0,-7.638645172E-1,7.192726433E-2,3.405473530E-1
2.670637708E0,-7.443174124E-1,1.588202864E-1,2.096733153E-1
2.680350729E0,-7.553126216E-1,1.954711229E-1,7.773031294E-2
2.690064583E0,-8.005153537E-1,1.954711229E-1,-4.199574888E-2
2.699779167E0,-8.750386834E-1,2.040229887E-1,-1.629435122E-1
2.709492917E0,-9.654440880E-1,1.820324808E-1,-2.606790662E-1
2.719205937E0,-1.052184463E0,7.070557028E-2,-2.985515893E-1
2.728919792E0,-1.123042703E0,-1.162136942E-1,-3.009949923E-1
2.738634427E0,-1.187792540E0,-2.457133085E-1,-3.132119179E-1
2.748348177E0,-1.245212078E0,-2.273878902E-1,-3.278722763E-1
2.758061198E0,-1.313627005E0,-1.088835225E-1,-3.290939629E-1
2.767775052E0,-1.390593767E0,4.993676394E-2,-3.156553209E-1
2.777489635E0,-1.466338873E0,1.068982761E-3,-2.655658424E-1
2.787203385E0,-1.557965875E0,-2.176143378E-1,-1.776038408E-1
2.796916406E0,-1.726559758E0,-1.956238300E-1,-5.787777901E-2
2.806630312E0,-1.913479090E0,2.748812735E-1,1.424801201E-1
2.816344896E0,-1.895153642E0,7.635591030E-1,4.333961308E-1
2.826058646E0,-1.874384761E0,1.075091124E0,7.009472251E-1
2.835771667E0,-2.028318405E0,1.385401607E0,9.025267959E-1
2.845485521E0,-2.050308943E0,1.505127668E0,1.078450799E0
2.855200104E0,-1.909814000E0,1.199704051E0,1.108993173E0
2.864913958E0,-1.725338101E0,8.551861644E-1,9.135220647E-1
2.874626927E0,-1.504211426E0,5.961869359E-1,5.482354164E-1
2.884340781E0,-1.219556570E0,3.017585576E-1,1.033858955E-1
2.894055365E0,-9.385668039E-1,-1.003316641E-1,-3.046600819E-1
2.903769115E0,-6.514685750E-1,-5.670189857E-1,-5.196782947E-1
2.913482135E0,-3.155026138E-1,-9.127585292E-1,-4.647020400E-1
2.923195990E0,5.833591148E-2,-1.083795786E0,-2.044811249E-1
2.932910625E0,3.820849657E-1,-1.139993668E0,9.239064902E-2
2.942624375E0,6.105418205E-1,-1.049588323E0,3.356605768E-1
2.952337396E0,7.986828089E-1,-8.406785131E-1,4.773771465E-1
2.962051250E0,9.672766328E-1,-6.549809575E-1,4.908157587E-1
2.971765833E0,1.123653531E0,-5.071559548E-1,3.759764731E-1
2.981479583E0,1.299730301E0,-3.165715933E-1,2.047865391E-1
2.991192604E0,1.557507753E0,-2.825168520E-2,1.021642014E-1
3.000906458E0,1.883700252E0,3.066453338E-1,1.156028435E-1
3.010621094E0,2.202562571E0,5.937435627E-1,1.534753740E-1
3.020334844E0,2.461561680E0,7.586722970E-1,1.339282542E-1
3.030047865E0,2.605721712E0,7.831062078E-1,8.872556686E-2
3.039761719E0,2.597169876E0,6.707102656E-1,7.406523079E-2
3.049476302E0,2.453009844E0,4.813476503E-1,1.131594554E-1
3.059190052E0,2.235548258E0,2.919849753E-1,1.815743446E-1
3.068903073E0,1.992431045E0,1.343863904E-1,2.304421216E-1
3.078616927E0,1.744427085E0,2.428117767E-2,2.267770469E-1
3.088331562E0,1.533073902E0,-2.702999115E-2,1.620272398E-1
3.098045312E0,1.396244168E0,-5.268557742E-2,5.451811850E-2
3.107758333E0,1.325385809E0,-6.734590977E-2,-7.864658535E-2
3.117472187E0,1.278961420E0,-6.490252167E-2,-2.215848416E-1
3.127186771E0,1.214211583E0,-1.114796288E-2,-3.608580232E-1
3.136900521E0,1.096776247E0,9.636115283E-2,-4.756973088E-1
3.146613542E0,9.330691695E-1,1.856975704E-1,-5.697677732E-1
3.156327396E0,7.449282408E-1,1.881409585E-1,-6.565080881E-1
3.166042031E0,5.653391480E-1,1.012479365E-1,-7.310314775E-1
3.175755781E0,4.162923992E-1,8.399149403E-3,-7.591304183E-1
3.185468802E0,2.770192325E-1,-1.481304597E-2,-7.224795818E-1
3.195182656E0,1.279724985E-1,4.504998401E-2,-5.990884304E-1
3.204897240E0,-3.573456407E-2,1.869192570E-1,-3.510844707E-1
3.214610990E0,-1.933331639E-1,3.323009014E-1,-2.244863659E-2
3.224324010E0,-3.179459870E-1,3.726168275E-1,2.646495700E-1
3.234037865E0,-4.059080184E-1,3.042019308E-1,4.370612204E-1
3.243752500E0,-4.645493329E-1,2.247917950E-1,5.176930428E-1
3.253466250E0,-5.231906772E-1,1.771457046E-1,5.384618640E-1
3.263179271E0,-5.720584393E-1,1.820324808E-1,5.079194903E-1
3.272893125E0,-6.038225293E-1,2.614426315E-1,4.236225784E-1
3.282607708E0,-6.148177385E-1,3.726168275E-1,2.965663373E-1
3.292321458E0,-6.026008129E-1,4.691306949E-1,1.522536725E-1
3.302034479E0,-5.720584393E-1,5.351021886E-1,8.093725890E-3
3.311748333E0,-5.696150661E-1,5.387672782E-1,-1.214058921E-1
3.321462917E0,-6.233696342E-1,4.520269632E-1,-2.057028115E-1
3.331176771E0,-7.296570539E-1,2.846548259E-1,-2.619007528E-1
3.340889687E0,-8.713735938E-1,9.269607067E-2,-3.107685447E-1
3.350603594E0,-1.048519373E0,-1.052184403E-1,-3.559712470E-1
3.360318177E0,-1.240325332E0,-3.483356535E-1,-3.889569938E-1
3.370031927E0,-1.419914484E0,-6.610894203E-1,-4.072824121E-1
3.379744948E0,-1.578734756E0,-9.872818589E-1,-4.048390090E-1
3.389458802E0,-1.697239161E0,-1.203521848E0,-3.681881726E-1
3.399173385E0,-1.815743446E0,-1.240172625E0,-2.948864996E-1
3.408887135E0,-2.088181257E0,-1.207186937E0,-1.458397806E-1
3.418600156E0,-2.361840963E0,-1.215738773E0,8.628217876E-2
3.428314010E0,-2.560977221E0,-1.331799746E0,3.026748300E-1
3.438028646E0,-2.712467194E0,-1.752062678E0,5.457920432E-1
3.447742396E0,-2.495005608E0,-1.433200359E0,1.028361320E0
3.457455417E0,-1.781535983E0,-3.581092060E-1,1.437628984E0
3.467169271E0,-1.121821046E0,1.218029380E0,1.568350315E0
3.476883854E0,-6.306998134E-1,2.602209330E0,1.455954432E0
3.486597604E0,-3.240544796E-1,2.972382784E0,9.587247968E-1
3.496310625E0,-4.486673176E-1,2.302894115E0,3.087832928E-1
3.506024479E0,-9.898779988E-1,1.122737288E0,-3.718532622E-1
3.515739062E0,-1.346612811E0,-6.368082762E-2,-1.010799527E0
3.525452812E0,-1.261094213E0,-1.019045949E0,-1.410293579E0
3.535165833E0,-9.104678631E-1,-1.668987393E0,-1.435949206E0
3.544879687E0,-4.278984964E-1,-1.934095144E0,-1.258803487E0
3.554594323E0,1.401894391E-1,-1.913326383E0,-1.024238110E0
3.564308073E0,6.447492838E-1,-1.755727768E0,-7.701256871E-1
3.574021094E0,1.013701081E0,-1.539487839E0,-4.475983381E-1
3.583734948E0,1.206881523E0,-1.264606595E0,-7.131642103E-2
3.593449531E0,1.302173615E0,-9.640696645E-1,2.365505993E-1
3.603163281E0,1.380362034E0,-5.621321797E-1,4.248442650E-1
3.612876302E0,1.498866439E0,-2.457133085E-1,5.042544007E-1
3.622590156E0,1.717549801E0,4.871506989E-2,4.859289825E-1
3.632304740E0,2.046185493E0,3.933856487E-1,4.309527278E-1
3.642018490E0,2.457896709E0,6.499415040E-1,3.344388604E-1
3.651731510E0,2.861055851E0,8.551861644E-1,2.145601064E-1
3.661445365E0,3.182361603E0,9.541434050E-1,6.184828654E-2
3.671160000E0,3.364393950E0,9.443698525E-1,-1.043021679E-1
3.680873750E0,3.337516785E0,8.832851648E-1,-2.325800955E-1
3.690586771E0,3.076074123E0,8.124268651E-1,-3.071034551E-1
3.700300625E0,2.620382071E0,7.452336550E-1,-3.315373361E-1
3.710015208E0,2.087723255E0,5.913001299E-1,-2.826695740E-1
3.719728958E0,1.555064440E0,2.919849753E-1,-1.763821393E-1
3.729441979E0,1.038134933E0,-1.272089481E-1,-5.054761097E-2
3.739155833E0,5.714476109E-1,-5.535803437E-1,7.528692484E-2
3.748870417E0,2.110477239E-1,-8.699992299E-1,1.669140160E-1
3.758584167E0,-2.748812549E-3,-1.118003249E0,1.705790907E-1
3.768297187E0,-8.582404256E-2,-1.329356313E0,5.696150661E-2
3.778011042E0,-8.215895295E-2,-1.438087106E0,-1.128540337E-1
3.787725625E0,-1.863084175E-2,-1.386775970E0,-2.582356930E-1
3.797439375E0,5.222744122E-2,-1.105786204E0,-3.290939629E-1
3.807152396E0,7.666133344E-2,-6.525375843E-1,-2.936648130E-1
3.816866250E0,4.123219103E-2,-2.078407854E-1,-1.470614821E-1
3.826580885E0,-2.596100792E-2,1.343863904E-1,7.040014863E-2
3.836294635E0,-1.078145429E-1,4.239279926E-1,2.819060087E-1
3.846007656E0,-2.226538211E-1,7.171346545E-1,4.272876680E-1
3.855721510E0,-3.582619131E-1,9.969027042E-1,4.981459379E-1
3.865436094E0,-4.999784827E-1,1.191152096E0,5.164713860E-1
3.875149844E0,-6.355865598E-1,1.280335903E0,4.798205197E-1
3.884862865E0,-7.577560544E-1,1.301104665E0,3.881934285E-1
3.894576719E0,-8.664868474E-1,1.269340634E0,2.709107697E-1
3.904291302E0,-9.752176404E-1,1.177713513E0,1.351499557E-1
3.914005052E0,-1.063179612E0,1.046992183E0,-1.389677543E-2
3.923718073E0,-1.149919987E0,9.297095537E-1,-1.543916464E-1
3.933431927E0,-1.261094213E0,8.674030900E-1,-2.753393948E-1
3.943146510E0,-1.384485364E0,7.464553714E-1,-3.486410677E-1
3.952860260E0,-1.517650008E0,4.862344265E-1,-3.657447994E-1
3.962573281E0,-1.620272398E0,1.563768983E-1,-3.461976945E-1
3.972287135E0,-1.669140100E0,-2.286095917E-1,-3.046600819E-1
3.982001719E0,-1.691130638E0,-5.621321797E-1,-2.704526186E-1
3.991715469E0,-1.698460817E0,-7.319477201E-1,-2.411319613E-1
4.001428490E0,-1.689908981E0,-7.221741676E-1,-1.983726472E-1
4.011142344E0,-1.696017385E0,-5.315898061E-1,-1.568350345E-1
4.020856927E0,-1.782757759E0,-1.430909634E-1,-1.030804738E-1
4.030570677E0,-2.000219345E0,1.918060333E-1,-4.123218823E-3
4.040283698E0,-2.221346140E0,2.794626169E-2,1.375933439E-1
4.049997552E0,-2.290982723E0,-5.633538961E-1,2.929012477E-1
4.059712135E0,-2.105285168E0,-8.712208867E-1,5.042544007E-1
4.069425885E0,-1.543305635E0,-5.022691488E-1,8.157865405E-1
4.079138906E0,-7.711946368E-1,-3.069507517E-2,1.181073189E0
4.088852760E0,-3.790307343E-1,3.066453338E-1,1.416860223E0
4.098567344E0,-5.170822144E-1,9.150491953E-1,1.217723966E0
4.108281094E0,-7.553126216E-1,1.077534556E0,6.667397618E-1
4.117994115E0,-9.275715351E-1,3.090887070E-1,8.628217876E-2
4.127707969E0,-9.080244303E-1,-5.560237169E-1,-3.633013964E-1
4.137422552E0,-6.832326651E-1,-1.014159203E0,-6.797202826E-1
4.147136302E0,-3.961344361E-1,-1.041036487E0,-9.032903910E-1
4.156849323E0,-1.395785958E-1,-9.286405444E-1,-9.582666159E-1
4.166563177E0,1.304158866E-1,-9.677347541E-1,-7.493568659E-1
4.176277760E0,4.333961308E-1,-1.081352353E0,-3.962871730E-1
4.185991510E0,7.192726731E-1,-1.188861489E0,-2.855710872E-2
4.195704531E0,9.220739603E-1,-1.137550354E0,2.658712566E-1
4.205418385E0,1.107771516E0,-9.481876493E-1,4.016320705E-1
4.215132969E0,1.387692213E0,-7.001836896E-1,3.784198761E-1
4.224846719E0,1.724879980E0,-4.301891923E-1,2.892361879E-1
4.234559740E0,2.055959225E0,-1.956238300E-1,2.182251811E-1
4.244273594E0,2.305184841E0,-6.856760383E-2,1.620272398E-1
4.253988177E0,2.434684515E0,-2.947338112E-2,9.239064902E-2
4.263701927E0,2.487217426E0,-7.834116369E-2,2.275406010E-2
4.273414948E0,2.511651278E0,-2.017323077E-1,-2.611372061E-2
4.283128802E0,2.505542755E0,-3.263451457E-1,-5.421269313E-2
4.292843385E0,2.454231501E0,-3.727695346E-1,-5.787777901E-2
4.302557135E0,2.336948872E0,-3.263451457E-1,-4.688252881E-2
4.312270156E0,2.167133331E0,-2.567085624E-1,-4.443913698E-2
4.321984010E0,1.992431045E0,-1.944021434E-1,-7.620319724E-2
4.331698594E0,1.792073131E0,-1.675248593E-1,-1.385096163E-1
4.341412344E0,1.519635320E0,-1.882936656E-1,-1.934858710E-1
4.351125365E0,1.162747741E0,-2.823641598E-1,-2.276933193E-1
4.360839219E0,8.060129285E-1,-4.411844313E-1,-2.496838123E-1
4.370553802E0,5.286883116E-1,-4.827220440E-1,-2.753393948E-1
4.380267552E0,3.881934285E-1,-3.666610718E-1,-3.132119179E-1
4.389980521E0,3.845283389E-1,-2.408265322E-1,-3.523061574E-1
4.399694375E0,4.358395338E-1,-1.406475753E-1,-3.437542915E-1
4.409408958E0,4.358395338E-1,-8.704573847E-3,-1.995943487E-1
4.419122708E0,3.613161445E-1,1.637070626E-1,1.420219894E-2
4.428835729E0,2.379250079E-1,2.919849753E-1,2.365505993E-1
4.438549583E0,8.399149776E-2,3.213056624E-1,4.138490260E-1
4.448264167E0,-7.238540053E-2,2.797680497E-1,4.957025647E-1
4.457977917E0,-2.116585821E-1,1.747023165E-1,4.871506989E-1
4.467690937E0,-3.362714052E-1,7.559234649E-2,4.150707126E-1
4.477404792E0,-4.376720488E-1,3.894151375E-2,3.014531136E-1
4.487119375E0,-4.999784827E-1,4.749337584E-2,1.693574041E-1
4.496833125E0,-5.354076028E-1,3.894151375E-2,1.542389300E-2
4.506546146E0,-5.622848868E-1,-3.558185324E-2,-1.360662282E-1
4.516260000E0,-5.830537081E-1,-1.614163816E-1,-2.570139766E-1
4.525974583E0,-6.013791561E-1,-2.701472044E-1,-3.400892019E-1
4.535688333E0,-6.233696342E-1,-3.006895781E-1,-3.901786804E-1
4.545401302E0,-6.649072170E-1,-2.774773538E-1,-4.170559645E-1
4.555115156E0,-7.455390692E-1,-2.701472044E-1,-4.280512035E-1
4.564829740E0,-8.713735938E-1,-3.312319219E-1,-4.121691883E-1
4.574543490E0,-1.043632507E0,-4.643966258E-1,-3.767400384E-1
4.584256510E0,-1.257429123E0,-6.244385839E-1,-3.290939629E-1
4.593970365E0,-1.471225619E0,-7.771504521E-1,-2.655658424E-1
4.603684948E0,-1.605612040E0,-8.944330812E-1,-1.776038408E-1
4.613398698E0,-1.620272398E0,-9.286405444E-1,-6.642963737E-2
4.623111719E0,-1.540862203E0,-8.015843034E-1,6.306997687E-2
4.632825573E0,-1.401589036E0,-4.912739098E-1,1.632489264E-1
4.642540156E0,-1.276976228E0,-7.467607409E-2,1.974563748E-1
4.652253906E0,-1.318513751E0,3.469612300E-1,1.962346882E-1
4.661966875E0,-1.557965875E0,4.947862923E-1,1.974563748E-1
4.671680729E0,-1.780314326E0,3.603998721E-1,1.742441803E-1
4.681395312E0,-1.946464777E0,6.707102656E-1,1.522536725E-1
4.691109062E0,-1.847507477E0,1.349972486E0,3.100049794E-1
4.700822083E0,-1.511541486E0,1.558882236E0,5.848862529E-1
4.710535937E0,-1.301410079E0,1.503905892E0,8.060129285E-1
4.720250521E0,-1.130372882E0,1.293774486E0,7.033905983E-1
4.729964271E0,-1.032637239E0,8.551861644E-1,2.377723008E-1
4.739677240E0,-1.157250166E0,2.638860047E-1,-2.985515893E-1
4.749391094E0,-1.294079900E0,-3.263451457E-1,-6.516213417E-1
4.759105677E0,-1.274532795E0,-7.233958840E-1,-8.018897176E-1
4.768819427E0,-1.140146375E0,-8.162446618E-1,-8.043331504E-1
4.778532448E0,-9.605573416E-1,-6.720846891E-1,-7.395833135E-1
4.788246302E0,-7.321004272E-1,-5.157077909E-1,-6.161921620E-1
4.797960885E0,-3.753656447E-1,-4.558447599E-1,-4.097257853E-1
4.807674635E0,6.810946763E-2,-3.287885487E-1,-1.250709742E-1
4.817387604E0,4.993676245E-1,-1.504211426E-1,1.204896197E-1
4.827101458E0,8.597674966E-1,2.305948362E-2,2.524326444E-1
4.836816042E0,1.157860994E0,1.244601309E-1,2.806843221E-1
4.846529792E0,1.393800735E0,1.305686086E-1,2.328855246E-1
4.856242812E0,1.564837933E0,6.337540597E-2,1.754658818E-1
4.865956667E0,1.691894174E0,-4.657710344E-2,1.571404636E-1
4.875671250E0,1.815285325E0,-1.724116355E-1,1.644706279E-1
4.885384948E0,1.948450089E0,-2.713688910E-1,1.510319859E-1
4.895097969E0,2.054737568E0,-3.458922505E-1,1.046075895E-1
4.904811823E0,2.098718405E0,-4.277457893E-1,5.573981255E-2
4.914526406E0,2.087723255E0,-5.499152541E-1,1.175880991E-2
4.924240156E0,2.042520523E0,-6.977402568E-1,-5.344913341E-3
4.933953177E0,1.953336835E0,-7.942541242E-1,2.153236605E-2
4.943666927E0,1.826280594E0,-7.747070193E-1,6.795676053E-2
4.953381562E0,1.694337606E0,-6.843016148E-1,1.021642014E-1
4.963095312E0,1.588050127E0,-6.390989423E-1,9.849911928E-2
4.972808333E0,1.482984424E0,-6.183301210E-1,5.451811850E-2
4.982522187E0,1.330272675E0,-5.596888065E-1,-2.611372061E-2
4.992236771E0,1.119988441E0,-4.839437306E-1,-1.299577504E-1
5.001950469E0,8.890882134E-1,-3.764346242E-1,-2.240282297E-1
5.011663490E0,7.094991207E-1,-2.005106062E-1,-2.777827978E-1
5.021377344E0,6.349757314E-1,1.068982761E-3,-2.948864996E-1
5.031091927E0,6.642963886E-1,1.478250325E-1,-3.303156495E-1
5.040805677E0,7.547017932E-1,2.455606014E-1,-3.804051280E-1
5.050518646E0,7.852441669E-1,2.822114229E-1,-3.779617548E-1
5.060232500E0,6.752916574E-1,2.834331393E-1,-2.509055138E-1
5.069947083E0,4.346178174E-1,3.042019308E-1,1.420219894E-2
5.079660833E0,1.291942000E-1,3.139754832E-1,2.965663373E-1
5.089373854E0,-1.872246861E-1,3.591781855E-1,5.054761171E-1
5.099087604E0,-4.694361091E-1,4.165978432E-1,5.995466113E-1
5.108802240E0,-6.685723066E-1,4.483618736E-1,5.995466113E-1
5.118515990E0,-7.638645172E-1,4.508052766E-1,5.311316848E-1
5.128229010E0,-7.345438004E-1,4.385883212E-1,3.833066523E-1
5.137942865E0,-5.867187977E-1,4.153761268E-1,1.815743446E-1
5.147657448E0,-3.973561525E-1,3.836120665E-1,-3.222219273E-2
5.157371146E0,-2.446443290E-1,3.640649617E-1,-2.203631550E-1
5.167084167E0,-1.982199401E-1,3.494046330E-1,-3.547495604E-1
5.176798021E0,-2.898470163E-1,3.188622594E-1,-4.109475017E-1
5.186512604E0,-5.134171247E-1,2.370087355E-1,-3.840702176E-1
5.196226354E0,-8.261709213E-1,8.658760041E-2,-2.899997234E-1
5.205939323E0,-1.151141644E0,-1.186570823E-1,-1.592784226E-1
5.215653177E0,-1.407697558E0,-3.520007432E-1,-3.588727489E-2
5.225367760E0,-1.544527292E0,-5.865660906E-1,4.230117425E-2
5.235081510E0,-1.556744218E0,-7.429429889E-1,7.284353673E-2
5.244794479E0,-1.471225619E0,-7.197307944E-1,6.795676053E-2
5.254508333E0,-1.309961915E0,-5.633538961E-1,3.374931216E-2
5.264222917E0,-1.124264359E0,-4.081986845E-1,-3.833066672E-2
5.273936667E0,-1.086391807E0,-2.567085624E-1,-1.299577504E-1
5.283649687E0,-1.341725945E0,-6.261184346E-3,-1.653869003E-1
5.293363437E0,-1.769319057E0,1.869192570E-1,-1.311794519E-1
5.303078073E0,-2.124832153E0,1.588202864E-1,-1.043021679E-1
5.312791823E0,-2.453468084E0,3.017585576E-1,-8.719844371E-2
5.322504844E0,-2.571972370E0,1.022558331E0,8.017370105E-2
5.332218594E0,-2.074742794E0,1.541778445E0,4.798205197E-1
5.341933229E0,-1.248877168E0,1.770235300E0,8.365553021E-1
5.351646979E0,-5.891621709E-1,2.019461155E0,8.426637650E-1
5.361360000E0,-3.362714052E-1,1.693268657E0,5.286883116E-1
5.371073750E0,-6.380299330E-1,8.026533127E-1,1.094943732E-1
5.380788385E0,-1.091278672E0,4.382828996E-2,-2.215848416E-1
5.390502135E0,-1.230551839E0,-4.509579837E-1,-3.596363366E-1
5.400215156E0,-1.063179612E0,-5.914528370E-1,-3.388675153E-1
5.409929010E0,-7.235485911E-1,-5.560237169E-1,-2.423536479E-1
5.419643542E0,-3.338280320E-1,-5.816792846E-1,-1.592784226E-1
5.429357292E0,3.145863488E-2,-6.024481058E-1,-5.543438718E-2
5.439070312E0,3.662029207E-1,-4.998257756E-1,6.551336497E-2
5.448784167E0,6.911736727E-1,-3.031329513E-1,1.608055383E-1
5.458498698E0,1.027139664E0,-1.198787764E-1,2.267770469E-1
5.468212448E0,1.352263093E0,2.428117767E-2,2.426590770E-1
5.477925469E0,1.649134874E0,1.220167428E-1,2.060082406E-1
5.487639323E0,1.931346297E0,1.832541823E-1,1.669140160E-1
5.497353906E0,2.164690018E0,2.687727809E-1,1.461452097E-1
5.507067604E0,2.349165916E0,3.396310806E-1,1.473668963E-1
5.516780625E0,2.499434233E0,3.689517379E-1,1.485885978E-1
5.526494375E0,2.616716862E0,3.713951409E-1,1.290414780E-1
5.536209010E0,2.702235460E0,3.396310806E-1,8.994726092E-2
5.545922760E0,2.753546715E0,3.090887070E-1,3.497100621E-2
5.555635781E0,2.755990028E0,2.687727809E-1,-1.023169141E-2
5.565349635E0,2.658254623E0,2.235700935E-1,-4.688252881E-2
5.575064167E0,2.421245813E0,1.771457046E-1,-7.009471953E-2
5.584777917E0,2.063289404E0,1.417165697E-1,-8.353336155E-2
5.594490937E0,1.671125412E0,1.024696305E-1,-1.238492802E-1
5.604204687E0,1.329050899E0,3.283303976E-2,-2.240282297E-1
5.613919323E0,1.044243336E0,-1.162136942E-1,-3.681881726E-1
5.623633073E0,7.681404352E-1,-3.177932799E-1,-5.563291311E-1
5.633346094E0,4.834856093E-1,-4.900522232E-1,-7.713474035E-1
5.643059844E0,3.307738006E-1,-5.633538961E-1,-9.326110482E-1
5.652774479E0,3.796415627E-1,-3.434488773E-1,-9.936957955E-1
5.662488229E0,5.641174316E-1,9.636115283E-2,-9.814788103E-1
5.672201250E0,7.156075835E-1,3.347443044E-1,-9.118422270E-1
5.681915000E0,7.009472251E-1,2.687727809E-1,-7.725690603E-1
5.691629635E0,4.614951015E-1,5.955760833E-3,-5.844281316E-1
5.701343385E0,4.367557913E-2,-3.581092060E-1,-3.742966652E-1
5.711056354E0,-3.839175105E-1,-6.635328531E-1,-1.910424829E-1
5.720770208E0,-7.174401283E-1,-7.991409302E-1,5.650337320E-3
5.730484792E0,-9.776610136E-1,-8.174663186E-1,2.279987335E-1
5.740198542E0,-1.211004734E0,-7.869240046E-1,4.492781460E-1
5.749911510E0,-1.384485364E0,-7.404996157E-1,6.276455522E-1
5.759625365E0,-1.462673783E0,-6.769714952E-1,7.388197780E-1
5.769339948E0,-1.450456858E0,-5.926745534E-1,7.791357040E-1
5.779053698E0,-1.379598498E0,-4.717268050E-1,7.547017932E-1
5.788766667E0,-1.300188422E0,-3.300102353E-1,6.728482842E-1
5.798480521E0,-1.247655511E0,-1.992889196E-1,5.421269536E-1
5.808195104E0,-1.225664973E0,-9.300149232E-2,3.955236077E-1
5.817908854E0,-1.229330063E0,-3.436015919E-2,2.536543310E-1
5.827621823E0,-1.235438585E0,-1.603474095E-2,1.400367320E-1
5.837335677E0,-1.220778227E0,-1.374406274E-3,8.383878320E-2
5.847050260E0,-1.202452779E0,5.482354015E-2,8.017370105E-2
5.856764010E0,-1.221999884E0,1.232384369E-1,8.750387281E-2
5.866476979E0,-1.292858243E0,8.780929446E-2,8.261708915E-2
5.876190833E0,-1.340504289E0,-7.223268598E-2,5.818320066E-2
5.885905417E0,-1.346612811E0,-2.811424434E-1,1.542389300E-2
5.895619115E0,-1.364938259E0,-3.910949528E-1,-2.244863659E-2
5.905332135E0,-1.356386304E0,-3.129065037E-1,-8.597674966E-2
5.915045990E0,-1.307518601E0,-1.296523362E-1,-2.093679011E-1
5.924760573E0,-1.487107635E0,4.214846194E-1,-3.413109183E-1
5.934474271E0,-1.884158373E0,1.496575832E0,-3.205420971E-1
5.944187292E0,-1.804748178E0,2.240587711E0,-1.250709742E-1
5.953901146E0,-1.165802002E0,2.236922741E0,5.940489471E-2
5.963615677E0,-9.031376839E-1,1.827654958E0,1.473668963E-1
5.973329427E0,-1.215891480E0,1.084864736E0,2.560977042E-1
5.983042448E0,-1.550635815E0,1.244601309E-1,3.564293683E-1
5.992756302E0,-1.578734756E0,-2.127275616E-1,3.515425920E-1
6.002470885E0,-1.208561301E0,5.971032009E-2,2.867927849E-1
6.012184583E0,-6.465818286E-1,1.661504507E-1,1.485885978E-1
6.021897604E0,-9.437590092E-2,-4.169032723E-2,-6.642963737E-2
6.031611458E0,3.515425920E-1,-3.800997138E-1,-2.105895877E-1
6.041325990E0,6.068767309E-1,-6.305471063E-1,-1.091889441E-1
6.051039740E0,7.485933304E-1,-6.012263894E-1,1.278197914E-1
6.060752760E0,9.684983492E-1,-3.935383558E-1,3.723114133E-1
6.070466510E0,1.283848286E0,-1.956238300E-1,5.409052372E-1
6.080181146E0,1.570946455E0,-3.680354729E-2,5.983248949E-1
6.089894896E0,1.800624967E0,6.948387623E-2,5.225798488E-1
6.099607917E0,2.008313179E0,2.076880634E-1,3.613161445E-1
6.109321667E0,2.217222929E0,3.750602305E-1,2.047865391E-1
6.119036302E0,2.428575993E0,5.021164417E-1,1.119377613E-1
6.128750052E0,2.606943369E0,5.607577562E-1,9.239064902E-2
6.138463073E0,2.726669550E0,5.057815313E-1,1.253764033E-1
6.148176823E0,2.751103401E0,3.127537966E-1,1.656923145E-1
6.157891458E0,2.686353445E0,5.604523420E-2,1.998997629E-1
6.167605208E0,2.572736025E0,-1.919587553E-1,2.108950168E-1
6.177318177E0,2.435906172E0,-3.410054743E-1,1.742441803E-1
6.187032031E0,2.261203766E0,-2.970244884E-1,1.021642014E-1
6.196746615E0,1.985100865E0,-1.479777545E-1,3.374931216E-2
6.206460365E0,1.612484097E0,-9.544488788E-2,9.315420873E-3
6.216173333E0,1.221541762E0,-2.701472044E-1,3.374931216E-2
6.225887187E0,8.756495714E-1,-5.657972693E-1,6.184828654E-2
6.235601771E0,6.056550741E-1,-7.661551833E-1,2.153236605E-2
6.245315521E0,4.077405334E-1,-8.223531246E-1,-9.452861547E-2
6.255028490E0,2.990097404E-1,-7.881456614E-1,-2.631224692E-1
6.264742344E0,2.623589039E-1,-6.696413159E-1,-4.158342779E-1
6.274456927E0,2.440334857E-1,-4.399627447E-1,-4.610369802E-1
6.284170677E0,1.756185889E-1,-2.214321308E-2,-3.633013964E-1
6.293883646E0,5.589252338E-2,5.302154422E-1,-2.069245130E-1
6.303597500E0,-8.338065445E-2,1.016449809E0,-5.665608495E-2
6.313312083E0,-2.312056869E-1,1.285222650E0,5.696150661E-2
6.323025781E0,-3.888042867E-1,1.308434844E0,1.156028435E-1
6.332738802E0,-5.476245880E-1,1.094638348E0,1.131594554E-1
6.342452656E0,-6.661289334E-1,6.951441765E-1,9.239064902E-2
6.352167240E0,-7.101099491E-1,2.687727809E-1,8.872556686E-2
6.361880937E0,-6.551336646E-1,-2.092151903E-2,8.872556686E-2
6.371593958E0,-5.305208564E-1,-9.666658193E-2,7.650861889E-2
6.381307812E0,-3.863608837E-1,-6.368082762E-2,2.764083818E-2
6.391022396E0,-2.935121059E-1,-6.856760383E-2,-6.276455522E-2
6.400736094E0,-3.301629424E-1,-1.601946950E-1,-1.592784226E-1
6.410449115E0,-4.889832437E-1,-3.226800561E-1,-2.472404242E-1
6.420162969E0,-7.186617851E-1,-5.218162537E-1,-3.058817685E-1
6.429877500E0,-9.422318935E-1,-7.001836896E-1,-3.083251417E-1
6.439591250E0,-1.112047434E0,-7.918107510E-1,-2.582356930E-1
6.449304271E0,-1.230551839E0,-7.453863621E-1,-1.849340051E-1
6.459018021E0,-1.301410079E0,-5.621321797E-1,-1.214058921E-1
6.468732656E0,-1.357608080E0,-2.640387416E-1,-7.253811508E-2
6.478446406E0,-1.400367379E0,6.704048812E-2,-4.581354442E-4
6.488159427E0,-1.470003963E0,3.384093940E-1,7.528692484E-2
6.497873177E0,-1.729003191E0,6.401679516E-1,1.180462316E-1
6.507587812E0,-2.152931213E0,9.223793745E-1,9.727742523E-2
6.517301562E0,-2.421704054E0,8.625163436E-1,4.428642802E-3
6.527014531E0,-2.431477547E0,5.473191738E-1,-4.566083103E-2
6.536728385E0,-2.271435499E0,3.274141252E-1,3.252761811E-2
6.546442969E0,-1.837733984E0,2.418955117E-1,3.234436214E-1
6.556156719E0,-1.132816195E0,1.661504507E-1,6.423059106E-1
6.565869687E0,-6.978929639E-1,5.351021886E-1,7.107207775E-1
6.575583542E0,-1.024085402E0,1.254680276E0,4.871506989E-1
6.585298125E0,-1.604390383E0,1.546665311E0,4.596625641E-2
6.595011823E0,-1.875606537E0,9.663603902E-1,-4.463766217E-1
6.604724844E0,-1.687465549E0,1.317902952E-1,-7.908945084E-1
6.614438698E0,-1.143811464E0,-6.867450476E-1,-9.081771374E-1
6.624153281E0,-5.622848868E-1,-1.373337388E0,-8.104416132E-1
6.633866979E0,-3.081724346E-1,-1.488176584E0,-5.758762360E-1
6.643580000E0,-3.057290614E-1,-1.053253412E0,-2.496838123E-1
6.653293854E0,-2.043284029E-1,-5.572454333E-1,6.795676053E-2
6.663008385E0,1.084253863E-1,-3.104631305E-1,3.087832928E-1
6.672722135E0,5.445703268E-1,-2.738122940E-1,4.370612204E-1
6.682435156E0,9.917105436E-1,-2.774773538E-1,4.480564594E-1
6.692148906E0,1.370588541E0,-1.956238300E-1,4.138490260E-1
6.701863542E0,1.723658204E0,1.450762246E-2,4.101839364E-1
6.711577292E0,2.075506210E0,2.773246467E-1,4.248442650E-1
6.721290260E0,2.349165916E0,4.837910235E-1,4.382829070E-1
6.731004115E0,2.515316248E0,5.937435627E-1,3.943018913E-1
6.740718698E0,2.573957682E0,6.108472347E-1,2.696890533E-1
6.750432448E0,2.523868084E0,5.204418898E-1,9.239064902E-2
6.760145417E0,2.445679665E0,2.895416021E-1,-7.131642103E-2
6.769859271E0,2.303963184E0,1.572931744E-2,-1.385096163E-1
6.779573854E0,2.062067747E0,-2.017323077E-1,-1.421747059E-1
6.789287552E0,1.782299638E0,-3.959817290E-1,-9.086353332E-2
6.799000573E0,1.520856977E0,-6.109999418E-1,8.093725890E-3
6.808714427E0,1.294843435E0,-8.272398710E-1,7.650861889E-2
6.818428958E0,1.097997904E0,-9.787300229E-1,8.139539510E-2
6.828142708E0,9.367342591E-1,-1.032484531E0,2.397575416E-2
6.837855729E0,8.096780181E-1,-9.933903813E-1,-8.231166750E-2
6.847569479E0,7.229377031E-1,-8.614473343E-1,-2.142546773E-1
6.857284115E0,6.814001203E-1,-6.513158679E-1,-3.706315756E-1
6.866997865E0,6.789567471E-1,-4.057552814E-1,-5.233433843E-1
6.876710833E0,6.777350307E-1,-1.968455315E-1,-5.893148780E-1
6.886424687E0,6.080984473E-1,-4.169032723E-2,-5.404471159E-1
6.896139271E0,4.272876680E-1,4.993676394E-2,-3.804051280E-1
6.905852969E0,1.475196183E-1,1.012479365E-1,-1.055238619E-1
6.915565990E0,-1.517955512E-1,1.195733473E-1,1.962346882E-1
6.925279844E0,-3.936910629E-1,1.343863904E-1,3.881934285E-1
6.934994375E0,-5.549547076E-1,1.905843467E-1,4.663818777E-1
6.944708125E0,-6.575770974E-1,2.785463631E-1,4.504998624E-1
6.954421146E0,-7.284353375E-1,3.396310806E-1,3.649812341E-1
6.964134896E0,-7.748597264E-1,3.481829464E-1,2.279987335E-1
6.973849531E0,-7.711946368E-1,3.396310806E-1,7.284353673E-2
6.983563281E0,-7.137750387E-1,3.494046330E-1,-6.642963737E-2
6.993276250E0,-6.184828281E-1,4.165978432E-1,-1.837123185E-1
7.002990104E0,-5.170822144E-1,5.595360994E-1,-2.741177082E-1
7.012704687E0,-4.450022280E-1,7.269082665E-1,-3.327590525E-1
7.022418385E0,-4.242334068E-1,8.490777016E-1,-3.596363366E-1
7.032131406E0,-4.718795121E-1,8.759549856E-1,-3.755183518E-1
7.041845260E0,-5.806103349E-1,8.258655071E-1,-3.975088596E-1
7.051559792E0,-7.235485911E-1,7.098045349E-1,-4.341596961E-1
7.061273542E0,-8.713735938E-1,5.326588154E-1,-4.842491746E-1
7.070986562E0,-9.874345660E-1,3.164188862E-1,-5.245651007E-1
7.080700312E0,-1.030193925E0,1.146865711E-1,-5.160132051E-1
7.090414948E0,-1.008203387E0,-1.481304597E-2,-4.414898455E-1
7.100128698E0,-9.752176404E-1,-7.711946964E-2,-3.315373361E-1
7.109841667E0,-1.008203387E0,-1.980672181E-1,-2.411319613E-1
7.119555521E0,-1.186570764E0,-4.534013867E-1,-2.069245130E-1
7.129270104E0,-1.518871665E0,-7.270609736E-1,-1.702736765E-1
7.138983802E0,-1.857281089E0,-1.092347622E0,-9.086353332E-2
7.148696823E0,-2.062525749E0,-1.367228866E0,2.397575416E-2
7.158410573E0,-2.057638884E0,-6.378772259E-1,1.779092699E-1
7.168125208E0,-1.648371339E0,2.284568697E-1,3.759764731E-1
7.177838958E0,-9.788827300E-1,3.872771561E-1,6.716265678E-1
7.187551927E0,-4.327852726E-1,5.583143830E-1,7.473716140E-1
7.197265781E0,-2.397575527E-1,6.878139973E-1,7.094991207E-1
7.206980365E0,-3.717005551E-1,2.565558553E-1,7.559235096E-1
7.216694062E0,-7.443174124E-1,-5.132644176E-1,6.826218367E-1
7.226407083E0,-1.167023659E0,-8.480086923E-1,3.454341292E-1
7.236120833E0,-1.147476554E0,-7.576032877E-1,-3.100049868E-2
7.245835469E0,-6.917845011E-1,-9.090934396E-1,-3.156553209E-1
7.255549219E0,-7.727217674E-2,-1.212073684E0,-5.929799676E-1
7.265262187E0,4.810422063E-1,-1.330578089E0,-8.018897176E-1
7.274976042E0,8.218950033E-1,-1.172979474E0,-7.994463444E-1
7.284690625E0,9.917105436E-1,-8.064711094E-1,-6.894938350E-1
7.294404375E0,1.177408099E0,-4.143071473E-1,-4.842491746E-1
7.304117344E0,1.419456363E0,9.620844387E-3,-1.629435122E-1
7.313831198E0,1.680898905E0,4.715740979E-1,1.791309565E-1
7.323545729E0,1.924016118E0,9.040539265E-1,4.517215490E-1
7.333259479E0,2.110935450E0,1.292552829E0,6.227588058E-1
7.342972500E0,2.248986959E0,1.618745208E0,6.838434935E-1
7.352686250E0,2.347944260E0,1.821546555E0,6.215370893E-1
7.362400885E0,2.415137291E0,1.772678733E0,4.529432356E-1
7.372114635E0,2.429797649E0,1.478250384E0,2.414373755E-1
7.381827604E0,2.349165916E0,1.011563063E0,1.542389300E-2
7.391541458E0,2.163468361E0,4.862344265E-1,-2.142546773E-1
7.401255990E0,1.913020849E0,2.061609551E-2,-3.938437700E-1
7.410969740E0,1.691894174E0,-3.116848171E-1,-5.111264586E-1
7.420682760E0,1.523300409E0,-4.778352678E-1,-5.587725043E-1
7.430396510E0,1.366923451E0,-4.472928941E-1,-5.380037427E-1
7.440111146E0,1.145644069E0,-3.593308926E-1,-4.610369802E-1
7.449824844E0,8.695410490E-1,-2.701472044E-1,-3.669664860E-1
7.459537865E0,5.665608048E-1,-1.931804419E-1,-3.400892019E-1
7.469251615E0,2.819060087E-1,-2.151709497E-1,-4.292729199E-1
7.478966250E0,1.133121699E-1,-4.656183124E-1,-4.928010404E-1
7.488680000E0,3.145863488E-2,-6.904101372E-1,-4.683671296E-1
7.498392969E0,-5.283828825E-2,-5.034908652E-1,-3.742966652E-1
7.508106823E0,-2.141019702E-1,-3.313846514E-2,-1.873773932E-1
7.517821406E0,-4.046863019E-1,2.822114229E-1,3.863608837E-2
7.527535104E0,-5.732801557E-1,4.165978432E-1,2.047865391E-1
7.537248125E0,-6.539120078E-1,5.106683373E-1,2.965663373E-1
7.546961979E0,-6.368082762E-1,5.143333673E-1,3.478775024E-1
7.556676510E0,-6.282563806E-1,4.410317242E-1,3.613161445E-1
7.566390260E0,-6.624638438E-1,3.066453338E-1,3.161134422E-1
7.576103229E0,-7.076665759E-1,8.536590636E-2,2.096733153E-1
7.585817083E0,-7.308787704E-1,-1.992889196E-1,5.329642445E-2
7.595531667E0,-7.284353375E-1,-4.680617154E-1,-9.575030953E-2
7.605245365E0,-7.162184119E-1,-6.171084642E-1,-1.983726472E-1
7.614958385E0,-7.088882327E-1,-6.085565686E-1,-2.484621257E-1
7.624672240E0,-7.064448595E-1,-4.986040890E-1,-2.606790662E-1
7.634386771E0,-7.088882327E-1,-3.825430870E-1,-2.570139766E-1
7.644100521E0,-7.052231431E-1,-3.153499067E-1,-2.533488870E-1
7.653813490E0,-6.917845011E-1,-3.324536085E-1,-2.325800955E-1
7.663527344E0,-6.868977547E-1,-4.350759685E-1,-1.763821393E-1
7.673241927E0,-7.162184119E-1,-5.438067913E-1,-8.353336155E-2
7.682955625E0,-7.834116220E-1,-6.073349118E-1,9.315420873E-3
7.692668646E0,-8.652651310E-1,-6.256603003E-1,7.162184268E-2
7.702382396E0,-9.287932515E-1,-5.780141950E-1,1.082726792E-1
7.712097031E0,-9.654440880E-1,-5.095993280E-1,1.204896197E-1
7.721810781E0,-1.096165419E0,-4.692834020E-1,8.872556686E-2
7.731523750E0,-1.430909753E0,-3.373403847E-1,8.139539510E-2
7.741237604E0,-2.057638884E0,-1.235438585E-1,1.510319859E-1
7.750952187E0,-2.420482159E0,-1.247655526E-1,2.084516287E-1
7.760665885E0,-2.220124245E0,8.658760041E-2,3.026748300E-1
7.770378906E0,-1.903705478E0,1.050657272E0,5.372401476E-1
7.780092656E0,-1.548192382E0,1.310878277E0,8.023478985E-1
7.789807292E0,-1.344169378E0,8.881719112E-1,8.646543026E-1
7.799521042E0,-1.433353066E0,1.182600260E0,6.386408210E-1
7.809234010E0,-1.264759302E0,1.079977989E0,3.344388604E-1
7.818947865E0,-1.093721986E0,4.434750974E-1,-4.443913698E-2
7.828662396E0,-1.086391807E0,-4.291202128E-2,-3.877353072E-1
7.838376146E0,-1.054627776E0,-4.790569544E-1,-5.257867575E-1
7.848089167E0,-8.420529366E-1,-7.783721089E-1,-4.622586668E-1
7.857802917E0,-4.682144225E-1,-8.614473343E-1,-3.510844707E-1
7.867517552E0,-7.635590620E-3,-8.260182142E-1,-2.252499312E-1
7.877231302E0,4.419479966E-1,-6.843016148E-1,-7.009471953E-2
7.886944271E0,8.402203918E-1,-4.839437306E-1,8.017370105E-2
7.896658125E0,1.205659747E0,-2.591519356E-1,2.243336588E-1
7.906372656E0,1.511083364E0,2.305948362E-2,3.381039500E-1
7.916086406E0,1.745648742E0,2.748812735E-1,3.759764731E-1
7.925799375E0,1.953336835E0,4.349232614E-1,3.356605768E-1
7.935513229E0,2.129260778E0,5.070032477E-1,2.475458533E-1
7.945227812E0,2.230661392E0,4.581354558E-1,1.437018216E-1
7.954941510E0,2.274642467E0,3.200839758E-1,5.329642445E-2
7.964654531E0,2.302741528E0,1.624853760E-1,-3.222219273E-2
7.974368385E0,2.327175379E0,-1.481304597E-2,-9.697200358E-2
7.984082917E0,2.285637617E0,-2.750339806E-1,-1.177408099E-1
7.993796667E0,2.141477823E0,-6.085565686E-1,-8.719844371E-2
8.003509635E0,1.910577536E0,-9.115368128E-1,-1.389677543E-2
8.013223490E0,1.669903636E0,-1.077687263E0,6.184828654E-2
8.022938073E0,1.503753185E0,-1.130220175E0,9.483403713E-2
8.032651771E0,1.347376347E0,-1.060583591E0,7.650861889E-2
8.042364792E0,1.143200636E0,-8.736643195E-1,3.206948051E-3
8.052078542E0,9.184088707E-1,-6.378772259E-1,-1.214058921E-1
8.061793177E0,7.180509567E-1,-3.617742956E-1,-2.838912606E-1
8.071506927E0,5.799994469E-1,-3.558185324E-2,-4.573718905E-1
8.081219896E0,4.932591617E-1,2.675510943E-1,-6.076403260E-1
8.090933750E0,3.735330999E-1,4.043808877E-1,-6.760551929E-1
8.100648333E0,1.670667231E-1,3.054236174E-1,-5.770979524E-1
8.110362031E0,-6.383354217E-2,6.704048812E-2,-3.071034551E-1
8.120075052E0,-2.495311052E-1,-7.589777559E-2,-9.009997360E-3
8.129788802E0,-3.875826001E-1,-4.779879749E-2,2.402156889E-1
8.139503437E0,-4.889832437E-1,6.215370819E-2,4.040754735E-1
8.149217187E0,-5.390726924E-1,1.049130186E-1,4.676035643E-1
8.158930156E0,-5.598415136E-1,2.550287358E-2,4.382829070E-1
8.168644010E0,-5.610632300E-1,-1.308740228E-1,3.271087110E-1
8.178358542E0,-5.439594984E-1,-2.591519356E-1,1.803526580E-1
8.188072292E0,-5.305208564E-1,-2.994678617E-1,6.306997687E-2
8.197785260E0,-5.329642296E-1,-2.725905776E-1,-2.244863659E-2
8.207499115E0,-5.390726924E-1,-2.078407854E-1,-8.353336155E-2
8.217213698E0,-5.341859460E-1,-1.272089481E-1,-1.043021679E-1
8.226927396E0,-5.256340504E-1,-2.214321308E-2,-8.719844371E-2
8.236640417E0,-5.451811552E-1,8.170082420E-2,-4.688252881E-2
8.246354167E0,-5.818319917E-1,1.612636745E-1,-4.581354442E-4
8.256068802E0,-6.087092757E-1,1.466033459E-1,4.963133857E-2
8.265782552E0,-6.123743653E-1,1.085781008E-1,9.239064902E-2
8.275495521E0,-6.111527085E-1,1.539335102E-1,1.265980899E-1
8.285209375E0,-6.355865598E-1,2.418955117E-1,1.449235082E-1
8.294923958E0,-7.223268747E-1,2.663294077E-1,1.449235082E-1
8.304637656E0,-8.713735938E-1,1.317902952E-1,1.265980899E-1
8.314350677E0,-1.036302328E0,-1.467560530E-1,7.040014863E-2
8.324064427E0,-1.217113137E0,-4.167505503E-1,-6.032116711E-2
8.333779062E0,-1.510319829E0,-5.291464329E-1,-1.739387512E-1
8.343492812E0,-2.053973913E0,-3.263451457E-1,-1.653869003E-1
8.353205781E0,-2.107728481E0,-2.603736520E-1,-7.375980914E-2
8.362919635E0,-1.385707021E0,7.192726433E-2,1.168245375E-1
8.372634167E0,-6.551336646E-1,1.428160906E0,3.344388604E-1
8.382347917E0,-2.629697323E-1,1.475806952E0,5.372401476E-1
8.392060885E0,-7.907418013E-1,5.546492934E-1,7.986828089E-1
8.401774740E0,-1.572626233E0,7.745543122E-1,8.988617659E-1
8.411489323E0,-1.311183691E0,8.478559852E-1,7.876875401E-1
8.421203021E0,-6.429167390E-1,6.267293096E-1,3.894151151E-1
8.430916042E0,-2.568612695E-1,5.167768002E-1,-1.983726472E-1
8.440629792E0,-3.888042867E-1,2.382304370E-1,-6.491779089E-1
8.450344427E0,-5.525113344E-1,-8.933641016E-2,-8.079982400E-1
8.460058177E0,-3.924693763E-1,-1.821851879E-1,-8.324320912E-1
8.469771146E0,-9.559759498E-2,-1.821851879E-1,-7.237012982E-1
8.479485000E0,1.756185889E-1,-2.115058601E-1,-4.891359508E-1
8.489199583E0,4.456130862E-1,-2.139492482E-1,-2.044811249E-1
8.498913281E0,7.962393761E-1,-4.169032723E-2,1.119377613E-1
8.508626302E0,1.178629756E0,1.539335102E-1,3.454341292E-1
8.518340052E0,1.454885483E0,2.186833173E-1,4.272876680E-1
8.528054687E0,1.617370844E0,1.563768983E-1,3.796415627E-1
8.537768437E0,1.707776189E0,1.206423342E-2,2.622061968E-1
8.547481406E0,1.798181653E0,-1.565296054E-1,1.314848661E-1
8.557195260E0,1.919129372E0,-3.385621011E-1,9.315420873E-3
8.566909792E0,1.996096134E0,-5.841227174E-1,-9.575030953E-2
8.576623542E0,1.960667014E0,-8.321266770E-1,-1.543916464E-1
8.586336562E0,1.821393847E0,-9.946120381E-1,-1.458397806E-1
8.596050312E0,1.629587770E0,-1.082574010E0,-9.575030953E-2
8.605764948E0,1.453663707E0,-1.116781473E0,-8.108997345E-2
8.615478646E0,1.330272675E0,-1.078908920E0,-1.348445266E-1
8.625191667E0,1.245975733E0,-9.481876493E-1,-2.313583940E-1
8.634905417E0,1.172521353E0,-7.661551833E-1,-3.315373361E-1
8.644620052E0,1.090667725E0,-5.474718809E-1,-3.742966652E-1
8.654333802E0,9.917105436E-1,-2.469350100E-1,-3.193204105E-1
8.664046771E0,8.939749599E-1,1.317902952E-1,-2.154763639E-1
8.673760625E0,7.766922712E-1,4.446968138E-1,-1.336228400E-1
8.683475208E0,5.946598053E-1,5.766398311E-1,-8.475505561E-2
8.693188906E0,3.442124426E-1,5.351021886E-1,-2.855710872E-2
8.702901927E0,9.987352788E-2,4.312581718E-1,3.619270027E-2
8.712615677E0,-5.405998230E-2,3.848337829E-1,1.119377613E-1
8.722330312E0,-1.163664013E-1,4.373666346E-1,2.255553454E-1
8.732044062E0,-1.542389393E-1,5.118899941E-1,3.356605768E-1
8.741757031E0,-2.202104330E-1,5.228852630E-1,4.028537571E-1
8.751470885E0,-3.130592108E-1,4.349232614E-1,4.382829070E-1
8.761185417E0,-3.826957941E-1,2.809897363E-1,4.199574888E-1
8.770899167E0,-4.107947946E-1,1.527118087E-1,3.393256664E-1
8.780612187E0,-4.095730782E-1,1.159082651E-1,2.121167034E-1
8.790325937E0,-3.961344361E-1,1.356080920E-1,8.017370105E-2
8.800040573E0,-3.924693763E-1,1.734806150E-1,-3.344388679E-2
8.809754271E0,-4.217900336E-1,1.930277348E-1,-1.140757278E-1
8.819467292E0,-4.938700199E-1,1.575985998E-1,-1.531699449E-1
8.829181042E0,-6.038225293E-1,4.993676394E-2,-1.727170646E-1
8.838895677E0,-7.333221436E-1,-8.200624585E-2,-1.885990947E-1
8.848609427E0,-8.738170266E-1,-1.846285909E-1,-1.947075576E-1
8.858322396E0,-1.019198656E0,-2.591519356E-1,-2.044811249E-1
8.868036250E0,-1.152363300E0,-3.141281903E-1,-2.215848416E-1
8.877750781E0,-1.268424392E0,-3.752129376E-1,-2.215848416E-1
8.887464531E0,-1.356386304E0,-4.619532526E-1,-1.995943487E-1
8.897177500E0,-1.367381573E0,-4.595098495E-1,-1.592784226E-1
8.906891354E0,-1.300188422E0,-3.116848171E-1,-1.226275861E-1
8.916605937E0,-1.225664973E0,-2.163926363E-1,-1.152974218E-1
8.926319635E0,-1.285528064E0,-2.041756958E-1,-1.470614821E-1
8.936032656E0,-1.511541486E0,-1.394258887E-1,-1.446180940E-1
8.945746406E0,-1.752215385E0,-4.169032723E-2,-7.620319724E-2
8.955461042E0,-1.642262816E0,-5.879404768E-2,6.429167092E-2
8.965174792E0,-1.440683246E0,7.122479081E-1,2.843494117E-1
8.974887760E0,-1.371046662E0,1.595533013E0,4.859289825E-1
8.984601615E0,-1.346612811E0,1.378071427E0,6.997255087E-1
8.994316146E0,-1.372268319E0,1.224137902E0,8.499939442E-1
9.004029896E0,-9.495620728E-1,1.055544019E0,7.889092565E-1
9.013742865E0,-3.423798978E-1,4.593571424E-1,4.504998624E-1
9.023456719E0,-1.957765520E-1,-6.001574174E-2,-9.575030953E-2
9.033171302E0,-3.203893900E-1,-4.094203711E-1,-5.819846988E-1
9.042885000E0,-1.921114624E-1,-6.830799580E-1,-8.617527485E-1
9.052598021E0,2.403683960E-1,-8.321266770E-1,-9.203941226E-1
9.062311771E0,6.569662094E-1,-7.282826304E-1,-7.762341499E-1
9.072026406E0,8.707627654E-1,-4.424061179E-1,-4.549284875E-1
9.081740156E0,9.367342591E-1,-1.785201132E-1,-4.566083103E-2
9.091453125E0,9.868237376E-1,4.734066315E-3,2.733541429E-1
9.101166979E0,1.052795291E0,1.195733473E-1,3.246653080E-1
9.110881510E0,1.105328083E0,1.281252056E-1,1.718007922E-1
9.120595260E0,1.150530815E0,6.215370819E-2,-3.955236077E-2
9.130308229E0,1.230093718E0,-4.657710344E-2,-1.947075576E-1
9.140022083E0,1.346154690E0,-2.273878902E-1,-2.411319613E-1
9.149736667E0,1.440225124E0,-3.251234591E-1,-2.057028115E-1
9.159450365E0,1.493979692E0,-2.396048307E-1,-8.842013776E-2
9.169163385E0,1.513526797E0,-7.223268598E-2,7.040014863E-2
9.178877135E0,1.492758036E0,3.161134571E-2,1.718007922E-1
9.188591771E0,1.463437319E0,4.993676394E-2,2.060082406E-1
9.198305521E0,1.430451512E0,2.916795574E-2,1.974563748E-1
9.208018490E0,1.387692213E0,8.399149403E-3,1.485885978E-1
9.217732344E0,1.331494331E0,2.916795574E-2,5.085303262E-2
9.227446875E0,1.252084136E0,1.392731816E-1,-1.226275861E-1
9.237160625E0,1.156639338E0,2.858765125E-1,-3.657447994E-1
9.246873594E0,1.057682037E0,4.984513521E-1,-6.271874309E-1
9.256587448E0,9.477295280E-1,7.403468490E-1,-8.202151656E-1
9.266301979E0,8.133431077E-1,8.026533127E-1,-9.045121074E-1
9.276015729E0,6.777350307E-1,6.523848772E-1,-8.422056437E-1
9.285728750E0,5.396835804E-1,4.117110670E-1,-6.455128193E-1
9.295442500E0,3.674246371E-1,1.722589284E-1,-3.437542915E-1
9.305157135E0,1.487413049E-1,-5.268557742E-2,1.908897609E-2
9.314870833E0,-7.238540053E-2,-2.652604282E-1,3.307738006E-1
9.324583854E0,-2.678565085E-1,-4.900522232E-1,5.066977739E-1
9.334297604E0,-4.034646153E-1,-6.610894203E-1,5.714476109E-1
9.344012240E0,-4.559974670E-1,-7.124006152E-1,5.225798488E-1
9.353725937E0,-4.083513916E-1,-6.476507783E-1,4.040754735E-1
9.363438958E0,-3.118375242E-1,-4.717268050E-1,2.721324563E-1
9.373152708E0,-2.165453583E-1,-2.115058601E-1,1.412584335E-1
9.382867344E0,-1.505738497E-1,3.283303976E-2,3.985778242E-2
9.392581094E0,-1.493521482E-1,1.722589284E-1,-1.511846948E-2
9.402294062E0,-2.385358512E-1,1.783674061E-1,-3.222219273E-2
9.412007917E0,-3.924693763E-1,6.581879407E-2,-2.489202656E-2
9.421722448E0,-5.586197972E-1,-1.015533581E-1,-4.581354442E-4
9.431436198E0,-6.844543815E-1,-2.249445021E-1,3.008422814E-2
9.441149167E0,-7.369872332E-1,-2.738122940E-1,4.230117425E-2
9.450863021E0,-7.308787704E-1,-2.225011140E-1,4.718795046E-2
9.460577552E0,-7.076665759E-1,-5.512896553E-2,6.306997687E-2
9.470291302E0,-7.321004272E-1,1.305686086E-1,8.628217876E-2
9.480004271E0,-8.139539957E-1,2.015796006E-1,9.361234307E-2
9.489718125E0,-9.080244303E-1,1.612636745E-1,6.795676053E-2
9.499432708E0,-9.825478196E-1,6.581879407E-2,3.252761811E-2
9.509146406E0,-1.153585076E0,-8.322793990E-2,-2.122694254E-2
9.518859427E0,-1.573848009E0,-2.066190839E-1,-9.208522737E-2
9.528573177E0,-2.152931213E0,-1.785201132E-1,-1.116323397E-1
9.538287812E0,-2.686811686E0,-4.046862945E-2,-1.091889441E-1
9.548001510E0,-2.612288237E0,-4.998257756E-1,-2.733541466E-2
9.557714531E0,-2.311751366E0,-7.722636461E-1,2.279987335E-1
9.567428281E0,-2.334963560E0,2.394521236E-1,3.784198761E-1
9.577142917E0,-2.492562294E0,5.155550838E-1,4.370612204E-1
9.586856615E0,-2.598849773E0,-1.320957243E-1,5.128062963E-1
9.596569635E0,-2.102841616E0,1.514901221E-1,3.210002482E-1
9.606283385E0,-1.080283403E0,8.414421231E-2,3.008422814E-2
9.615998021E0,-6.820109487E-1,-3.739912212E-1,-2.338017821E-1
9.625711771E0,-8.188407421E-1,-7.197307944E-1,-3.510844707E-1
9.635424740E0,-9.410101771E-1,-9.860602021E-1,-2.899997234E-1
9.645138490E0,-8.249492049E-1,-1.300035715E0,-1.262926757E-1
9.654853125E0,-5.989357233E-1,-1.110673070E0,4.840964451E-2
9.664566875E0,-2.360924631E-1,-7.392778993E-1,1.595838517E-1
9.674279844E0,2.635805905E-1,-4.631749392E-1,2.096733153E-1
9.683993698E0,7.510367036E-1,-2.066190839E-1,1.192679256E-1
9.693708229E0,1.138313890E0,2.550287358E-2,-7.131642103E-2
9.703421979E0,1.415791273E0,1.685938388E-1,-2.606790662E-1
9.713134948E0,1.625922680E0,2.565558553E-1,-3.486410677E-1
9.722848802E0,1.873926640E0,3.518480062E-1,-3.107685447E-1
9.732563333E0,2.117043972E0,4.153761268E-1,-1.556133330E-1
9.742277083E0,2.222109556E0,4.068242610E-1,4.352286831E-2
9.751990052E0,2.207449198E0,3.469612300E-1,1.974563748E-1
9.761703906E0,2.146364450E0,3.005368412E-1,2.745758295E-1
9.771418490E0,2.073062897E0,2.675510943E-1,2.733541429E-1
9.781132187E0,2.011978149E0,2.761029601E-1,2.157817930E-1
9.790845156E0,1.981435776E0,3.371876776E-1,1.253764033E-1
9.800559010E0,1.974105597E0,4.153761268E-1,5.650337320E-3
9.810273594E0,1.978992462E0,5.045598149E-1,-1.324011385E-1
9.819987292E0,1.981435776E0,6.022953987E-1,-2.484621257E-1
9.829700312E0,1.915464282E0,6.963658929E-1,-3.290939629E-1
9.839414062E0,1.698002696E0,7.660024762E-1,-3.718532622E-1
9.849128698E0,1.333937645E0,7.769976854E-1,-3.901786804E-1
9.858842396E0,9.672766328E-1,7.427902818E-1,-4.036173224E-1
9.868555417E0,7.241594195E-1,7.171346545E-1,-4.378247857E-1
9.878269167E0,6.019899845E-1,6.572716236E-1,-4.818057716E-1
9.887983802E0,5.299099684E-1,4.703523815E-1,-4.952444136E-1
9.897697500E0,4.614951015E-1,2.211267054E-1,-4.475983381E-1
9.907410521E0,3.490992188E-1,9.025268257E-2,-3.523061574E-1
9.917124271E0,1.634016484E-1,1.305686086E-1,-1.995943487E-1
9.926838906E0,-7.971556485E-2,1.514901221E-1,2.275406010E-2
9.936552604E0,-3.411581814E-1,1.328592747E-2,2.696890533E-1
9.946265625E0,-5.903838873E-1,-2.139492482E-1,4.810422063E-1
9.955979375E0,-7.968502641E-1,-4.155288339E-1,6.215370893E-1
9.965694010E0,-9.312366247E-1,-4.863871336E-1,6.496360302E-1
9.975407708E0,-9.935430884E-1,-3.984251320E-1,5.543438792E-1
9.985120729E0,-1.009425044E0,-1.931804419E-1,3.784198761E-1
9.994834479E0,-1.002094984E0,6.337540597E-2,1.644706279E-1
1.000454912E1,-9.788827300E-1,2.895416021E-1,-3.833066672E-2
1.001426281E1,-9.434536099E-1,4.056025743E-1,-1.959292591E-1
1.002397583E1,-8.884773254E-1,4.239279926E-1,-2.838912606E-1
1.003368958E1,-8.078454733E-1,4.104893506E-1,-3.229855001E-1
1.004340422E1,-7.125533223E-1,4.239279926E-1,-3.217637837E-1
1.005311792E1,-6.294780970E-1,4.935645759E-1,-2.716743052E-1
1.006283094E1,-6.013791561E-1,5.192201734E-1,-1.824906170E-1
1.007254469E1,-6.368082762E-1,4.227063060E-1,-7.986827940E-2
1.008225932E1,-6.978929639E-1,2.211267054E-1,-9.009997360E-3
1.009197302E1,-8.066238165E-1,-9.910997003E-2,2.519745007E-2
1.010168604E1,-1.076618314E0,-3.251234591E-1,5.940489471E-2
1.011139979E1,-1.557965875E0,-3.031329513E-1,1.046075895E-1
1.012111443E1,-1.909814000E0,-2.786990702E-1,1.327065676E-1
1.013082812E1,-1.703347564E0,1.817270555E-2,2.389939874E-1
1.014054115E1,-1.350277901E0,1.319430113E0,4.407263100E-1
1.015025490E1,-1.153585076E0,1.446486354E0,6.398624778E-1
1.015996953E1,-1.083948493E0,4.459185004E-1,7.461498976E-1
1.016968323E1,-9.849911928E-1,4.410317242E-1,7.009472251E-1
1.017939625E1,-5.854970813E-1,4.019374847E-1,5.934380889E-1
1.018911000E1,-3.228327632E-1,8.903098851E-2,3.527642787E-1
1.019882464E1,-2.348707765E-1,-2.053973973E-1,-4.581354442E-4
1.020853833E1,-1.725643575E-1,-6.610894203E-1,-3.608580232E-1
1.021825135E1,-1.517955512E-1,-9.701781869E-1,-6.076403260E-1
1.022796510E1,-8.338065445E-2,-9.017632604E-1,-6.479562521E-1
1.023767974E1,1.499630064E-1,-6.610894203E-1,-4.903576374E-1
1.024739344E1,5.164713860E-1,-2.334963679E-1,-1.873773932E-1
1.025710646E1,9.220739603E-1,1.146865711E-1,1.595838517E-1
1.026682021E1,1.260635972E0,2.528907657E-1,4.370612204E-1
1.027653484E1,1.470767498E0,3.591781855E-1,5.799994469E-1
1.028624854E1,1.603932142E0,5.057815313E-1,5.836645365E-1
1.029596156E1,1.770082593E0,6.780404449E-1,4.724903405E-1
1.030567531E1,1.977770686E0,8.600729704E-1,2.782409191E-1
1.031538995E1,2.152472973E0,9.590302110E-1,6.551336497E-2
1.032510365E1,2.241656780E0,8.490777016E-1,-8.353336155E-2
1.033481662E1,2.261203766E0,5.436540842E-1,-1.177408099E-1
1.034453047E1,2.218444586E0,1.832541823E-1,-4.932591692E-2
1.035424505E1,2.092609882E0,-8.933641016E-2,8.017370105E-2
1.036395875E1,1.897138834E0,-2.396048307E-1,2.145601064E-1
1.037367172E1,1.691894174E0,-3.116848171E-1,3.075616062E-1
1.038338557E1,1.515970230E0,-3.800997138E-1,3.271087110E-1
1.039310010E1,1.343711257E0,-4.631749392E-1,2.733541429E-1
1.040281385E1,1.137092113E0,-4.619532526E-1,1.571404636E-1
1.041252682E1,9.147437811E-1,-3.031329513E-1,3.252761811E-2
1.042224068E1,7.217160463E-1,-5.635065958E-2,-8.231166750E-2
1.043195521E1,5.531222224E-1,1.146865711E-1,-1.910424829E-1
1.044166896E1,3.943018913E-1,1.012479365E-1,-2.704526186E-1
1.045138193E1,2.183778882E-1,-1.236965694E-2,-2.863346636E-1
1.046109578E1,5.833591148E-2,-1.980672181E-1,-1.788255423E-1
1.047081031E1,-8.093725890E-2,-3.800997138E-1,1.542389300E-2
1.048052406E1,-2.544178963E-1,-4.020902216E-1,2.060082406E-1
1.049023703E1,-4.474456310E-1,-2.567085624E-1,3.136700690E-1
1.049995078E1,-6.087092757E-1,2.290677279E-3,3.332171738E-1
1.050966542E1,-7.284353375E-1,2.223484069E-1,2.904578745E-1
1.051937912E1,-8.225058317E-1,2.834331393E-1,1.754658818E-1
1.052909214E1,-9.019159675E-1,2.247917950E-1,1.420219894E-2
1.053880588E1,-9.556705356E-1,1.281252056E-1,-1.397313178E-1
1.054852052E1,-9.642223716E-1,1.695101149E-2,-2.851129472E-1
1.055823422E1,-9.324583411E-1,-9.422318637E-2,-3.950654566E-1
1.056794724E1,-8.945857882E-1,-1.968455315E-1,-4.598152637E-1
1.057766099E1,-8.848122358E-1,-2.933593988E-1,-4.671454430E-1
1.058737562E1,-9.287932515E-1,-3.520007432E-1,-4.158342779E-1
1.059708932E1,-1.009425044E0,-3.715478480E-1,-3.217637837E-1
1.060680234E1,-1.098608851E0,-3.776563108E-1,-2.179197669E-1
1.061651609E1,-1.193900943E0,-3.972034156E-1,-1.140757278E-1
1.062623068E1,-1.274532795E0,-4.521796703E-1,-3.833066672E-2
1.063594443E1,-1.306296825E0,-5.376983285E-1,5.650337320E-3
1.064565740E1,-1.274532795E0,-5.914528370E-1,2.764083818E-2
1.065537125E1,-1.191457629E0,-5.829010010E-1,3.619270027E-2
1.066508578E1,-1.180462360E0,-5.450284481E-1,5.329642445E-2
1.067479953E1,-1.424801230E0,-3.996468186E-1,1.204896197E-1
1.068451250E1,-1.947686434E0,-1.345391124E-1,2.512109280E-1
1.069422635E1,-2.200577259E0,-1.235438585E-1,3.576510847E-1
1.070394089E1,-2.066190958E0,-4.413371533E-2,4.578300118E-1
1.071365464E1,-1.896375299E0,1.147171140E0,6.814001203E-1
1.072336760E1,-1.622715712E0,1.889961362E0,9.575030804E-1
1.073308135E1,-1.225664973E0,1.185043693E0,1.078450799E0
1.074279599E1,-9.898779988E-1,6.902574301E-1,9.049702287E-1
1.075250969E1,-6.832326651E-1,6.401679516E-1,4.676035643E-1
1.076222271E1,-2.275405973E-1,6.035171151E-1,-3.100049868E-2
1.077193646E1,2.290677279E-2,5.851916671E-1,-4.488200247E-1
1.078165109E1,2.779355086E-2,7.314895838E-2,-6.662816405E-1
1.079136479E1,-2.596100792E-2,-6.244385839E-1,-6.760551929E-1
1.080107776E1,1.068982668E-2,-1.012937427E0,-5.489989519E-1
1.081079162E1,1.805053651E-1,-9.359707236E-1,-2.545706034E-1
1.082050615E1,4.785988331E-1,-5.095993280E-1,9.605573118E-2
1.083021990E1,7.608102560E-1,-1.272089481E-1,3.185568452E-1
1.083993287E1,9.672766328E-1,-1.236965694E-2,3.686463237E-1
1.084964672E1,1.157860994E0,2.290677279E-3,2.929012477E-1
1.085936125E1,1.409682751E0,2.061609551E-2,1.192679256E-1
1.086907500E1,1.669903636E0,-5.635065958E-2,-7.009471953E-2
1.087878797E1,1.842162609E0,-2.115058601E-1,-1.666085869E-1
1.088850172E1,1.944784999E0,-3.593308926E-1,-1.397313178E-1
1.089821635E1,1.981435776E0,-4.448495209E-1,-6.566607859E-3
1.090793005E1,1.954558492E0,-5.181511641E-1,1.595838517E-1
1.091764307E1,1.883700252E0,-6.659762263E-1,2.831276953E-1
1.092735682E1,1.759087443E0,-8.565605879E-1,3.478775024E-1
1.093707141E1,1.617370844E0,-1.050809979E0,3.600944579E-1
1.094678516E1,1.512305140E0,-1.166870952E0,3.087832928E-1
1.095649813E1,1.474432588E0,-1.104564548E0,1.913478971E-1
1.096621198E1,1.474432588E0,-8.638907075E-1,4.596625641E-2
1.097592651E1,1.462215662E0,-5.511369109E-1,-9.819369763E-2
1.098564026E1,1.353484869E0,-2.652604282E-1,-2.032594234E-1
1.099535323E1,1.104106426E0,-1.481304597E-2,-2.667875290E-1
1.100506698E1,8.145648241E-1,2.724378705E-1,-3.278722763E-1
1.101478162E1,5.946598053E-1,6.450546980E-1,-3.865135908E-1
1.102449531E1,4.541649222E-1,1.032331824E0,-4.475983381E-1
1.103420833E1,3.588727713E-1,1.204590797E0,-5.062396526E-1
1.104392208E1,2.562504113E-1,1.035996914E0,-5.367820263E-1
1.105363672E1,9.865183383E-2,6.548282504E-1,-4.268295169E-1
1.106335042E1,-9.804098308E-2,2.296785712E-1,-1.690519750E-1
1.107306339E1,-3.252761662E-1,-8.322793990E-2,1.204896197E-1
1.108277714E1,-5.964923501E-1,-2.286095917E-1,3.527642787E-1
1.109249177E1,-8.603783846E-1,-2.811424434E-1,4.761554301E-1
1.110220547E1,-1.052184463E0,-2.774773538E-1,4.969242513E-1
1.111191849E1,-1.164580345E0,-1.724116355E-1,4.272876680E-1
1.112163224E1,-1.203674555E0,5.115845799E-2,2.977880239E-1
1.113134688E1,-1.147476554E0,3.066453338E-1,1.473668963E-1
1.114106057E1,-1.004538298E0,4.972296655E-1,3.206948051E-3
1.115077354E1,-8.335011005E-1,5.961869359E-1,-1.165191159E-1
1.116048740E1,-6.893411279E-1,5.607577562E-1,-1.959292591E-1
1.117020193E1,-6.172611713E-1,3.860554695E-1,-2.374668717E-1
1.117991568E1,-6.478035450E-1,1.490467340E-1,-2.496838123E-1
1.118962865E1,-7.492041588E-1,-6.978929788E-2,-2.386885732E-1
1.119934240E1,-8.689302206E-1,-2.799207568E-1,-2.057028115E-1
1.120905703E1,-9.947647452E-1,-4.924955964E-1,-1.629435122E-1
1.121877073E1,-1.114490867E0,-6.354338527E-1,-1.250709742E-1
1.122848375E1,-1.152363300E0,-6.977402568E-1,-9.819369763E-2
1.123819750E1,-1.080283403E0,-7.771504521E-1,-7.620319724E-2
1.124791208E1,-8.982508779E-1,-8.858812451E-1,-9.208522737E-2
1.125762583E1,-7.101099491E-1,-9.188669920E-1,-1.140757278E-1
1.126733880E1,-7.846332788E-1,-7.356128097E-1,-1.067455560E-1
1.127705266E1,-1.173132181E0,-3.422271907E-1,-7.864658535E-2
1.128676719E1,-1.424801230E0,-8.933641016E-2,-5.054761097E-2
1.129648089E1,-1.223221660E0,2.333436459E-1,2.641914412E-2
1.130619391E1,-8.799254894E-1,1.318208337E0,1.730224788E-1
1.131590766E1,-5.097520351E-1,1.766570330E0,3.100049794E-1
1.132562229E1,-4.559974670E-1,9.614735842E-1,3.356605768E-1
1.133533599E1,-6.807892919E-1,7.525638342E-1,1.644706279E-1
1.134504896E1,-7.211052179E-1,5.497625470E-1,-1.091889441E-1
1.135476281E1,-9.825478196E-1,-1.565296054E-1,-4.537068009E-1
1.136447734E1,-1.246433854E0,-9.042066336E-1,-7.530219555E-1
1.137419109E1,-1.290414810E0,-1.314695954E0,-8.678612709E-1
1.138390406E1,-1.104717255E0,-1.345238328E0,-7.860077024E-1
1.139361781E1,-7.663078904E-1,-1.107007980E0,-5.844281316E-1
1.140333245E1,-3.875826001E-1,-8.186880350E-1,-2.973299026E-1
1.141304615E1,-1.527118147E-3,-6.452074051E-1,4.107947648E-2
1.142275912E1,4.260659516E-1,-4.326325655E-1,3.552076817E-1
1.143247297E1,9.110786915E-1,-2.420482337E-1,5.482354164E-1
1.144218750E1,1.294843435E0,-1.186570823E-1,5.519005060E-1
1.145190125E1,1.514748454E0,1.206423342E-2,4.236225784E-1
1.146161422E1,1.693115830E0,1.453816444E-1,2.782409191E-1
1.147132797E1,1.854379535E0,2.541124523E-1,1.986780763E-1
1.148104260E1,1.966775417E0,3.078670204E-1,2.011214644E-1
1.149075630E1,2.063289404E0,2.687727809E-1,2.218902707E-1
1.150046927E1,2.139034271E0,1.624853760E-1,2.084516287E-1
1.151018313E1,2.165911674E0,4.260659590E-2,1.534753740E-1
1.151989766E1,2.131704330E0,-1.847812906E-2,5.818320066E-2
1.152961141E1,2.033968687E0,-3.191677108E-2,-6.032116711E-2
1.153932438E1,1.889808655E0,-5.635065958E-2,-1.776038408E-1
1.154903813E1,1.726101637E0,-1.015533581E-1,-2.423536479E-1
1.155875276E1,1.579498291E0,-1.687465608E-1,-2.215848416E-1
1.156846646E1,1.415791273E0,-2.005106062E-1,-1.446180940E-1
1.157817943E1,1.193290114E0,-8.933641016E-2,-7.131642103E-2
1.158789328E1,9.318475127E-1,1.317902952E-1,-3.710897267E-2
1.159760781E1,6.899519563E-1,3.164188862E-1,-4.810422286E-2
1.160732156E1,5.323534012E-1,4.092676640E-1,-1.287360638E-1
1.161703453E1,4.614951015E-1,3.994941115E-1,-2.985515893E-1
1.162674828E1,3.478775024E-1,2.883199155E-1,-4.708105326E-1
1.163646292E1,1.756185889E-1,1.343863904E-1,-5.355603099E-1
1.164617662E1,4.123219103E-2,1.328592747E-2,-4.341596961E-1
1.165588958E1,-1.374406368E-2,1.068982761E-3,-2.350234836E-1
1.166560344E1,-5.650337040E-2,1.820324808E-1,-9.009997360E-3
1.167531797E1,-1.408002973E-1,3.506263196E-1,1.840177327E-1
1.168503167E1,-2.800734639E-1,3.494046330E-1,3.112266660E-1
1.169474464E1,-4.608842432E-1,2.480039895E-1,3.759764731E-1
1.170445849E1,-6.355865598E-1,1.527118087E-1,3.808632791E-1
1.171417302E1,-7.821899056E-1,1.281252056E-1,3.319954872E-1
1.172388677E1,-8.750386834E-1,1.734806150E-1,2.402156889E-1
1.173359974E1,-8.970292211E-1,2.260134816E-1,1.204896197E-1
1.174331349E1,-8.677085042E-1,2.296785712E-1,5.650337320E-3
1.175302812E1,-8.286142945E-1,1.698155403E-1,-9.575030953E-2
1.176274182E1,-8.090671897E-1,1.146865711E-1,-1.641651988E-1
1.177245479E1,-8.151756525E-1,1.171299592E-1,-1.800472289E-1
1.178216865E1,-8.347227573E-1,1.514901221E-1,-1.714953631E-1
1.179188318E1,-8.567132950E-1,1.930277348E-1,-1.543916464E-1
1.180159693E1,-8.664868474E-1,2.162399292E-1,-1.165191159E-1
1.181130990E1,-8.628217578E-1,1.661504507E-1,-7.375980914E-2
1.182102365E1,-8.664868474E-1,-3.558185324E-2,-5.176930502E-2
1.183073828E1,-9.104678631E-1,-3.336753249E-1,-5.787777901E-2
1.184045198E1,-1.099830508E0,-4.680617154E-1,-9.941539168E-2
1.185016495E1,-1.482220888E0,-2.347180545E-1,-1.214058921E-1
1.185987880E1,-1.845064163E0,6.581879407E-2,-1.458397806E-1
1.186959333E1,-1.663031697E0,-8.811471611E-2,-1.568350345E-1
1.187930703E1,-1.141368151E0,2.541124523E-1,-6.642963737E-2
1.188902000E1,-8.725953102E-1,1.189930439E0,-9.009997360E-3
1.189873385E1,-8.762603998E-1,7.391251922E-1,8.261708915E-2
1.190844839E1,-9.471186996E-1,8.658760041E-2,2.047865391E-1
1.191816214E1,-9.556705356E-1,3.066453338E-1,4.211791754E-1
1.192787510E1,-9.813261032E-1,4.446968138E-1,6.594096422E-1
1.193758885E1,-1.063179612E0,2.712161839E-1,7.388197780E-1
1.194730349E1,-9.703308940E-1,-2.884726226E-1,5.983248949E-1
1.195701719E1,-8.982508779E-1,-7.539382577E-1,3.820849657E-1
1.196673016E1,-6.868977547E-1,-9.433009028E-1,1.107160673E-1
1.197644401E1,-3.179459870E-1,-8.101361990E-1,-1.348445266E-1
1.198615854E1,1.438545287E-1,-4.900522232E-1,-2.643441558E-1
1.199587229E1,6.423059106E-1,-2.334963679E-1,-2.753393948E-1
1.200558526E1,1.061347127E0,-8.200624585E-2,-2.105895877E-1
1.201529901E1,1.347376347E0,3.527642787E-2,-6.398624927E-2
1.202501365E1,1.541625738E0,1.930277348E-1,1.082726792E-1
1.203472734E1,1.689450860E0,3.567348123E-1,2.341072112E-1
1.204444031E1,1.804290056E0,5.277720094E-1,3.026748300E-1
1.205415417E1,1.894695520E0,5.937435627E-1,3.283303976E-1
1.206386870E1,1.955780268E0,5.265503526E-1,3.332171738E-1
1.207358245E1,1.991209388E0,4.092676640E-1,3.185568452E-1
1.208329542E1,1.991209388E0,2.431172132E-1,2.965663373E-1
1.209300917E1,1.916685939E0,6.826218218E-2,2.831276953E-1
1.210272380E1,1.768860936E0,-7.101099193E-2,2.782409191E-1
1.211243750E1,1.590493560E0,-1.760767251E-1,2.880144715E-1
1.212215047E1,1.398687482E0,-2.506000996E-1,3.185568452E-1
1.213186432E1,1.189625025E0,-2.994678617E-1,3.368822634E-1
1.214157885E1,9.379559755E-1,-3.935383558E-1,3.246653080E-1
1.215129260E1,6.374191046E-1,-5.670189857E-1,2.843494117E-1
1.216100557E1,2.953446507E-1,-7.918107510E-1,2.696890533E-1
1.217071932E1,-2.473931387E-2,-9.542961121E-1,2.585411072E-1
1.218043396E1,-2.226538211E-1,-9.640696645E-1,2.267770469E-1
1.219014766E1,-2.312056869E-1,-8.272398710E-1,1.339282542E-1
1.219986063E1,-8.338065445E-2,-5.303681493E-1,-4.810422286E-2
1.220957448E1,7.788302749E-2,-1.198787764E-1,-1.885990947E-1
1.221928901E1,1.572931707E-1,3.298575282E-1,-1.898207814E-1
1.222900276E1,1.438545287E-1,7.941014171E-1,-9.941539168E-2
1.223871573E1,5.222744122E-2,1.078756213E0,4.474456236E-2
1.224842948E1,-9.437590092E-2,1.115407109E0,1.937913001E-1
1.225814412E1,-2.739650011E-1,9.688037634E-1,3.271087110E-1
1.226785781E1,-4.547757804E-1,7.171346545E-1,4.321744442E-1
1.227757083E1,-6.160394549E-1,4.337015450E-1,4.993676245E-1
1.228728458E1,-7.430956960E-1,1.966928244E-1,4.932591617E-1
1.229699917E1,-8.212841153E-1,7.070557028E-2,4.040754735E-1
1.230671292E1,-8.444963098E-1,6.215370819E-2,2.658712566E-1
1.231642589E1,-8.151756525E-1,1.085781008E-1,1.180462316E-1
1.232613974E1,-7.626428008E-1,1.539335102E-1,-2.367033064E-2
1.233585427E1,-7.247702479E-1,1.783674061E-1,-1.568350345E-1
1.234556802E1,-7.284353375E-1,1.881409585E-1,-2.753393948E-1
1.235528099E1,-7.760814428E-1,1.551551968E-1,-3.620797098E-1
1.236499474E1,-8.530482054E-1,5.848862603E-2,-4.243861437E-1
1.237470938E1,-9.385668039E-1,-8.200624585E-2,-4.549284875E-1
1.238442307E1,-1.021642089E0,-2.151709497E-1,-4.475983381E-1
1.239413609E1,-1.105938911E0,-3.019112647E-1,-4.158342779E-1
1.240384984E1,-1.196344376E0,-3.581092060E-1,-3.657447994E-1
1.241356448E1,-1.261094213E0,-4.228590131E-1,-3.071034551E-1
1.242327818E1,-1.251320601E0,-4.692834020E-1,-2.790044844E-1
1.243299115E1,-1.248877168E0,-4.692834020E-1,-2.667875290E-1
1.244270500E1,-1.448013425E0,-3.886515796E-1,-2.215848416E-1
1.245241958E1,-1.977007151E0,-6.490252167E-2,-1.104106456E-1
1.246213328E1,-2.410708666E0,8.047912270E-2,-5.344913341E-3
1.247184625E1,-2.261662006E0,-5.757235363E-2,6.184828654E-2
1.248156010E1,-1.821851969E0,6.890357137E-1,3.258870244E-1
1.249127464E1,-1.196344376E0,1.343863964E0,7.241594195E-1
1.250098839E1,-6.587987542E-1,1.287665963E0,9.636115432E-1
1.251070135E1,-6.306998134E-1,1.567434072E0,8.805363178E-1
1.252041521E1,-6.661289334E-1,1.259567022E0,6.386408210E-1
1.253012974E1,-6.465818286E-1,5.167768002E-1,2.463241518E-1
1.253984349E1,-6.172611713E-1,-7.956285775E-2,-1.959292591E-1
1.254955646E1,-5.732801557E-1,-4.692834020E-1,-5.172349215E-1
1.255927031E1,-3.460449576E-1,-6.843016148E-1,-6.882721782E-1
1.256898484E1,9.132166207E-2,-6.806365848E-1,-7.041541934E-1
1.257869859E1,5.946598053E-1,-3.959817290E-1,-5.722111464E-1
1.258841156E1,1.088224411E0,-7.482878864E-3,-3.791834414E-1
1.259812542E1,1.486649513E0,2.137965411E-1,-2.154763639E-1
1.260783995E1,1.726101637E0,2.370087355E-1,-8.231166750E-2
1.261755370E1,1.832389116E0,1.844758689E-1,-4.581354442E-4
1.262726667E1,1.933789730E0,1.110214889E-1,2.886253223E-2
1.263698052E1,2.058402538E0,-2.092151903E-2,1.053711493E-2
1.264669510E1,2.161024809E0,-1.589729935E-1,3.206948051E-3
1.265640880E1,2.222109556E0,-2.762556672E-1,5.329642445E-2
1.266612182E1,2.248986959E0,-4.277457893E-1,1.351499557E-1
1.267583557E1,2.226996422E0,-6.378772259E-1,1.852394342E-1
1.268555021E1,2.130482435E0,-8.773293495E-1,1.718007922E-1
1.269526391E1,1.959445238E0,-1.121668339E0,1.094943732E-1
1.270497693E1,1.740761995E0,-1.285375357E0,3.130592033E-2
1.271469068E1,1.509861708E0,-1.297592282E0,-5.054761097E-2
1.272440531E1,1.321720719E0,-1.203521848E0,-1.226275861E-1
1.273411906E1,1.179851532E0,-1.060583591E0,-1.592784226E-1
1.274383203E1,1.005149126E0,-8.223531246E-1,-1.433963925E-1
1.275354589E1,7.705838084E-1,-4.546230733E-1,-9.452861547E-2
1.276326042E1,5.848862529E-1,-6.001574174E-2,-6.520794332E-2
1.277297417E1,5.286883116E-1,2.480039895E-1,-1.140757278E-1
1.278268714E1,5.213581324E-1,4.153761268E-1,-2.301367074E-1
1.279240099E1,4.504998624E-1,4.288147688E-1,-3.889569938E-1
1.280211557E1,2.855710983E-1,3.909422457E-1,-5.111264586E-1
1.281182927E1,1.133121699E-1,3.982724249E-1,-5.221216679E-1
1.282154229E1,1.191152167E-2,4.373666346E-1,-4.194993675E-1
1.283125604E1,-1.618745178E-2,4.337015450E-1,-2.484621257E-1
1.284097068E1,-3.573456407E-2,3.787252903E-1,-6.398624927E-2
1.285068443E1,-1.017060652E-1,2.089097649E-1,7.773031294E-2
1.286039740E1,-2.324273884E-1,-5.268557742E-2,1.779092699E-1
1.287011125E1,-3.985778391E-1,-3.006895781E-1,2.475458533E-1
1.287982578E1,-5.659499764E-1,-4.582881629E-1,2.843494117E-1
1.288953953E1,-6.820109487E-1,-4.888305068E-1,2.745758295E-1
1.289925255E1,-7.052231431E-1,-4.167505503E-1,2.231119573E-1
1.290896630E1,-6.587987542E-1,-3.190149665E-1,1.608055383E-1
1.291868094E1,-6.026008129E-1,-2.713688910E-1,9.727742523E-2
1.292839469E1,-5.793886185E-1,-2.689255178E-1,3.741439432E-2
1.293810766E1,-6.062659025E-1,-2.896943092E-1,4.428642802E-3
1.294782151E1,-6.771242023E-1,-3.177932799E-1,2.031067200E-2
1.295753609E1,-7.882983685E-1,-3.507790267E-1,8.872556686E-2
1.296724979E1,-9.251281619E-1,-3.910949528E-1,1.852394342E-1
1.297696281E1,-1.036302328E0,-4.558447599E-1,2.696890533E-1
1.298667656E1,-1.113269091E0,-5.657972693E-1,3.368822634E-1
1.299639120E1,-1.164580345E0,-6.403206587E-1,3.588727713E-1
1.300610495E1,-1.175575495E0,-5.743491650E-1,3.258870244E-1
1.301581797E1,-1.240325332E0,-3.312319219E-1,2.499892414E-1
1.302553172E1,-1.493216157E0,-1.969982497E-2,1.876828223E-1
1.303524635E1,-1.847507477E0,6.459710002E-2,1.766875684E-1
1.304496010E1,-1.996554255E0,-1.968455315E-1,1.559187621E-1
1.305467307E1,-2.061304092E0,-1.236965694E-2,1.827960461E-1
1.306438693E1,-1.826738715E0,7.391251922E-1,3.710896969E-1
1.307410151E1,-1.383263588E0,6.975875497E-1,7.473716140E-1
1.308381526E1,-1.565296054E0,6.988092661E-1,9.599464536E-1
1.309352823E1,-1.802304864E0,1.014006495E0,8.133431077E-1
1.310324208E1,-1.588508248E0,7.293516397E-1,7.266027927E-1
1.311295667E1,-1.158471823E0,5.482354015E-2,5.775560737E-1
1.312267042E1,-8.799254894E-1,-2.713688910E-1,2.977880239E-1
1.313238338E1,-8.652651310E-1,-6.232169271E-1,8.994726092E-2
1.314209724E1,-7.736380696E-1,-1.080130696E0,-3.833066672E-2
1.315181182E1,-3.790307343E-1,-1.076465607E0,-1.030804738E-1
1.316152557E1,1.988307834E-1,-7.270609736E-1,-5.421269313E-2
1.317123854E1,6.826218367E-1,-4.656183124E-1,1.681357026E-1
1.318095240E1,9.709417224E-1,-3.067980409E-1,3.454341292E-1
1.319066698E1,1.187181592E0,-1.540862173E-1,2.916795611E-1
1.320038073E1,1.385248899E0,-3.191677108E-2,6.673506647E-2
1.321009370E1,1.540404081E0,5.482354015E-2,-1.934858710E-1
1.321980755E1,1.667460322E0,1.673721522E-1,-3.926220834E-1
1.322952214E1,1.811620235E0,3.713951409E-1,-4.879142344E-1
1.323923589E1,1.988765955E0,6.646018028E-1,-4.952444136E-1
1.324894885E1,2.145142794E0,8.979454637E-1,-4.488200247E-1
1.325866271E1,2.218444586E0,1.023779988E0,-3.706315756E-1
1.326837729E1,2.164690018E0,1.083643079E0,-2.496838123E-1
1.327809104E1,2.031525373E0,1.123958945E0,-1.177408099E-1
1.328780406E1,1.916685939E0,1.105633497E0,6.795676053E-2
1.329751792E1,1.840940952E0,1.044548869E0,2.389939874E-1
1.330723245E1,1.730988383E0,9.651386738E-1,2.855710983E-1
1.331694620E1,1.563616276E0,9.101623893E-1,2.194468826E-1
1.332665922E1,1.374253631E0,8.906152844E-1,7.040014863E-2
1.333637307E1,1.192068458E0,9.517000318E-1,-1.556133330E-1
1.334608766E1,1.079672575E0,1.077534556E0,-4.475983381E-1
1.335580141E1,1.111436605E0,1.172826767E0,-7.664605975E-1
1.336551438E1,1.230093718E0,1.241241574E0,-1.002247691E0
1.337522823E1,1.291178346E0,1.336533785E0,-1.126860499E0
1.338494281E1,1.190846682E0,1.337755442E0,-1.108535051E0
1.339465656E1,8.829796910E-1,1.171604991E0,-9.863656163E-1
1.340436958E1,4.443913698E-1,8.588512540E-1,-8.092198968E-1
1.341408344E1,2.412846684E-2,5.070032477E-1,-5.013529062E-1
1.342379802E1,-2.849602401E-1,3.176405728E-1,-1.885990947E-1
1.343351177E1,-4.999784827E-1,2.699944973E-1,1.786728203E-2
1.344322474E1,-7.272136807E-1,3.771981969E-2,2.414373755E-1
1.345293859E1,-1.010646820E0,-3.886515796E-1,4.199574888E-1
1.346265318E1,-1.254985690E0,-7.661551833E-1,4.957025647E-1
1.347236693E1,-1.374711752E0,-9.909469485E-1,4.895940721E-1
1.348207995E1,-1.351499557E0,-1.011715770E0,4.370612204E-1
1.349179380E1,-1.215891480E0,-8.748859763E-1,3.539859951E-1
1.350150839E1,-1.021642089E0,-6.830799580E-1,2.377723008E-1
1.351122214E1,-8.347227573E-1,-5.059342384E-1,9.483403713E-2
1.352093510E1,-7.186617851E-1,-4.081986845E-1,-4.810422286E-2
1.353064896E1,-6.917845011E-1,-3.629959822E-1,-1.751604527E-1
1.354036354E1,-7.308787704E-1,-3.214583695E-1,-2.704526186E-1
1.355007729E1,-7.992936373E-1,-2.506000996E-1,-3.095468581E-1
1.355979031E1,-8.860339522E-1,-1.162136942E-1,-2.948864996E-1
1.356950417E1,-9.544488192E-1,8.536590636E-2,-2.447970361E-1
1.357921875E1,-9.581139088E-1,2.565558553E-1,-1.885990947E-1
1.358893250E1,-1.070509791E0,3.200839758E-1,-1.543916464E-1
1.359864552E1,-1.424801230E0,2.309002578E-1,-1.067455560E-1
1.360835938E1,-2.019766569E0,1.514901221E-1,-3.710897267E-2
1.361807396E1,-2.409487009E0,-1.467560530E-1,-6.398624927E-2
1.362778771E1,-2.255553484E0,-7.331694365E-1,-9.697200358E-2
1.363750073E1,-1.988002419E0,-2.542651594E-1,6.062658876E-2
1.364721448E1,-1.682578802E0,9.187142849E-1,2.904578745E-1
1.365692917E1,-1.270867705E0,1.142284393E0,5.836645365E-1
1.366664286E1,-1.308740258E0,1.634627223E0,6.911736727E-1
1.367635589E1,-1.333174109E0,1.760461807E0,6.129852533E-1
1.368606974E1,-1.250098944E0,1.108076930E0,3.967452943E-1
1.369578432E1,-1.267202616E0,3.640649617E-1,4.596625641E-2
1.370549807E1,-1.367381573E0,-3.593308926E-1,-2.655658424E-1
1.371521109E1,-1.367381573E0,-6.476507783E-1,-4.561502039E-1
1.372492495E1,-1.024085402E0,-6.085565686E-1,-4.720322192E-1
1.373463953E1,-5.134171247E-1,-3.959817290E-1,-3.742966652E-1
1.374435328E1,-8.582404256E-2,-2.835858464E-1,-2.887780368E-1
1.375406630E1,1.817270666E-1,-3.080197275E-1,-1.714953631E-1
1.376378016E1,3.930802047E-1,-3.434488773E-1,-6.520794332E-2
1.377349474E1,6.826218367E-1,-3.300102353E-1,2.031067200E-2
1.378320849E1,1.019809484E0,-3.300102353E-1,6.551336497E-2
1.379292151E1,1.275296330E0,-3.752129376E-1,4.230117425E-2
1.380263536E1,1.435338378E0,-4.595098495E-1,-2.489202656E-2
1.381234995E1,1.570946455E0,-5.926745534E-1,-1.043021679E-1
1.382206370E1,1.711441278E0,-6.965186000E-1,-1.409530044E-1
1.383177672E1,1.850714445E0,-6.696413159E-1,-1.079672500E-1
1.384149057E1,2.014421463E0,-5.535803437E-1,-5.787777901E-2
1.385120516E1,2.198897362E0,-4.582881629E-1,-2.855710872E-2
1.386091891E1,2.351609230E0,-4.253024161E-1,-1.511846948E-2
1.387063193E1,2.400476933E0,-4.167505503E-1,-1.511846948E-2
1.388034578E1,2.297854662E0,-3.910949528E-1,-6.566607859E-3
1.389006036E1,2.053515673E0,-3.727695346E-1,3.619270027E-2
1.389977412E1,1.728545070E0,-4.240806997E-1,8.872556686E-2
1.390948714E1,1.374253631E0,-5.474718809E-1,1.070509851E-1
1.391920099E1,1.051573515E0,-7.148439884E-1,7.528692484E-2
1.392891557E1,8.084563613E-1,-8.761076927E-1,6.872031838E-3
1.393862932E1,6.520794630E-1,-9.433009028E-1,-8.231166750E-2
1.394834234E1,5.604523420E-1,-8.712208867E-1,-1.788255423E-1
1.395805620E1,5.396835804E-1,-7.417212725E-1,-2.790044844E-1
1.396777078E1,6.276455522E-1,-5.987830162E-1,-3.975088596E-1
1.397748453E1,7.925743461E-1,-4.436278343E-1,-5.392253995E-1
1.398719755E1,8.793146014E-1,-3.373403847E-1,-6.308525205E-1
1.399691141E1,7.962393761E-1,-3.006895781E-1,-6.125270724E-1
1.400662599E1,5.787777901E-1,-3.092414141E-1,-4.488200247E-1
1.401633974E1,2.977880239E-1,-2.640387416E-1,-1.397313178E-1
1.402605276E1,3.512371704E-2,-5.757235363E-2,2.316638231E-1
1.403576651E1,-1.273616552E-1,1.954711229E-1,5.360184908E-1
1.404548120E1,-2.043284029E-1,3.384093940E-1,7.009472251E-1
1.405519495E1,-2.629697323E-1,3.310792148E-1,7.314895988E-1
1.406490797E1,-3.411581814E-1,1.869192570E-1,6.618530154E-1
1.407462172E1,-4.242334068E-1,-7.482878864E-3,5.140279531E-1
1.408433641E1,-4.596625566E-1,-1.956238300E-1,3.197785318E-1
1.409405016E1,-4.181249440E-1,-3.251234591E-1,1.217113137E-1
1.410376312E1,-3.289412558E-1,-3.422271907E-1,-4.932591692E-2
1.411347703E1,-2.483094037E-1,-2.615953386E-1,-1.824906170E-1
1.412319162E1,-2.336490750E-1,-1.663031727E-1,-2.667875290E-1
1.413290537E1,-3.142809272E-1,-9.666658193E-2,-3.009949923E-1
1.414261838E1,-4.828747511E-1,-4.535540938E-2,-2.826695740E-1
1.415233224E1,-7.247702479E-1,-2.596100792E-3,-2.215848416E-1
1.416204682E1,-1.002094984E0,-1.527118147E-4,-1.531699449E-1
1.417176057E1,-1.297744989E0,-4.291202128E-2,-9.086353332E-2
1.418147359E1,-1.582399845E0,-9.910997003E-2,-3.833066672E-2
1.419118745E1,-1.864611268E0,-3.069507517E-2,-1.145338640E-2
1.420090203E1,-2.176143408E0,2.687727809E-1,7.635590737E-4
1.421061578E1,-2.551203489E0,6.890357137E-1,1.053711493E-2
1.422032880E1,-2.806537628E0,7.708892226E-1,-3.222219273E-2
1.423004266E1,-2.694141865E0,1.905843467E-1,-1.714953631E-1
1.423975724E1,-2.509665966E0,-2.371614426E-1,-2.374668717E-1
1.424947099E1,-2.410708666E0,2.040229887E-1,-9.819369763E-2
1.425918401E1,-2.127275467E0,3.127537966E-1,1.925695986E-1
1.426889787E1,-1.887823462E0,2.333436459E-1,4.859289825E-1
1.427861245E1,-1.747328639E0,6.047387719E-1,5.726693273E-1
1.428832620E1,-1.477334142E0,6.914790869E-1,4.847072959E-1
1.429803922E1,-1.224443316E0,2.614426315E-1,2.941229641E-1
1.430775307E1,-1.143811464E0,-1.687465608E-1,3.863608837E-2
1.431746766E1,-1.213448048E0,-3.263451457E-1,-1.360662282E-1
1.432718141E1,-1.170688748E0,-3.642176688E-1,-1.336228400E-1
1.433689443E1,-8.322793841E-1,-1.186570823E-1,-4.932591692E-2
1.434660828E1,-3.362714052E-1,3.750602305E-1,-1.878355257E-2
1.435632292E1,1.255291104E-1,6.401679516E-1,6.872031838E-3
1.436603667E1,3.674246371E-1,5.668662786E-1,6.872031838E-3
1.437574969E1,4.321744442E-1,3.603998721E-1,-3.222219273E-2
1.438546354E1,5.176930428E-1,1.404948682E-1,-1.165191159E-1
1.439517813E1,6.606312990E-1,1.084253844E-2,-1.763821393E-1
1.440489188E1,8.072346449E-1,-5.146388337E-2,-1.776038408E-1
1.441460490E1,9.477295280E-1,-1.589729935E-1,-1.165191159E-1
1.442431875E1,1.111436605E0,-2.359397560E-1,-6.566607859E-3
1.443403333E1,1.329050899E0,-2.298312783E-1,1.375933439E-1
1.444374708E1,1.605153918E0,-1.516428292E-1,2.646495700E-1
1.445346010E1,1.891030431E0,-2.336490713E-2,3.283303976E-1
1.446317396E1,2.141477823E0,9.513945878E-2,3.295520842E-1
1.447288854E1,2.327175379E0,1.600419879E-1,3.002314270E-1
1.448260240E1,2.439571142E0,1.612636745E-1,2.499892414E-1
1.449231531E1,2.462783337E0,9.391776472E-2,1.840177327E-1
1.450202917E1,2.396811962E0,-7.345438004E-2,8.139539510E-2
1.451174380E1,2.256317139E0,-3.190149665E-1,-6.642963737E-2
1.452145755E1,2.065732718E0,-5.499152541E-1,-2.423536479E-1
1.453117057E1,1.866596460E0,-6.989619732E-1,-4.268295169E-1
1.454088443E1,1.715106368E0,-7.466080785E-1,-5.673243999E-1
1.455059901E1,1.603932142E0,-7.087355256E-1,-6.491779089E-1
1.456031276E1,1.474432588E0,-5.645755529E-1,-6.919372082E-1
1.457002578E1,1.300951958E0,-3.348970115E-1,-6.821636558E-1
1.457973964E1,1.113879919E0,-1.369825006E-1,-6.186355352E-1
1.458945422E1,9.733850956E-1,-7.223268598E-2,-5.392253995E-1
1.459916807E1,9.000834227E-1,-1.907370538E-1,-4.744756222E-1
1.460888099E1,7.925743461E-1,-4.448495209E-1,-3.816268146E-1
1.461859490E1,5.836645365E-1,-6.977402568E-1,-2.240282297E-1
1.462830948E1,3.026748300E-1,-8.370134830E-1,3.863608837E-2
1.463802323E1,8.246437646E-3,-7.966975570E-1,3.625378609E-1
1.464773625E1,-2.165453583E-1,-5.609105229E-1,6.190937161E-1
1.465745010E1,-3.704788685E-1,-2.090624720E-1,7.693621516E-1
1.466716469E1,-4.804313779E-1,1.036913246E-1,8.035695553E-1
1.467687844E1,-5.561764240E-1,3.579564989E-1,7.314895988E-1
1.468659146E1,-5.940489769E-1,6.597150564E-1,5.909947157E-1
1.469630531E1,-5.928272605E-1,1.003011227E0,4.101839364E-1
1.470601995E1,-5.439594984E-1,1.288887739E0,2.133384049E-1
1.471573370E1,-4.462239146E-1,1.445264578E0,5.650337320E-3
1.472544672E1,-3.240544796E-1,1.467255116E0,-2.008160353E-1
1.473516057E1,-2.434226274E-1,1.398840189E0,-3.840702176E-1
1.474487516E1,-2.544178963E-1,1.235133171E0,-5.416688323E-1
1.475458891E1,-3.912476599E-1,9.981244206E-1,-6.516213417E-1
1.476430193E1,-5.879405141E-1,7.183563709E-1,-6.894938350E-1
1.477401578E1,-7.589777112E-1,4.593571424E-1,-6.638382673E-1
1.478373036E1,-8.896990418E-1,3.261924386E-1,-5.880932212E-1
1.479344422E1,-9.825478196E-1,2.748812735E-1,-4.781406820E-1
1.480315719E1,-1.024085402E0,1.551551968E-1,-3.755183518E-1
1.481287104E1,-1.036302328E0,-1.211004704E-1,-2.997733057E-1
1.482258562E1,-1.143811464E0,-4.741701782E-1,-2.753393948E-1
1.483229938E1,-1.439461589E0,-8.406785131E-1,-3.144336343E-1
1.484201240E1,-1.890266895E0,-1.235285878E0,-3.584146202E-1
1.485172625E1,-2.311751366E0,-1.657992125E0,-3.547495604E-1
1.486144088E1,-2.415595531E0,-1.279266834E0,-2.484621257E-1
1.487115458E1,-2.233562946E0,7.437065244E-2,-4.123218823E-3
1.488086766E1,-2.042978764E0,5.961869359E-1,3.600944579E-1
1.489058151E1,-2.079629421E0,6.181774139E-1,7.656970620E-1
1.490029609E1,-1.968455315E0,1.204590797E0,1.036913276E0
1.491000984E1,-1.383263588E0,1.420830727E0,1.052795291E0
1.491972286E1,-7.614210844E-1,1.298661232E0,7.656970620E-1
1.492943672E1,-4.547757804E-1,9.541434050E-1,1.986780763E-1
1.493915130E1,-6.001574397E-1,4.984513521E-1,-4.341596961E-1
1.494886516E1,-8.762603998E-1,-1.944021434E-1,-7.591304183E-1
1.495857812E1,-9.458969831E-1,-7.869240046E-1,-7.872294188E-1
1.496829198E1,-7.333221436E-1,-9.335273504E-1,-6.369609833E-1
1.497800656E1,-3.680354655E-1,-7.258392572E-1,-3.975088596E-1
1.498772031E1,1.801999472E-2,-5.609105229E-1,-1.812689304E-1
1.499743333E1,4.676035643E-1,-5.853443742E-1,5.650337320E-3
1.500714719E1,9.049702287E-1,-6.390989423E-1,1.766875684E-1
1.501686177E1,1.256971002E0,-5.926745534E-1,2.745758295E-1
1.502657563E1,1.547734261E0,-4.827220440E-1,2.904578745E-1
1.503628859E1,1.837275863E0,-2.945810854E-1,2.855710983E-1
1.504600245E1,2.178128719E0,-3.313846514E-2,3.124483824E-1
1.505571703E1,2.544636965E0,2.773246467E-1,3.710896969E-1
