"Time (s)","Acceleration x (m/s^2)","Acceleration y (m/s^2)","Acceleration z (m/s^2)"
5.257496900E-2,-5.198407173E-1,-2.130509377E0,-5.781059742E0
6.228924000E-2,-2.842075109E0,-7.045666218E0,-1.006181908E1
7.200184400E-2,-5.683851242E0,-1.124237823E1,-8.620442390E0
8.171533400E-2,-8.140382767E0,-1.596610928E1,-6.970890522E0
9.142877100E-2,-9.358927727E0,-1.950928116E1,-6.137889385E0
1.011430420E-1,-7.934300900E0,-2.232712936E1,-6.870391846E0
1.108564280E-1,-5.178965569E0,-2.262653160E1,-7.018746853E0
1.205690840E-1,-2.030609131E0,-2.241087723E1,-7.107281685E0
1.302826260E-1,-9.652048349E-1,-2.193680000E1,-7.279863834E0
1.399968440E-1,-1.640279889E0,-2.141755676E1,-5.644668579E0
1.497102300E-1,-2.950051308E0,-2.094108582E1,-3.243471146E0
1.594228860E-1,-4.249952316E0,-1.976321983E1,-1.735095501E0
1.691364280E-1,-4.798207760E0,-1.800329781E1,-1.057627559E0
1.788506460E-1,-3.845266104E0,-1.574806309E1,-4.471587241E-1
1.885640320E-1,-3.328117132E0,-1.400997639E1,8.195417374E-2
1.982767400E-1,-2.353640079E0,-1.222642612E1,8.195417523E-1
2.079902300E-1,-1.453639746E0,-1.042851925E1,1.592722535E0
2.177044480E-1,-9.747761488E-1,-8.968000412E0,2.047657967E0
2.274178860E-1,-1.003489971E0,-7.476673603E0,2.026122570E0
2.371305420E-1,-1.051346421E0,-5.853442192E0,1.489831209E0
2.468440320E-1,-1.527817249E0,-4.304389000E0,1.728814393E-1
2.565582510E-1,-1.997109652E0,-2.846262455E0,-1.160519004E0
2.662717400E-1,-3.060121059E0,-1.706680775E0,-1.660917997E0
2.759843440E-1,-4.343272209E0,-6.702894568E-1,-2.010270119E0
2.856978340E-1,-4.779065132E0,3.140579537E-2,-2.381456852E0
2.954120530E-1,-3.902693748E0,7.477570791E-3,-2.405385017E0
3.051255420E-1,-2.133500576E0,-6.340979934E-1,-1.569990754E0
3.148381460E-1,-2.733799815E-1,-1.098604679E0,-4.998008311E-1
3.245516360E-1,2.341975123E-1,-1.333400369E0,2.452643216E-2
3.342659070E-1,-7.785646915E-1,-1.242473125E0,2.213360928E-2
3.439792920E-1,-1.580459356E0,-1.548754454E0,-1.641775489E0
3.536919480E-1,-7.809575200E-1,-2.058724880E0,-5.024628639E0
3.634054380E-1,8.518448472E-1,-2.947060108E0,-8.716156006E0
3.731197090E-1,3.372982502E0,-4.206283092E0,-9.590133667E0
3.828330940E-1,5.575575829E0,-5.599503994E0,-5.702096462E0
3.925457510E-1,5.767001629E0,-6.526124477E0,6.421737671E-1
4.022592400E-1,4.560420990E0,-7.184450150E0,2.361117840E0
4.119735110E-1,4.153341770E0,-6.813562393E0,1.949552298E0
4.216868960E-1,1.996212244E0,-8.709575653E0,-2.560918331E0
4.313995530E-1,-1.031186962E1,-9.442078590E0,-1.220339537E0
4.411130940E-1,-1.393879032E1,-1.165184975E1,-9.595218897E-1
4.508273130E-1,-1.189651585E1,-1.525035572E1,-2.120639086E0
4.605406980E-1,-4.324129581E0,-1.810648918E1,5.802594870E-2
4.702533550E-1,2.609073877E0,-1.805863190E1,7.889136314E0
4.799668960E-1,6.990332127E0,-1.864995956E1,7.508677483E0
4.896811150E-1,6.830013275E0,-1.693580055E1,3.471985579E0
4.993946050E-1,3.289233923E0,-1.498206043E1,2.782553673E0
5.091072090E-1,-5.653043389E-1,-1.427348614E1,3.077169895E0
5.188206980E-1,-3.905086517E0,-1.426630783E1,1.932802439E0
5.285349170E-1,-5.312963486E0,-1.472842121E1,-1.627418518E0
5.382484070E-1,-3.840480328E0,-1.640429497E1,-3.437289715E0
5.479610110E-1,-2.183749676E0,-1.794587135E1,-2.395813704E0
5.576745010E-1,-1.103988528E0,-1.782862282E1,-2.187638044E0
5.673887710E-1,-5.533402413E-2,-1.664118385E1,-3.588037491E0
5.771021570E-1,1.062712312E0,-1.475713539E1,-5.936593056E0
5.868148130E-1,1.117747307E0,-1.259043407E1,-7.789834023E0
5.965283030E-1,-1.446461320E0,-1.000469017E1,-8.261519432E0
6.062425730E-1,-5.834897995E0,-7.948358536E0,-6.436992168E0
6.159559590E-1,-8.635995865E0,-7.155735970E0,-5.594419479E0
6.256686150E-1,-8.645566940E0,-7.682456017E0,-7.583752155E0
6.353821570E-1,-6.055037498E0,-9.343972206E0,-1.113918781E1
6.450963760E-1,-3.146262646E0,-1.065822983E1,-1.417956829E1
6.548098650E-1,-1.987538338E0,-1.115623665E1,-1.552253914E1
6.645224690E-1,-1.511067510E0,-1.023709393E1,-1.536939907E1
6.742359590E-1,-9.077770710E-1,-9.066405296E0,-1.409821224E1
6.839502300E-1,-3.379862010E-2,-8.051250458E0,-1.174247837E1
6.936636150E-1,4.064807594E-1,-6.914061069E0,-8.541479111E0
7.033762710E-1,8.823533356E-2,-5.678467274E0,-5.125126839E0
7.130898130E-1,-9.484550953E-1,-4.349852562E0,-2.697608471E0
7.228040320E-1,-2.370688915E0,-3.167199850E0,-4.304089844E-1
7.325175210E-1,-3.076870918E0,-2.549552441E0,2.030908108E0
7.422301260E-1,-2.933301449E0,-2.894418001E0,5.076074123E0
7.519436150E-1,-1.839183331E0,-4.029214382E0,8.748757362E0
7.616578860E-1,-1.429711580E0,-5.422435284E0,8.743971825E0
7.713712710E-1,-8.862416744E-1,-8.201997757E0,2.411366940E0
7.810839280E-1,-1.094417214E0,-1.163510036E1,-4.885844707E0
7.907974690E-1,-3.007478952E0,-1.517109394E1,-8.929415703E0
8.005116880E-1,-4.087240219E0,-1.937289047E1,-1.103599739E1
8.102251780E-1,-4.338486671E0,-2.201127625E1,-1.220698452E1
8.199377820E-1,-6.373582363E0,-2.222423744E1,-1.082782173E1
8.296512710E-1,-7.252047062E0,-2.149652100E1,-8.002795219E0
8.393655420E-1,-6.354439735E0,-2.030429649E1,-6.693323135E0
8.490789280E-1,-6.236892223E0,-1.874806404E1,-6.501598358E0
8.587916360E-1,-7.180262566E0,-1.820220184E1,-4.912165642E0
8.685051260E-1,-8.054241180E0,-1.796979904E1,-3.556930780E0
8.782193960E-1,-7.546663284E0,-1.737607956E1,-2.647359133E0
8.879327820E-1,-5.341677666E0,-1.636600876E1,-1.325623751E0
8.976454380E-1,-2.832503796E0,-1.479781342E1,3.143570721E-1
9.073589800E-1,-1.362712502E0,-1.304776287E1,1.360618830E0
9.170731980E-1,-7.450651526E-1,-1.093131161E1,1.561615825E0
9.267866880E-1,-3.092723191E-1,-8.731110573E0,1.631007791E0
9.364992920E-1,-4.169493318E-1,-6.676872253E0,1.686042666E0
9.462128340E-1,-5.844469070E-1,-5.113461971E0,1.257428288E0
9.559270530E-1,-8.048857450E-1,-3.868596077E0,6.637091637E-1
9.656405420E-1,-1.633101463E0,-2.911167860E0,2.497508675E-1
9.753531460E-1,-2.478366137E0,-2.132902384E0,1.728814393E-1
9.850666880E-1,-3.084049225E0,-1.699502230E0,2.904288471E-1
9.947809070E-1,-2.767897606E0,-1.237687469E0,-5.069792867E-1
1.004494396E0,-1.389033556E0,-6.774678826E-1,-2.556132793E0
1.014207001E0,6.652047038E-1,-7.564310431E-1,-3.765405416E0
1.023920542E0,2.997010469E0,-1.007677436E0,-2.460419893E0
1.033634761E0,3.219542980E0,-1.400399446E0,6.373881102E-1
1.043348251E0,2.676970363E-1,-2.336591244E0,3.019742250E0
1.053060855E0,-8.623134494E-1,-2.810370207E0,-6.385845542E-1
1.062774396E0,-5.892325640E-1,-2.580659151E0,-7.780262947E0
1.072488615E0,9.690931439E-1,-1.601396561E0,-1.127318573E1
1.082202105E0,2.388934374E0,-1.740180254E0,-1.328913879E1
1.091914709E0,4.617848396E0,-3.179163933E0,-1.167069340E1
1.101628251E0,5.190032482E0,-4.677968502E0,-1.912164450E0
1.111342521E0,4.083950043E0,-5.863013744E0,2.215155602E0
1.121055907E0,3.779762506E0,-5.891727448E0,2.784647346E-1
1.130768615E0,1.728216171E0,-8.010572433E0,-7.247261405E-1
1.140482105E0,-7.812266827E0,-9.403793335E0,-3.152244806E0
1.150196376E0,-1.089840984E1,-1.227428246E1,-1.055234790E0
1.159909865E0,-1.134108162E1,-1.695255089E1,1.020538807E0
1.169622469E0,-6.385546207E0,-1.828594971E1,4.310071945E0
1.179336011E0,-4.504488707E-1,-1.746222115E1,1.045813084E1
1.189050282E0,2.829512835E0,-1.785972977E1,1.029781151E1
1.198763667E0,3.442374468E0,-1.622932053E1,5.562116146E0
1.208476376E0,1.972284079E0,-1.421127319E1,1.257428288E0
1.218189865E0,-1.724028707E0,-1.319851017E1,1.614257932E0
1.227904136E0,-5.533103466E0,-1.397169113E1,1.928016901E0
1.237617626E0,-7.072585583E0,-1.535564041E1,-1.546062589E0
1.247330230E0,-4.168596268E0,-1.753191185E1,-3.200400352E0
1.257043771E0,-5.772684813E-1,-1.985893250E1,-1.995913148E0
1.266758042E0,1.156032443E0,-2.051486588E1,-1.100698471E0
1.276471428E0,1.965105653E0,-1.957149506E1,-2.252244234E0
1.286184136E0,1.620539188E0,-1.734736633E1,-4.402195454E0
1.295897626E0,1.323530078E0,-1.500359631E1,-5.931807518E0
1.305611896E0,8.662018180E-1,-1.276271820E1,-6.803392887E0
1.315325386E0,-6.801598072E-1,-1.055773163E1,-7.141079903E0
1.325037990E0,-4.944169998E0,-9.195617676E0,-5.898307800E0
1.334751532E0,-9.299106598E0,-8.438887596E0,-4.921737194E0
1.344465803E0,-9.650852203E0,-7.629814148E0,-5.979663849E0
1.354179292E0,-7.347760201E0,-7.837989807E0,-9.269196510E0
1.363891896E0,-4.450949192E0,-8.130212784E0,-1.204397392E1
1.373605438E0,-2.004287958E0,-8.350353241E0,-1.313091373E1
1.383319709E0,-9.484550953E-1,-7.900203228E0,-1.398574924E1
1.393033094E0,1.384846121E-1,-6.856633186E0,-1.495514107E1
1.402745803E0,1.388136268E0,-6.116652966E0,-1.452204037E1
1.412459344E0,1.900499344E0,-6.001797199E0,-1.176879883E1
1.422173615E0,1.347458243E0,-6.408876419E0,-7.145865917E0
1.431887001E0,2.123630047E-2,-6.171687603E0,-2.951247692E0
1.441599709E0,-1.680957913E0,-5.606682777E0,8.434699476E-2
1.451313251E0,-3.210868835E0,-4.790431023E0,1.520937920E0
1.461027521E0,-3.835694790E0,-4.522135735E0,1.597508192E0
1.470740907E0,-3.409473181E0,-5.252544880E0,4.068097591E0
1.480453615E0,-3.256332397E0,-6.236293793E0,7.506284714E0
1.490167157E0,-3.141477108E0,-7.021738052E0,6.873981476E0
1.499881428E0,-1.956431627E0,-9.119047165E0,1.544866085E0
1.509594813E0,-1.889432549E0,-1.287039471E1,-3.894618034E0
1.519307521E0,-1.549352646E0,-1.479542065E1,-5.596812248E0
1.529021063E0,-7.761718631E-1,-1.849173355E1,-6.990033150E0
1.538735334E0,-1.647458434E0,-2.057707787E1,-7.480860710E0
1.548448719E0,-4.209274292E0,-2.104876328E1,-7.959724426E0
1.558161428E0,-6.998407841E0,-2.092194366E1,-8.110472679E0
1.567874969E0,-8.662317276E0,-2.042393684E1,-7.165008068E0
1.577589240E0,-8.408378601E0,-2.024657059E1,-5.577669621E0
1.587302626E0,-7.728518009E0,-2.006949997E1,-3.075674295E0
1.597015334E0,-6.081358910E0,-1.977039719E1,-1.387837172E0
1.606728876E0,-4.245166302E0,-1.853480339E1,-1.069591761E0
1.616443146E0,-1.875075698E0,-1.684218216E1,-7.247261405E-1
1.626156636E0,-9.125627279E-1,-1.508734512E1,1.923231184E-1
1.635869240E0,-9.436694384E-1,-1.330858040E1,1.166501045E0
1.645582782E0,-1.199701428E0,-1.145085239E1,2.047657967E0
1.655297053E0,-1.115952611E0,-9.698409081E0,2.433201551E0
1.665010542E0,-9.293124676E-1,-7.883453369E0,2.212762833E0
1.674723146E0,-1.271785259E0,-5.925227165E0,1.571187139E0
1.684436688E0,-1.922932148E0,-4.347459793E0,8.602197170E-1
1.694150959E0,-2.676970243E0,-3.124129057E0,2.042872310E-1
1.703864448E0,-3.196511984E0,-2.231008053E0,-4.519443810E-1
1.713577053E0,-3.301796198E0,-1.646860242E0,-7.151548862E-1
1.723290594E0,-3.215654612E0,-1.256830096E0,-8.419744968E-1
1.733004865E0,-2.569293261E0,-8.904291391E-1,-1.768594980E0
1.742718355E0,-1.192523003E0,-6.583253145E-1,-2.417349100E0
1.752431011E0,6.723831892E-1,-7.133602500E-1,-1.473978758E0
1.762144553E0,2.429612398E0,-3.182454109E-1,1.609173268E-1
1.771858823E0,1.507777333E0,-6.029912829E-1,9.296116233E-1
1.781572209E0,-7.833502889E-1,-1.857727647E0,-1.050449133E0
1.791284917E0,-1.664208174E0,-2.848655462E0,-7.866404533E0
1.800998459E0,-1.230808139E0,-1.733001828E0,-1.268076324E1
1.810712730E0,-9.604191780E-1,-1.876870275E0,-1.493839169E1
1.820426219E0,-6.442674994E-1,-3.188735247E0,-1.339202976E1
1.830138823E0,1.156032443E0,-4.175176620E0,-4.588835716E0
1.839852365E0,1.124925733E0,-5.637789249E0,3.081955671E0
1.849566636E0,2.467897415E0,-5.475077152E0,5.078466892E0
1.859280126E0,4.627419949E0,-5.408078194E0,6.723233223E0
1.868992782E0,3.928416491E0,-9.209974289E0,-4.188935280E0
1.878706271E0,-6.818647385E0,-9.863513947E0,-4.155435562E0
1.888420542E0,-4.872385025E0,-1.334447289E1,-1.208375454E0
1.898134032E0,-7.295117855E0,-1.662682724E1,-2.769692242E-1
1.907846688E0,-5.090131760E0,-1.704586983E1,6.450451851E0
1.917560230E0,-9.077770710E-1,-1.797697830E1,9.239585876E0
1.927274501E0,3.602693558E0,-1.801047707E1,5.794219971E0
1.936987990E0,4.162913322E0,-1.656939888E1,1.525723577E0
1.946700594E0,1.890928149E0,-1.592064571E1,3.153740168E0
1.956414136E0,-1.793420553E0,-1.525753403E1,4.558925152E0
1.966128407E0,-4.386343002E0,-1.488395500E1,1.195214868E0
1.975841896E0,-3.002693415E0,-1.575763416E1,-1.529312730E0
1.985554553E0,-4.265206456E-1,-1.765394592E1,-2.611167669E0
1.995268042E0,6.101697683E-1,-1.852284050E1,-1.931306958E0
2.004982313E0,1.017248750E0,-1.809213257E1,-1.150947690E0
2.014695803E0,4.328017831E-1,-1.663639832E1,-1.981556296E0
2.024408459E0,-5.772684515E-2,-1.456780338E1,-4.395017147E0
2.034122001E0,-3.762713671E-1,-1.248275757E1,-6.580860615E0
2.043836271E0,-1.958824396E0,-1.065105152E1,-6.472884178E0
2.053549761E0,-5.044668198E0,-9.006285667E0,-5.558526993E0
2.063262365E0,-8.202595711E0,-8.664112091E0,-4.555335999E0
2.072975907E0,-8.164310455E0,-8.640183449E0,-4.253541470E0
2.082690178E0,-6.844968319E0,-9.099904060E0,-6.827321053E0
2.092403667E0,-4.628317356E0,-9.509077072E0,-1.164915752E1
2.102116323E0,-2.538186550E0,-9.652945518E0,-1.504636765E1
2.111829865E0,-1.939681888E0,-9.090332985E0,-1.591765404E1
2.121544136E0,-1.417747378E0,-8.393424034E0,-1.528325748E1
2.131257521E0,-8.001000881E-1,-7.996214867E0,-1.415563965E1
2.140970230E0,4.570291340E-1,-7.780561924E0,-1.176640606E1
2.150683771E0,1.055533886E0,-7.644171238E0,-8.321339607E0
2.160398042E0,7.992027402E-1,-7.347161770E0,-4.284647942E0
2.170111532E0,-9.840483218E-2,-6.530910492E0,-1.289731383E0
2.179824188E0,-1.494317770E0,-5.262115955E0,-3.529413417E-2
2.189537730E0,-2.696112871E0,-4.462315083E0,6.637091637E-1
2.199252001E0,-2.983550787E0,-4.828716278E0,3.354737282E0
2.208965490E0,-2.897109985E0,-6.253343105E0,8.116753578E0
2.218678094E0,-2.899502754E0,-7.438388348E0,1.018505001E1
2.228391636E0,-2.432902336E0,-7.682456017E0,4.568496704E0
2.238105907E0,-1.609173268E-1,-1.012433147E1,-3.923331738E0
2.247819396E0,9.547362328E-1,-1.347368526E1,-8.972486496E0
2.257532053E0,2.222333997E-1,-1.661725616E1,-1.114158058E1
2.267245594E0,-2.748754978E0,-1.881027794E1,-1.204158115E1
2.276959865E0,-7.319046497E0,-2.004796600E1,-9.448957443E0
2.286673355E0,-9.947860718E0,-2.024657059E1,-6.796214581E0
2.296385959E0,-1.015603638E1,-2.028006935E1,-5.651846886E0
2.306099501E0,-8.114061356E0,-1.982543373E1,-4.619942188E0
2.315813771E0,-5.554638863E0,-1.966002846E1,-3.942474365E0
2.325527261E0,-4.015156269E0,-1.949492455E1,-3.446861029E0
2.335239917E0,-2.964408159E0,-1.889641953E1,-2.714358091E0
2.344953459E0,-1.400997639E0,-1.742872238E1,-1.648953915E0
2.354667730E0,-7.642077208E-1,-1.578874111E1,-7.007979155E-1
2.364381219E0,-8.982058167E-1,-1.370608807E1,1.130608693E-1
2.374093876E0,-1.106381416E0,-1.140299606E1,8.267202377E-1
2.383807365E0,-9.125627279E-1,-9.114261627E0,1.051645517E0
2.393521688E0,-1.154237866E0,-7.024130821E0,7.477570772E-1
2.403235073E0,-1.534995675E0,-5.300401211E0,4.435695112E-1
2.412947782E0,-2.102393866E0,-3.911666870E0,9.248259664E-1
2.422661323E0,-2.669791937E0,-3.126521826E0,2.117049932E0
2.432375594E0,-3.031407118E0,-2.587837696E0,3.278167009E0
2.442089084E0,-3.179762125E0,-2.240579367E0,2.976372242E0
2.451801740E0,-3.141477108E0,-2.149652004E0,1.156929731E0
2.461515282E0,-2.679363251E0,-2.065903187E0,-1.359123230E0
2.471229553E0,-1.779063582E0,-1.752144337E0,-3.600001574E0
2.480943042E0,-1.441675574E-1,-1.553540111E0,-4.550550461E0
2.490655698E0,2.762513638E0,-1.307079315E0,-3.880260944E0
2.500369188E0,3.851846218E0,-4.139583111E-1,-2.989532709E0
2.510083511E0,8.518448472E-1,-9.981061220E-1,-3.528217077E0
2.519796896E0,-5.150550604E-1,-1.144068360E0,-7.392326355E0
2.529509605E0,-6.658028960E-1,-3.637090325E-1,-1.383948803E1
2.539223146E0,1.599003673E0,-1.091426253E0,-2.035634041E1
2.548937417E0,2.518146753E0,-2.537588358E0,-1.185972595E1
2.558650907E0,8.542376757E-1,-4.548456669E0,5.143073082E0
2.568363563E0,8.039883971E-1,-5.918048382E0,8.202895164E0
2.578077105E0,2.228615284E0,-4.177569389E0,8.336893082E0
2.587791376E0,3.346661568E0,-6.882954121E0,6.103193283E0
2.597504865E0,-6.854539394E0,-8.834002495E0,-1.760788536E1
2.607217521E0,-7.067800045E0,-1.291107273E1,-6.812964439E0
2.616931063E0,-1.171226883E1,-1.619581985E1,4.879862785E0
2.626645334E0,-1.027836990E1,-2.034976006E1,6.603592396E0
2.636358823E0,5.479564071E-1,-2.147259140E1,7.523034573E0
2.646071480E0,8.280661583E0,-1.965524292E1,4.652245522E0
2.655785021E0,7.435696602E0,-1.789801407E1,-9.113663435E-1
2.665499292E0,4.294518471E0,-1.617906952E1,-1.806880236E0
2.675212782E0,3.083750308E-1,-1.476670647E1,1.721935034E0
2.684925386E0,-3.203690529E0,-1.422562981E1,3.412165165E0
2.694638928E0,-5.679065228E0,-1.422802258E1,-5.069792867E-1
2.704353251E0,-5.173880577E0,-1.438594913E1,-5.323731422E0
2.714066636E0,-4.307379723E0,-1.481695557E1,-5.972485542E0
2.723779344E0,-4.541876316E0,-1.426630783E1,-3.442075491E0
2.733492886E0,-4.611268520E0,-1.290628719E1,-2.046162367E0
2.743207157E0,-3.287439108E0,-1.131924725E1,-3.106781006E0
2.752920646E0,-1.345962763E0,-1.011236763E1,-5.170590401E0
2.762633303E0,-5.485545993E-1,-9.164510727E0,-5.931807518E0
2.772346844E0,-7.833502889E-1,-8.738288879E0,-5.383552074E0
2.782061115E0,-1.350748420E0,-9.755837440E0,-4.893023014E0
2.791774605E0,-1.719243050E0,-1.065822983E1,-2.977568626E0
2.801487261E0,-1.788634896E0,-1.081167030E1,-2.460419893E0
2.811200803E0,-1.894218206E0,-1.120409298E1,-6.686144829E0
2.820915073E0,-2.461616278E0,-1.025862885E1,-1.314287758E1
2.830628563E0,-4.043870449E0,-8.324031830E0,-1.869960976E1
2.840341219E0,-5.411069393E0,-6.743871689E0,-1.976262093E1
2.850054761E0,-5.480461121E0,-6.439982891E0,-1.632951927E1
2.859769032E0,-4.795814991E0,-6.835097790E0,-1.109850979E1
2.869482521E0,-3.117548704E0,-7.263412952E0,-5.501099110E0
2.879195178E0,-8.742775917E-1,-7.263412952E0,-1.306481123E0
2.888908719E0,3.777668774E-1,-6.109474182E0,-5.596213937E-1
2.898622990E0,8.422735929E-1,-4.821537495E0,1.231107235E0
2.908336480E0,1.086640596E0,-3.803989887E0,5.375475883E0
2.918049136E0,9.523434043E-1,-3.231806040E0,5.935695648E0
2.927762678E0,-5.389832854E-1,-2.690729141E0,2.507379055E0
2.937476948E0,-1.415354609E0,-3.442374468E0,-2.233101845E0
2.947190438E0,-1.487139225E0,-6.423233509E0,-6.939784050E0
2.956903094E0,-3.265903711E0,-1.101027393E1,-8.934201241E0
2.966616636E0,-4.848456860E0,-1.579143333E1,-7.605287552E0
2.976330907E0,-5.377569675E0,-2.044068718E1,-7.645965576E0
2.986044396E0,-7.180262566E0,-2.266481590E1,-8.112865448E0
2.995757001E0,-8.121239662E0,-2.218595314E1,-7.495217800E0
3.005470594E0,-7.364510059E0,-2.131675911E1,-6.856035233E0
3.015184865E0,-6.145965099E0,-2.013410759E1,-7.172186852E0
3.024898355E0,-4.826921463E0,-1.889881325E1,-6.058926105E0
3.034610959E0,-3.885943890E0,-1.802483368E1,-3.537788391E0
3.044324501E0,-3.507878065E0,-1.708176231E1,-1.859522343E0
3.054038771E0,-3.134298563E0,-1.581296825E1,-1.339980721E0
3.063752395E0,-2.423331022E0,-1.458694553E1,-9.619147182E-1
3.073465051E0,-2.418545485E0,-1.363908863E1,1.202393398E-1
3.083178593E0,-2.428116798E0,-1.225753307E1,1.034895778E0
3.092892864E0,-2.119143486E0,-1.046680450E1,1.159322619E0
3.102606353E0,-1.563709617E0,-8.469993591E0,7.573283911E-1
3.112319062E0,-6.466603279E-1,-6.983452797E0,5.632106066E-1
3.122032603E0,-1.322034448E-1,-5.623432159E0,6.110670567E-1
3.131746874E0,-3.595215976E-1,-4.361816406E0,5.273182988E-1
3.141460364E0,-1.319641709E0,-3.021237612E0,6.756733060E-1
3.151173020E0,-2.420938253E0,-1.965404749E0,3.622135222E-1
3.160886562E0,-3.385545015E0,-1.141675472E0,-1.118644550E-1
3.170600832E0,-3.771088600E0,-8.425726891E-1,-8.060821295E-1
3.180314322E0,-3.203690529E0,-6.918248534E-1,-1.916949987E0
3.190026978E0,-7.378866673E-1,-5.790630579E-1,-3.399004459E0
3.199740520E0,3.363411427E0,2.662015148E-2,-3.786941051E0
3.209454791E0,-4.887340367E-1,-2.951845884E0,1.432403445E0
3.219168280E0,-1.475175142E0,-3.114557743E0,1.223928809E0
3.228880937E0,-6.394818425E-1,-1.240080357E0,-4.289433479E0
3.238594478E0,-1.575673699E0,-2.274078846E0,-9.166305542E0
3.248308749E0,-1.135095239E0,-1.326221943E0,-1.171615696E1
3.258022239E0,1.014855862E0,-2.324627161E0,-1.314048481E1
3.267734895E0,4.680061817E0,-4.091427803E0,-8.843274117E0
3.277448437E0,6.751049995E0,-5.156831741E0,-4.086043835E0
3.287162707E0,7.078866482E0,-4.826323509E0,-1.572383523E0
3.296876197E0,2.685943365E0,-6.284449577E0,2.727518797E0
3.306588853E0,-8.072785139E-1,-1.061994553E1,6.163013935E0
3.316302395E0,-1.011057281E1,-1.461805248E1,4.124628007E-1
3.326016666E0,-7.141977310E0,-1.580339718E1,-3.763012648E0
3.335730155E0,-3.730410576E0,-1.677518272E1,-4.912165642E0
3.345442812E0,-3.574877024E0,-1.554228020E1,7.259524822E0
3.355156301E0,-4.642673969E0,-1.828594971E1,1.267747307E1
3.364870572E0,-1.106381416E0,-1.694776535E1,1.084816074E1
3.374584062E0,1.426421404E0,-1.546810246E1,3.213560820E0
3.384296718E0,1.802393675E0,-1.449362564E1,-2.319243431E0
3.394010259E0,-7.211369276E-1,-1.408654690E1,-2.551347256E0
3.403724530E0,-3.052942514E0,-1.487438393E1,-2.347957134E0
3.413438020E0,-3.335295677E0,-1.662443352E1,-3.149851799E0
3.423150676E0,-6.107679605E-1,-1.876720619E1,-2.489133835E0
3.432864218E0,6.364908218E-1,-1.947817421E1,-1.081555843E0
3.442578489E0,1.275673628E0,-1.863081551E1,-1.706381679E0
3.452291978E0,1.811964989E0,-1.698365784E1,-4.866702080E0
3.462004634E0,1.917249203E0,-1.441944790E1,-8.460124016E0
3.471718176E0,4.474578202E-1,-1.166142082E1,-9.297910690E0
3.481432447E0,-2.495115757E0,-9.181260109E0,-7.588537693E0
3.491145937E0,-6.708577156E0,-7.414460182E0,-4.888237476E0
3.500858593E0,-9.428318977E0,-8.101499557E0,-3.944867134E0
3.510572134E0,-8.312665939E0,-8.673683167E0,-4.248755932E0
3.520286405E0,-5.873183250E0,-7.577171803E0,-6.312565327E0
3.529999895E0,-4.142275333E0,-7.857132435E0,-1.280309677E1
3.539712499E0,-2.962015390E0,-7.071987152E0,-1.725135422E1
3.549426041E0,-1.946860313E0,-6.279664040E0,-1.744995880E1
3.559140364E0,-4.576273263E-2,-6.435197353E0,-1.591047573E1
3.568853853E0,1.630110383E0,-7.036095142E0,-1.261855030E1
3.578566457E0,2.242972136E0,-7.363911629E0,-7.483253479E0
3.588279999E0,2.269293070E0,-7.316055298E0,-2.216351986E0
3.597994270E0,1.838286042E0,-6.664908409E0,1.413260818E0
3.607707759E0,1.024427176E0,-5.372185707E0,2.727518797E0
3.617420416E0,4.995017126E-2,-3.827918053E0,3.290131092E0
3.627133957E0,-9.915258884E-1,-2.566302299E0,6.550950050E0
3.636848228E0,-1.338784218E0,-1.986940145E0,1.006301594E1
3.646561718E0,-2.382653236E0,-1.977368832E0,9.328120232E0
3.656274374E0,-3.790230989E0,-3.136093140E0,2.382653236E0
3.665987916E0,-3.754338741E0,-6.624230385E0,-5.773880959E0
3.675702187E0,-4.386343002E0,-1.075184917E1,-1.108175945E1
3.685415676E0,-4.936991215E0,-1.581296825E1,-1.332263851E1
3.695128332E0,-5.013561726E0,-2.068236160E1,-1.186690521E1
3.704841874E0,-5.396712303E0,-2.294477654E1,-9.099306107E0
3.714556145E0,-5.466104031E0,-2.321546364E1,-6.815357208E0
3.724269634E0,-5.133202553E0,-2.280120659E1,-5.417051315E0
3.733982239E0,-5.566602707E0,-2.183869362E1,-5.666203976E0
3.743695780E0,-6.380760670E0,-2.090997887E1,-5.204090118E0
3.753410051E0,-7.182655334E0,-1.995225334E1,-3.463610888E0
3.763123541E0,-6.773183823E0,-1.813998795E1,-2.347957134E0
3.772836197E0,-4.271487713E0,-1.521177197E1,-1.759023786E0
3.782549739E0,-3.515056372E0,-1.341147137E1,-1.715952992E0
3.792264009E0,-3.802195072E0,-1.313868999E1,-1.469193101E0
3.801977499E0,-2.729612350E0,-1.173320580E1,-1.836491376E-1
3.811690155E0,-1.942074656E0,-1.012193871E1,1.094716311E0
3.821403697E0,-1.065703392E0,-8.618648529E0,1.918445587E0
3.831117968E0,-6.179464459E-1,-7.143772125E0,2.042872429E0
3.840831457E0,-8.623134494E-1,-5.800800323E0,2.078764677E0
3.850544062E0,-1.106381416E0,-4.608576298E0,1.913659930E0
3.860257603E0,-1.436890006E0,-3.643670797E0,1.712363720E0
3.869971874E0,-1.802991867E0,-2.920739174E0,1.123430252E0
3.879685364E0,-2.260320187E0,-2.329412937E0,-2.027917206E-1
3.889398020E0,-2.590828657E0,-1.527219057E0,-2.019841433E0
3.899111562E0,-1.702493310E0,-1.177567840E0,-3.602394581E0
3.908825832E0,8.303094506E-1,-1.539183140E0,-3.640679598E0
3.918539322E0,3.174079180E0,-1.689931035E0,-1.926521301E0
3.928251926E0,2.980260611E0,-9.981061220E-1,-1.136590719E0
3.937965468E0,3.131606579E-1,-1.500898004E0,-4.402195454E0
3.947679739E0,-2.478366137E0,-2.793620348E0,-1.081585789E1
3.957393228E0,-2.389831543E0,-9.143573642E-1,-1.137846947E1
3.967105884E0,-8.359923959E-1,-1.091426253E0,-1.289163113E1
3.976819426E0,1.318744421E0,-2.824727058E0,-1.049282646E1
3.986533697E0,2.843869686E0,-4.096213341E0,-1.261017561E0
3.996247187E0,3.087937593E0,-5.152046204E0,2.330011129E0
4.005959843E0,2.913261652E0,-4.156033993E0,4.618745804E0
4.015673384E0,6.747759581E-1,-6.064010620E0,1.114995575E1
4.025387655E0,-3.009871721E0,-7.400103092E0,7.501499057E-1
4.035101041E0,-1.285663605E1,-9.940084457E0,-7.303792000E0
4.044813749E0,-7.213762283E0,-1.450319672E1,-8.124829292E0
4.054527291E0,-3.335295677E0,-1.776640892E1,2.282154560E-1
4.064241562E0,-8.934201598E-1,-1.917907143E1,1.033370399E1
4.073955051E0,2.393719912E0,-2.164487457E1,1.243071365E1
4.083667707E0,6.214758396E0,-2.002643013E1,6.783053875E0
4.093381249E0,5.728716373E0,-1.695255089E1,7.238288224E-2
4.103095520E0,3.042474031E0,-1.563799286E1,-9.930213690E-1
4.112809009E0,-2.973082066E-1,-1.461326694E1,2.090728730E-1
4.122521614E0,-4.000799656E0,-1.369651699E1,-5.356931686E-1
4.132235155E0,-5.719743252E0,-1.360798264E1,-3.286541939E0
4.141949426E0,-4.273880482E0,-1.491984749E1,-3.573680639E0
4.151662916E0,-2.609971285E0,-1.562363625E1,-1.548455358E0
4.161375572E0,-6.179464459E-1,-1.571695614E1,-8.132606149E-1
4.171089114E0,3.777668774E-1,-1.456541061E1,-2.697608471E0
4.180803384E0,4.522434771E-1,-1.284646702E1,-5.395515919E0
4.190516874E0,1.863410622E-1,-1.147478104E1,-6.391528606E0
4.200229478E0,-6.924230456E-1,-1.003579712E1,-5.472385406E0
4.209943020E0,-3.325724363E0,-8.795717239E0,-4.564907551E0
4.219657291E0,-6.917052269E0,-8.285746574E0,-4.121936321E0
4.229370780E0,-7.852944851E0,-7.883453369E0,-5.723631859E0
4.239083437E0,-7.290332317E0,-8.003393173E0,-9.855737686E0
4.248796978E0,-5.827719688E0,-8.520542145E0,-1.387328625E1
4.258511249E0,-4.302594185E0,-9.245866776E0,-1.580040646E1
4.268224739E0,-2.959622622E0,-9.743872643E0,-1.600618935E1
4.277937343E0,-1.403390527E0,-1.000229740E1,-1.487857151E1
4.287650884E0,9.451649189E-1,-9.633803368E0,-1.215643597E1
4.297365155E0,2.616252422E0,-9.049356461E0,-8.213363647E0
4.307078645E0,2.664108992E0,-8.379066467E0,-4.299005032E0
4.316791301E0,1.931606054E0,-7.431210041E0,-1.692024708E0
4.326504791E0,8.685946465E-1,-5.668895721E0,-4.998008311E-1
4.336219114E0,-3.379862010E-1,-3.916452408E0,-2.333002165E-2
4.345932499E0,-1.405783296E0,-2.819941521E0,9.655039310E-1
4.355645207E0,-1.915753603E0,-2.822334290E0,6.775875568E0
4.365358749E0,-1.604387641E0,-4.349852562E0,1.216032505E1
4.375073020E0,-2.464009047E0,-5.209474087E0,8.423034668E0
4.384786509E0,-3.694518089E0,-5.441577911E0,-2.379063845E0
4.394499114E0,-3.883551121E0,-9.317651749E0,-8.807381630E0
4.404212655E0,-4.379164696E0,-1.458694553E1,-8.876773834E0
4.413926926E0,-3.131905794E0,-2.053161430E1,-9.233304024E0
4.423640416E0,-3.261118174E0,-2.431915474E1,-1.132582760E1
4.433353072E0,-5.985645771E0,-2.491765785E1,-1.001396275E1
4.443066614E0,-7.690232754E0,-2.467807770E1,-8.888737679E0
4.452780884E0,-7.754838943E0,-2.379482651E1,-8.373981476E0
4.462494270E0,-7.149155617E0,-2.206152534E1,-5.953342915E0
4.472206978E0,-7.405188084E0,-2.087408829E1,-2.161317110E0
4.481920520E0,-6.677470684E0,-1.927239227E1,2.473580390E-1
4.491634791E0,-2.490330219E0,-1.635165215E1,2.808575630E-1
4.501348280E0,5.120640397E-1,-1.393579865E1,-2.811566554E-2
4.511060884E0,4.232304990E-1,-1.251147175E1,3.717848063E-1
4.520774426E0,1.671984792E-1,-1.090977573E1,1.355833173E0
4.530488697E0,-3.020938635E-1,-9.229117393E0,2.047657967E0
4.540202187E0,-8.407780528E-1,-7.627421379E0,2.210369825E0
4.549914843E0,-9.939187169E-1,-6.042475224E0,1.647757530E0
4.559628332E0,-1.063310504E0,-4.685146809E0,8.458628058E-1
4.569342603E0,-1.286142230E0,-3.789632797E0,5.847460628E-1
4.579056093E0,-1.975574136E0,-2.762513638E0,2.593221664E-1
4.588768749E0,-2.602792740E0,-1.766800404E0,1.585244983E-1
4.598482291E0,-3.364009619E0,-9.311071038E-1,-2.003988922E-1
4.608196562E0,-3.787838221E0,-3.589234054E-1,-7.749754190E-1
4.617909947E0,-3.665804386E0,2.060818523E-1,-1.418943882E0
4.627622655E0,-2.155035973E0,5.294120312E-1,-1.981556296E0
4.637336197E0,8.638089895E-1,5.748756528E-1,-1.095912814E0
4.647050468E0,1.134497046E0,-1.812264085E0,1.269392371E0
4.656763957E0,-1.223330572E-1,-3.449851990E0,-7.079764009E-1
4.666476562E0,-4.600201547E-1,-3.171985626E0,-7.581359386E0
4.676190103E0,-2.063809484E-1,-3.353840113E0,-1.157468128E1
4.685904374E0,5.958128572E-1,-1.931905150E0,-1.306630707E1
4.695617864E0,3.214757204E0,-3.126521826E0,-1.554676723E1
4.705330468E0,5.996712685E0,-4.345067024E0,-9.535099030E0
4.715044009E0,6.068796635E0,-5.171188831E0,-1.170090318E0
4.724758280E0,3.918845177E0,-5.882156372E0,6.218048573E0
4.734471770E0,1.567897081E0,-8.592327118E0,1.418076420E1
4.744184426E0,-8.264211416E-1,-1.269811153E1,8.822935104E0
4.753897968E0,-8.446663857E0,-1.605464363E1,-6.276672840E0
4.763612187E0,-5.741578102E0,-1.552792358E1,-1.603011703E1
4.773325676E0,-5.815755367E0,-1.408893967E1,5.225326419E-1
4.783038332E0,-7.508378506E0,-1.769940948E1,1.256740379E1
4.792751874E0,-2.873181820E0,-1.933221245E1,1.529163265E1
4.802466145E0,2.053640127E0,-1.730429459E1,1.016112137E1
4.812179530E0,3.289233923E0,-1.550878048E1,1.204786181E0
4.821892239E0,1.599003673E0,-1.377787304E1,-3.693321705E0
4.831605780E0,-7.354938388E-1,-1.366780281E1,-3.085245609E0
4.841320051E0,-3.021835804E0,-1.496291828E1,-1.797308922E0
4.851033437E0,-4.735994339E0,-1.648804283E1,-1.531705618E0
4.860746145E0,-4.163810730E0,-1.727797318E1,-1.481157184E0
4.870459687E0,-2.399402857E0,-1.737847328E1,-1.955235243E0
4.880173957E0,-2.178964138E0,-1.646411514E1,-3.008675337E0
4.889887447E0,-1.906182289E0,-1.472124290E1,-5.084448814E0
4.899600051E0,-1.422533035E0,-1.244207954E1,-7.155436993E0
4.909313593E0,-1.070489049E0,-1.030409241E1,-7.911868095E0
4.919027864E0,-1.434497118E0,-8.865108490E0,-6.619145870E0
4.928741353E0,-2.751147747E0,-8.017750740E0,-4.756333351E0
4.938453957E0,-4.623531342E0,-8.700003624E0,-3.870689631E0
4.948167499E0,-5.152345181E0,-8.977571487E0,-3.841975927E0
4.957881770E0,-3.445365429E0,-9.310472488E0,-6.695715904E0
4.967595259E0,-1.305284739E0,-9.655338287E0,-1.099292660E1
4.977307864E0,-3.906283081E-1,-9.305686951E0,-1.332981682E1
4.987021405E0,-3.140579760E-1,-8.350353241E0,-1.395942783E1
4.996735676E0,-4.839483798E-1,-7.112665176E0,-1.370309734E1
5.006449166E0,-4.983053207E-1,-6.394519329E0,-1.243669605E1
5.016161770E0,-9.870393202E-3,-6.073582172E0,-9.855737686E0
5.025875312E0,9.978070259E-1,-5.870192051E0,-6.568896294E0
5.035589582E0,1.479063511E0,-5.381757259E0,-3.281756163E0
5.045303072E0,4.857429862E-1,-4.342673779E0,-7.677969933E-1
5.055015728E0,-1.125523925E0,-3.148057222E0,3.287140131E-1
5.064729218E0,-2.794218540E0,-2.082653046E0,2.215155602E0
5.074443489E0,-3.387937784E0,-1.996511340E0,4.700400829E0
5.084156978E0,-2.925823927E0,-2.190330029E0,6.241976738E0
5.093869634E0,-2.815753937E0,-3.863810301E0,2.401795626E0
5.103583124E0,-3.466900826E0,-7.488637447E0,-5.714060307E0
5.113297395E0,-3.359223843E0,-1.232931805E1,-9.206983566E0
5.123010884E0,-3.129513025E0,-1.797937012E1,-6.662216663E0
5.132723489E0,-1.678565025E0,-2.290170479E1,-4.227220535E0
5.142437030E0,5.479564071E-1,-2.521915436E1,-4.998307228E0
5.152151301E0,-3.403790295E-1,-2.361028099E1,-7.559823990E0
5.161864791E0,-2.708076954E0,-2.112054825E1,-8.455337524E0
5.171577395E0,-4.704887390E0,-1.954995918E1,-8.120043755E0
5.181290937E0,-6.071787357E0,-1.851087570E1,-6.896713257E0
5.191005207E0,-7.350152969E0,-1.778794479E1,-4.212863445E0
5.200718697E0,-8.260024071E0,-1.669382668E1,-1.969592094E0
5.210431301E0,-7.388438225E0,-1.496770382E1,-9.690931439E-1
5.220144843E0,-5.248357296E0,-1.331815147E1,-6.361917257E-1
5.229859114E0,-3.924229145E0,-1.198714447E1,-3.391826153E-1
5.239572603E0,-3.005086184E0,-1.078295612E1,2.545365095E-1
5.249285207E0,-2.722434044E0,-9.360722542E0,9.056833982E-1
5.258998749E0,-2.440080881E0,-7.498209000E0,8.721838593E-1
5.268713020E0,-2.856431961E0,-5.920441628E0,6.397809386E-1
5.278426509E0,-3.052942514E0,-4.534099579E0,6.206383705E-1
5.288139114E0,-2.995514870E0,-3.519243956E0,5.201398134E-1
5.297852655E0,-3.143869877E0,-2.506481647E0,-1.286142170E-1
5.307566926E0,-3.287439108E0,-1.620539188E0,-1.091127157E0
5.317280416E0,-3.392723322E0,-1.421934843E0,-1.483550072E0
5.326993020E0,-3.000300407E0,-1.536790371E0,-1.610668778E0
5.336706562E0,-2.389831543E0,-1.773978829E0,-1.351944804E0
5.346420832E0,-1.930110574E0,-2.173580170E0,-1.368694544E0
5.356134218E0,-5.772684813E-1,-2.889632463E0,-1.395015597E0
5.365846926E0,1.488634825E0,-3.739383698E0,-1.694417477E0
5.375560468E0,2.388934374E0,-4.287639141E0,-2.826820850E0
5.385274739E0,2.108675003E0,-4.926821709E0,-4.064508438E0
5.394988124E0,1.256531000E0,-5.427220821E0,-5.532206059E0
5.404700832E0,1.141675472E0,-5.357829094E0,-8.948558807E0
5.414414374E0,1.955534339E0,-5.422435284E0,-1.314527035E1
5.424128593E0,3.847060680E0,-5.882156372E0,-1.273131180E1
5.433842082E0,5.984748363E0,-6.444768906E0,-7.761120319E0
5.443554739E0,6.075974941E0,-6.743871689E0,-9.990034252E-2
5.453268228E0,4.953142643E0,-7.215556622E0,6.261119366E0
5.462982499E0,5.309673309E0,-7.754240990E0,1.319940805E0
5.472695989E0,-7.441379547E0,-8.956035614E0,-9.352945685E-1
5.482408645E0,-1.476491165E1,-7.699205875E0,4.927719116E0
5.492122134E0,-1.509990692E1,-1.073001480E1,-7.677969933E-1
5.501836405E0,-1.167398357E1,-1.141017437E1,-1.836491376E-1
5.511549895E0,-5.511568069E0,-1.443859100E1,4.717150688E0
5.521262499E0,3.370888829E-1,-1.620299911E1,4.805685043E0
5.530976041E0,2.154437780E0,-1.589432430E1,4.616353035E0
5.540690312E0,2.312364101E0,-1.412513161E1,3.471985579E0
5.550403801E0,4.351946115E-1,-1.263829136E1,1.786541224E0
5.560116405E0,-2.538186550E0,-1.259043407E1,-1.597209126E-1
5.569829947E0,-3.739981890E0,-1.461805248E1,-1.936092615E0
5.579544218E0,-3.643072546E-1,-1.708654785E1,-2.333600283E0
5.589257603E0,1.510170221E0,-1.925085640E1,-7.869395614E-1
5.598970312E0,2.027318954E0,-1.985414696E1,7.402794957E-1
5.608683853E0,7.250252366E-1,-1.913330841E1,-3.080759048E-1
5.618398124E0,-2.973082066E-1,-1.758216095E1,-3.623929977E0
5.628111509E0,-1.345962733E-1,-1.535085487E1,-6.453741550E0
5.637824218E0,-7.450651526E-1,-1.280818176E1,-7.351648331E0
5.647537707E0,-2.638685226E0,-1.017966557E1,-7.224828720E0
5.657251978E0,-4.843671322E0,-8.060821533E0,-6.453741550E0
5.666965468E0,-6.998407841E0,-7.268198967E0,-6.061318874E0
5.676678072E0,-7.742875099E0,-7.366304398E0,-6.621538639E0
5.686391614E0,-5.818148136E0,-8.024929047E0,-9.372386932E0
5.696105884E0,-2.779861689E0,-8.884251595E0,-1.251565838E1
5.705819374E0,-3.427718580E-1,-9.825228691E0,-1.300170135E1
5.715531978E0,4.426721931E-1,-1.005972576E1,-1.189083290E1
5.725245520E0,-6.011966988E-2,-9.346364975E0,-1.068185902E1
5.734959791E0,-3.236292601E-1,-8.027321815E0,-9.707382202E0
5.744673280E0,-1.992024779E-1,-7.009773731E0,-8.649156570E0
5.754385884E0,8.542376757E-1,-6.581159592E0,-7.184150696E0
5.764099426E0,1.483849168E0,-6.212365627E0,-5.525027275E0
5.773813697E0,1.630110383E0,-5.649753571E0,-3.751048565E0
5.783527082E0,7.680960894E-1,-4.649254322E0,-2.848356247E0
5.793239791E0,-1.199701428E0,-3.555136204E0,-1.780559182E0
5.802953332E0,-3.246761322E0,-3.052344322E0,1.791326880E0
5.812667551E0,-4.482056141E0,-3.638885021E0,5.686542988E0
5.822381041E0,-5.104488850E0,-5.329114914E0,6.778268337E0
5.832093697E0,-4.798207760E0,-7.476673603E0,4.805685043E0
5.841807187E0,-3.215654612E0,-1.043330479E1,-1.950449586E0
5.851521457E0,-7.546364665E-1,-1.479781342E1,-7.389933586E0
5.861234947E0,9.541380405E-2,-1.957388687E1,-9.496813774E0
5.870947551E0,-9.412766099E-1,-2.276052856E1,-1.025085258E1
5.880661093E0,-4.087240219E0,-2.307638168E1,-8.689834595E0
5.890375364E0,-7.170691490E0,-2.234148598E1,-6.271887302E0
5.900088853E0,-8.212167740E0,-2.116361809E1,-5.663811207E0
5.909801457E0,-7.546663284E0,-1.978954124E1,-5.752345562E0
5.919514999E0,-6.615257263E0,-1.889881325E1,-4.351946354E0
5.929229270E0,-6.200999737E0,-1.808495331E1,-2.577668190E0
5.938942655E0,-5.729314804E0,-1.697647858E1,-1.701596022E0
5.948655364E0,-4.125525475E0,-1.570977783E1,-1.134197950E0
5.958368905E0,-2.758326292E0,-1.442184162E1,-6.290132403E-1
5.968083176E0,-2.485544443E0,-1.309561920E1,1.298106313E-1
5.977796562E0,-2.281855583E0,-1.129502010E1,9.056833982E-1
5.987509270E0,-1.987538338E0,-9.396614075E0,1.130608678E0
5.997222759E0,-1.795813441E0,-7.524529934E0,1.197607756E0
6.006937030E0,-1.774278045E0,-5.784050465E0,1.216750264E0
6.016650520E0,-1.599601984E0,-4.479064941E0,8.721838593E-1
6.026363124E0,-1.551745534E0,-3.528815269E0,6.876373887E-1
6.036076666E0,-1.887039781E0,-2.678765059E0,7.645068169E-1
6.045790937E0,-2.552543640E0,-1.903191328E0,5.201398134E-1
6.055504426E0,-3.450151205E0,-1.438684583E0,-2.506481707E-1
6.065217030E0,-3.775874138E0,-1.024427176E0,-1.395015597E0
6.074930572E0,-3.244368315E0,-4.761717021E-1,-2.395813704E0
6.084644843E0,-1.822433591E0,-3.421736360E-1,-3.075674295E0
6.094358228E0,5.934200287E-1,-1.007677436E0,-3.121138096E0
6.104070937E0,1.505384564E0,-1.290329576E0,-2.891427040E0
6.113784478E0,-4.671986103E-1,-1.704287887E0,-3.157030344E0
6.123498749E0,-1.005882859E0,-3.294019461E0,-6.212066650E0
6.133212134E0,8.422735929E-1,-3.512065411E0,-8.072187424E0
6.142924843E0,2.882154942E0,-3.583850145E0,-9.099306107E0
6.152638384E0,5.515755177E0,-4.337888241E0,-1.023888779E1
6.162352603E0,5.946463585E0,-4.981856823E0,-4.663012981E0
6.172066093E0,5.853143215E0,-6.358626842E0,5.084748194E-2
6.181778697E0,4.871487617E0,-7.282555580E0,2.543271303E0
6.191492239E0,3.035295486E0,-9.083154678E0,7.834101200E0
6.201206509E0,-1.314856052E0,-1.224078369E1,1.999801517E0
6.210919999E0,-9.179466248E0,-1.295175076E1,-4.363910198E0
6.220632603E0,-8.023134232E0,-1.476431370E1,-1.500598907E0
6.230346145E0,-7.412366390E0,-1.547288895E1,-4.328017831E-1
6.240060416E0,-5.157131195E0,-1.501316738E1,5.583651543E0
6.249773801E0,-1.544566989E0,-1.571934891E1,8.657830238E0
6.259486509E0,2.606681108E0,-1.527906990E1,4.788935184E0
6.269200051E0,3.032902718E0,-1.292542934E1,2.567199707E0
6.278914270E0,1.632503271E0,-1.180738354E1,2.921337366E0
6.288627759E0,-2.641077995E0,-1.193210888E1,7.788637877E-1
6.298340416E0,-5.094917774E0,-1.198235893E1,-2.836392164E0
6.308053905E0,-3.957728624E0,-1.417059517E1,-3.844368696E0
6.317768176E0,-1.582852125E0,-1.678953934E1,-2.956033230E0
6.327481666E0,2.988037169E-1,-1.837448502E1,-2.010270119E0
6.337194270E0,9.978070259E-1,-1.794347763E1,-1.194018483E0
6.346907812E0,2.174477577E-1,-1.627478409E1,-1.759023786E0
6.356622082E0,-4.671986103E-1,-1.442184162E1,-3.576073408E0
6.366335572E0,-8.335995674E-1,-1.213310623E1,-5.182554722E0
6.376048176E0,-1.802991867E0,-9.609575272E0,-6.391528606E0
6.385761718E0,-2.906681299E0,-7.936394691E0,-6.777071953E0
6.395475989E0,-5.236393452E0,-7.766204834E0,-6.257530212E0
6.405189374E0,-7.482057095E0,-8.230711937E0,-5.728417397E0
6.414902082E0,-6.557829380E0,-9.013463974E0,-6.832107067E0
6.424615572E0,-5.130809784E0,-9.485149384E0,-1.049043369E1
6.434329843E0,-3.917050600E0,-9.387042999E0,-1.419153214E1
6.444043332E0,-3.498306751E0,-8.757431984E0,-1.492882061E1
6.453755989E0,-3.330509901E0,-8.020143509E0,-1.359781265E1
6.463469478E0,-2.887538671E0,-7.385746002E0,-1.138564873E1
6.473183749E0,-1.762313843E0,-6.981060028E0,-8.362017632E0
6.482897239E0,-5.389832854E-1,-6.638587475E0,-5.012664318E0
6.492609843E0,3.394817114E-1,-6.052046776E0,-2.546561480E0
6.502323384E0,1.456630826E-1,-5.072783947E0,-1.632204175E0
6.512037655E0,-7.689933777E-1,-3.842274904E0,-9.834501147E-1
6.521751041E0,-1.695314884E0,-3.200699329E0,3.455235958E0
6.531463749E0,-1.654636860E0,-3.447459221E0,9.586544991E0
6.541177291E0,-1.039382339E0,-3.703491211E0,1.000319481E1
6.550891509E0,-1.695314884E0,-3.344268799E0,-2.267199457E-1
6.560604999E0,-2.303390980E0,-5.247759342E0,-8.096115112E0
6.570317655E0,-4.434199333E0,-9.568898201E0,-7.887939930E0
6.580031145E0,-5.868397713E0,-1.506102371E1,-6.499205589E0
6.589745416E0,-5.272285461E0,-2.017478561E1,-6.410670757E0
6.599458905E0,-4.517948151E0,-2.337099838E1,-8.146365166E0
6.609171509E0,-5.403890610E0,-2.354567337E1,-8.170292854E0
6.618885051E0,-5.530710220E0,-2.280599213E1,-6.564110756E0
6.628599322E0,-5.178965569E0,-2.138615227E1,-5.563312531E0
6.638312707E0,-4.745565414E0,-1.969352913E1,-5.019842625E0
6.648025416E0,-4.877170563E0,-1.802004814E1,-3.425325632E0
6.657738957E0,-5.322535038E0,-1.650000763E1,-2.273779631E0
6.667453176E0,-4.577768803E0,-1.492463303E1,-1.806880236E0
6.677166666E0,-3.450151205E0,-1.388315678E1,-1.660917997E0
6.686879322E0,-3.622733593E0,-1.283210945E1,-1.146162033E0
6.696592812E0,-3.572484255E0,-1.158006477E1,-1.333998591E-1
6.706307082E0,-3.390330553E0,-1.033998489E1,3.957130313E-1
6.716020572E0,-2.973979473E0,-9.071190834E0,5.871388316E-1
6.725733176E0,-2.607578516E0,-7.720741272E0,4.914259613E-1
6.735446718E0,-2.775076151E0,-5.910870075E0,-2.602194548E-1
6.745160989E0,-2.736790895E0,-4.450351238E0,-1.392622828E0
6.754874374E0,-2.478366137E0,-3.181556702E0,-1.864308000E0
6.764587082E0,-2.605185747E0,-2.309971094E0,-1.347159147E0
6.774300624E0,-2.930908680E0,-1.579861164E0,-1.110269666E0
6.784014843E0,-3.191726208E0,-6.942176819E-1,-1.680060625E0
6.793728332E0,-3.428615808E0,1.821536273E-1,-2.271386862E0
6.803440989E0,-2.459223509E0,2.204387933E-1,-1.754238129E0
6.813154478E0,-3.834498227E-1,-6.269195080E-1,2.880360186E-1
6.822868749E0,7.968099117E-1,-2.221436739E0,1.226321608E-1
6.832582239E0,1.299601793E0,-3.792025566E0,-3.894618034E0
6.842294843E0,2.362613201E0,-4.079463482E0,-7.243971348E0
6.852008384E0,3.854238987E0,-3.952344894E0,-9.740881920E0
6.861722655E0,5.515755177E0,-4.977071285E0,-1.124447155E1
6.871436041E0,7.210771084E0,-6.018547058E0,-7.883154392E0
6.881148749E0,7.552944660E0,-6.595516682E0,-2.221137524E0
6.890862291E0,5.857928753E0,-6.875775814E0,5.449653625E0
6.900576509E0,2.958725214E0,-6.731907368E0,8.269894600E0
6.910289999E0,2.295614243E0,-5.534897804E0,6.567699909E0
6.920002655E0,6.388836503E-1,-4.495814800E0,3.225524902E0
6.929716145E0,-6.818647385E0,-3.734597921E0,-1.212293720E1
6.939430416E0,-1.471197128E1,-6.696014881E0,-7.126723289E0
6.949143801E0,-1.297627735E1,-1.320329666E1,2.064407825E0
6.958856509E0,-1.321825123E1,-1.764676857E1,3.144168854E0
6.968570051E0,-5.679065228E0,-1.740000725E1,8.178966522E0
6.978284322E0,2.175973177E0,-1.807538223E1,1.167667580E1
6.987997707E0,4.866702080E0,-1.955713844E1,6.117550373E0
6.997710416E0,3.636193037E0,-1.656222153E1,-9.954141974E-1
7.007423957E0,1.100997567E0,-1.458933830E1,6.589235067E-1
7.017138176E0,-2.600399971E0,-1.423998642E1,1.822433591E0
7.026851666E0,-4.692923546E0,-1.360080433E1,-3.056831062E-1
7.036564270E0,-4.939383984E0,-1.462283802E1,-2.800499916E0
7.046277812E0,-7.187440991E-1,-1.705065536E1,-3.803690672E0
7.055992082E0,1.711466432E0,-1.857548141E1,-3.611965895E0
7.065705572E0,2.781656265E0,-1.853480339E1,-2.534597397E0
7.075418176E0,1.553241014E0,-1.686610985E1,-1.780559182E0
7.085131718E0,6.556333899E-1,-1.405783272E1,-2.893819809E0
7.094845989E0,2.150549293E-1,-1.185045433E1,-5.225625515E0
7.104559374E0,-1.798206210E0,-1.001665497E1,-6.125925064E0
7.114272082E0,-4.596911430E0,-9.554540634E0,-5.740381718E0
7.123985572E0,-7.637590885E0,-9.906584740E0,-6.161817551E0
7.133699843E0,-7.718946934E0,-7.146164894E0,-7.744370461E0
7.143413332E0,-6.984051228E0,-7.313662529E0,-1.300170135E1
7.153125937E0,-5.166702271E0,-7.608278751E0,-1.667677689E1
7.162839478E0,-4.029513359E0,-7.902595997E0,-1.641326714E1
7.172553749E0,-3.218047380E0,-8.352746010E0,-1.461536026E1
7.182267239E0,-1.688136339E0,-8.790931702E0,-1.247737408E1
7.191979843E0,4.280161560E-1,-8.941679001E0,-9.963713646E0
7.201693384E0,1.780858278E0,-8.400602341E0,-6.695715904E0
7.211407655E0,1.991426587E0,-7.567600727E0,-3.403790236E0
7.221121041E0,1.459920883E0,-6.626623154E0,-1.395015597E0
7.230833749E0,9.302098304E-2,-5.094319344E0,-3.320041299E-1
7.240547239E0,-1.745564103E0,-3.677170277E0,9.870393276E-1
7.250261509E0,-3.500699520E0,-3.059522867E0,4.860720158E0
7.259974999E0,-4.068097591E0,-3.495315790E0,1.007497978E1
7.269687603E0,-3.392723322E0,-3.485744476E0,1.052512932E1
7.279401145E0,-2.566900492E0,-3.691527128E0,9.631111026E-1
7.289115416E0,-2.655434847E0,-5.824728489E0,-8.764012337E0
7.298828905E0,-3.830909014E0,-1.025623608E1,-1.231466198E1
7.308541509E0,-3.732803345E0,-1.635404587E1,-1.092592716E1
7.318255051E0,-3.218047380E0,-2.179801559E1,-9.123234749E0
7.327969322E0,-3.057728291E0,-2.477408981E1,-6.848856449E0
7.337682707E0,-4.630710125E0,-2.428804779E1,-5.572884083E0
7.347395416E0,-5.861218929E0,-2.261935234E1,-5.534598827E0
7.357108957E0,-6.220142365E0,-2.019392776E1,-5.718846321E0
7.366823228E0,-6.624828815E0,-1.807298851E1,-5.668596745E0
7.376536614E0,-7.474878788E0,-1.657657814E1,-4.232006073E0
7.386249322E0,-7.852944851E0,-1.580578995E1,-2.726322412E0
7.395962812E0,-6.615257263E0,-1.503231049E1,-2.007877350E0
7.405677082E0,-4.302594185E0,-1.395494175E1,-1.598704576E0
7.415390572E0,-3.045764208E0,-1.270050430E1,-1.205982566E0
7.425103228E0,-2.559721947E0,-1.128784180E1,-4.423730969E-1
7.434816718E0,-2.224427700E0,-9.662516594E0,4.698905349E-1
7.444530989E0,-1.726421595E0,-8.111070633E0,1.077966571E0
7.454244478E0,-1.549352646E0,-6.550053120E0,8.673982024E-1
7.463957082E0,-1.271785259E0,-5.096712112E0,3.047857881E-1
7.473670624E0,-8.910273314E-1,-3.729812384E0,1.058823988E-1
7.483384895E0,-8.766704202E-1,-2.762513638E0,3.478565812E-1
7.493098280E0,-1.345962763E0,-2.003689766E0,6.038886309E-1
7.502810989E0,-1.858325839E0,-1.110568762E0,1.202393398E-1
7.512524530E0,-2.066501379E0,-5.694918036E-1,-1.165304661E0
7.522238749E0,-1.094417214E0,-7.683951855E-1,-2.089532375E0
7.531952239E0,1.007677436E0,-1.345364571E0,-1.170090318E0
7.541664895E0,1.218245864E0,-2.992523909E0,9.152546525E-1
7.551378384E0,4.833501875E-1,-4.029214382E0,9.200403094E-1
7.561092655E0,1.459920883E0,-3.768097401E0,-2.740679264E0
7.570806145E0,1.651645780E0,-4.206283092E0,-6.994818687E0
7.580518749E0,2.173580170E0,-3.243770123E0,-1.066750240E1
7.590232291E0,2.702693224E0,-3.200699329E0,-1.197697449E1
7.599946562E0,3.535694599E0,-3.952344894E0,-6.956533432E0
7.609660051E0,4.608277321E0,-4.666004181E0,-1.567597985E0
7.619372655E0,3.260519981E0,-5.345864773E0,2.528914452E0
7.629086197E0,1.972284079E0,-5.551647663E0,6.115157604E0
7.638800468E0,-1.058524966E0,-7.385746002E0,2.093121529E0
7.648513853E0,-9.797113419E0,-9.095118523E0,-8.546265602E0
7.658226562E0,-6.612864494E0,-1.162792206E1,-4.538586140E0
7.667940103E0,-5.875576019E0,-1.560210133E1,-1.131805062E0
7.677654374E0,-4.910670280E0,-1.567149258E1,4.939683437E0
7.687367759E0,-3.797409534E0,-1.543699646E1,1.155464172E1
7.697080468E0,-2.404188633E0,-1.724208260E1,9.713364601E0
7.706794009E0,-2.049751759E0,-1.603789330E1,5.351547718E0
7.716508228E0,-1.788634896E0,-1.476909924E1,2.059622049E0
7.726221718E0,-1.551745534E0,-1.432373524E1,1.202393398E-1
7.735934374E0,-2.550150633E0,-1.348564911E1,-4.663013220E-1
7.745647864E0,-4.795814991E0,-1.412273788E1,-2.314457655E0
7.755362134E0,-3.031407118E0,-1.619342804E1,-3.205185890E0
7.765075624E0,-2.901297510E-1,-1.837927055E1,-2.031805515E0
7.774788228E0,1.246959686E0,-1.949492455E1,-1.033699393E0
7.784501770E0,1.953141451E0,-1.903281021E1,-1.806880236E0
7.794216041E0,1.201496124E0,-1.730190277E1,-3.499503136E0
7.803929530E0,-2.183450572E-2,-1.503709602E1,-5.888736725E0
7.813642134E0,-1.063310504E0,-1.240828133E1,-7.653144360E0
7.823355676E0,-2.317747831E0,-9.674481392E0,-7.562216759E0
7.833069947E0,-4.604089737E0,-8.347960472E0,-6.535097599E0
7.842783437E0,-7.843373299E0,-8.103892326E0,-6.080461502E0
7.852496041E0,-9.299106598E0,-7.479066372E0,-6.164210320E0
7.862209582E0,-7.941479206E0,-6.743871689E0,-7.895118237E0
7.871923853E0,-6.766005039E0,-7.026523590E0,-1.230509090E1
7.881637239E0,-4.331307888E0,-7.261020184E0,-1.623619843E1
7.891349947E0,-1.587637782E0,-7.546065331E0,-1.732313919E1
7.901063437E0,7.298108935E-1,-7.766204834E0,-1.618116379E1
7.910777707E0,2.295614243E0,-7.878667831E0,-1.307348537E1
7.920491197E0,2.345863581E0,-7.711170197E0,-8.778368950E0
7.930203853E0,1.038784146E0,-7.162914753E0,-4.490729809E0
7.939917343E0,-7.809575200E-1,-6.382555485E0,-1.036092162E0
7.949631614E0,-2.674577475E0,-5.228616714E0,8.578268886E-1
7.959345103E0,-4.089632988E0,-3.993022680E0,1.144965649E0
7.969057707E0,-4.898705959E0,-3.636492252E0,3.538984776E0
7.978771249E0,-4.621138573E0,-5.259723186E0,9.768698692E0
7.988485520E0,-3.866801500E0,-7.050451756E0,1.317069435E1
7.998199009E0,-4.264308929E0,-5.108676434E0,6.656234264E0
8.007911614E0,-3.570091486E0,-5.812764645E0,-8.790332794E0
8.017625155E0,-2.281855583E0,-1.195125198E1,-1.146221828E1
8.027339426E0,-1.293320656E0,-1.738565063E1,-9.942177773E0
8.037052916E0,-8.001000881E-1,-2.182673073E1,-1.341117287E1
8.046765520E0,-4.005585194E0,-2.312214470E1,-1.270947742E1
8.056479062E0,-8.008777618E0,-2.409871483E1,-8.596514702E0
8.066193332E0,-8.865707397E0,-2.384746933E1,-5.819344521E0
8.075906718E0,-7.836194992E0,-2.264328003E1,-4.462016106E0
8.085619426E0,-6.474080563E0,-2.095065689E1,-3.317648649E0
8.095332968E0,-5.679065228E0,-1.902802467E1,-2.615953445E0
8.105047239E0,-4.460520744E0,-1.712961960E1,-2.087139606E0
8.114760624E0,-2.464009047E0,-1.536999702E1,-1.265803218E0
8.124473332E0,-1.312463164E0,-1.368455315E1,-2.147558331E-1
8.134186874E0,-1.228415370E0,-1.183131123E1,9.224331379E-1
8.143901093E0,-8.240283132E-1,-1.000469017E1,1.959123492E0
8.153614582E0,-5.916253924E-1,-8.417351723E0,2.289333105E0
8.163327239E0,-6.275177598E-1,-7.016952515E0,2.212762833E0
8.173040728E0,-8.455637097E-1,-5.357829094E0,2.066800594E0
8.182754999E0,-9.987043738E-1,-4.065106392E0,1.731506228E0
8.192468489E0,-1.295713425E0,-3.219841957E0,1.717149377E0
8.202181093E0,-1.832004786E0,-2.080260277E0,1.104287624E0
8.211894634E0,-2.408974171E0,-1.357328653E0,-3.320041299E-1
8.221608905E0,-2.985943556E0,-6.870391965E-1,-2.082353830E0
8.231322395E0,-3.031407118E0,-1.746760458E-1,-3.463610888E0
8.241034999E0,-1.829612017E0,6.729813665E-2,-3.885046721E0
8.250748541E0,1.110568762E0,-1.292124242E-1,-1.636989832E0
8.260462812E0,7.561319470E-1,-2.051546335E0,2.282154560E0
8.270176197E0,-7.019943595E-1,-3.435195923E0,2.756232500E0
8.279888905E0,3.466601670E-1,-2.113759756E0,-4.090829372E0
8.289602447E0,5.814558864E-1,-3.255734205E0,-1.130189991E1
8.299316666E0,1.280459166E0,-2.592623234E0,-1.386850071E1
8.309030155E0,2.415255308E0,-3.109772205E0,-1.586740494E1
8.318742812E0,4.969892502E0,-4.194318771E0,-1.034656525E1
8.328456353E0,5.587540150E0,-5.920441628E0,1.080359459E0
8.338170572E0,3.679263830E0,-6.523731709E0,6.277869225E0
8.347884062E0,2.475075960E0,-6.552445889E0,1.144935703E1
8.357596666E0,2.022533417E0,-8.664112091E0,1.701057625E1
8.367310207E0,-8.746066093E0,-8.003393173E0,-5.678168297E0
8.377024478E0,-7.074978352E0,-1.355773354E1,-1.167308617E1
8.386737968E0,-1.611566067E0,-1.687807274E1,-7.852047443E0
8.396450572E0,-2.545365095E0,-1.313629723E1,8.015955925E0
8.406164114E0,-3.646661758E0,-1.503470325E1,1.409462261E1
8.415878384E0,-1.365105271E0,-1.905195236E1,1.308425331E1
8.425591874E0,-6.996015310E-1,-1.681346703E1,3.419343472E0
8.435304478E0,-1.937289000E0,-1.501795292E1,-4.533800602E0
8.445018020E0,-3.079263687E0,-1.421127319E1,-1.603490233E0
8.454732291E0,-4.460520744E0,-1.595414543E1,6.613163352E-1
8.464445676E0,-4.884349346E0,-1.775683784E1,-2.522633314E0
8.474158384E0,-3.355933726E-1,-1.934417725E1,-2.621038198E0
8.483871926E0,1.594218135E0,-2.011735725E1,-1.689631939E0
8.493586145E0,1.479063511E0,-1.938246155E1,-2.103889227E0
8.503299634E0,4.833501875E-1,-1.747927094E1,-4.299005032E0
8.513012291E0,-5.006981492E-1,-1.527667713E1,-6.432206154E0
8.522725780E0,-1.322034478E0,-1.283928776E1,-8.031509399E0
8.532440051E0,-2.430509567E0,-1.030887794E1,-8.402695656E0
8.542153541E0,-4.427021027E0,-8.728717804E0,-7.330112934E0
8.551866145E0,-6.787540436E0,-8.453244209E0,-6.011069775E0
8.561579687E0,-8.501698494E0,-8.977571487E0,-5.764309883E0
8.571293957E0,-7.508378506E0,-8.130212784E0,-6.738786697E0
8.581007447E0,-6.806683064E0,-7.888238907E0,-1.002353382E1
8.590720051E0,-5.573781013E0,-7.296912670E0,-1.396421337E1
8.600433593E0,-3.663411379E0,-6.935596466E0,-1.582672691E1
8.610147864E0,-1.063310504E0,-6.983452797E0,-1.541246986E1
8.619861353E0,9.092726111E-1,-7.194021225E0,-1.339202976E1
8.629573957E0,1.874178290E0,-7.124629498E0,-9.726525307E0
8.639287499E0,1.589432478E0,-6.717550278E0,-5.730810165E0
8.649001770E0,2.724826932E-1,-6.052046776E0,-2.676073074E0
8.658715155E0,-1.503889084E0,-4.941178799E0,-1.222732425E0
8.668427864E0,-2.777468920E0,-3.937987804E0,1.736291885E0
8.678141353E0,-2.279462576E0,-3.729812384E0,7.336095333E0
8.687855624E0,2.123630047E-2,-3.524029493E0,1.182503033E1
8.697569114E0,9.595218897E-1,-3.250948668E0,8.866005898E0
8.707281770E0,-9.601201117E-2,-4.388137817E0,-4.426123619E0
8.716995259E0,-1.836790442E0,-7.763812065E0,-1.244148159E1
8.726709530E0,-4.498805523E0,-1.239392376E1,-1.147418308E1
8.736423020E0,-7.529913902E0,-1.655504227E1,-9.168698311E0
8.746135624E0,-6.993622303E0,-2.072064781E1,-7.507182121E0
8.755849166E0,-3.399901867E0,-2.331835556E1,-6.293422699E0
8.765563437E0,-6.155536175E-1,-2.313889313E1,-6.616752625E0
8.775276822E0,-4.265206456E-1,-2.226491547E1,-7.421040535E0
8.784989530E0,-2.641077995E0,-2.096501541E1,-7.088139057E0
8.794703072E0,-5.830112457E0,-1.985893250E1,-5.395515919E0
8.804417343E0,-7.869694710E0,-1.922692871E1,-2.932105064E0
8.814130728E0,-8.312665939E0,-1.831945038E1,-1.292124271E0
8.823843437E0,-5.964110374E0,-1.667947006E1,-5.428716540E-1
8.833556926E0,-3.677768469E0,-1.518545055E1,-3.529413417E-2
8.843271197E0,-2.437688112E0,-1.340668583E1,6.613163352E-1
8.852984687E0,-1.640279889E0,-1.157527924E1,1.463510156E0
8.862697343E0,-5.533402562E-1,-9.566504478E0,2.514557600E0
8.872410832E0,1.289133132E-1,-7.986643791E0,3.259024382E0
8.882125103E0,-7.208377868E-2,-6.301199436E0,2.839981318E0
8.891838593E0,-1.111167073E0,-4.500600338E0,1.951945066E0
8.901551197E0,-2.447259426E0,-2.973381281E0,1.195214868E0
8.911264739E0,-3.402294636E0,-1.496112347E0,4.674977362E-1
8.920979009E0,-4.156631947E0,-3.320041299E-2,-2.027917206E-1
8.930692395E0,-4.740779877E0,8.596215248E-1,-1.354337573E0
8.940405103E0,-4.527519703E0,1.187737346E0,-1.914557219E0
8.950118645E0,-3.275475025E0,8.261220455E-1,-1.878664851E0
8.959832864E0,-3.547359705E-1,-4.833501875E-1,-9.257232547E-1
8.969546353E0,2.321935177E0,-1.467398524E0,-3.849453330E-1
8.979259009E0,1.199103236E0,-2.748156786E0,-7.271189690E-1
8.988972499E0,-5.868397355E-1,-3.782454491E0,-3.039782047E0
8.998686770E0,-5.868397355E-1,-3.727419376E0,-6.827321053E0
9.008400259E0,6.430710852E-2,-3.741776466E0,-9.762416840E0
9.018112864E0,2.613859653E0,-4.249353886E0,-1.275524044E1
9.027826405E0,5.905785561E0,-5.106283665E0,-1.145264721E1
9.037540676E0,8.793025017E0,-6.102295876E0,-3.863511324E0
9.047254166E0,7.976773262E0,-6.810870647E0,2.229512453E0
9.056966770E0,4.220340729E0,-6.945167542E0,7.056134701E0
9.066680312E0,2.461616248E-1,-7.828418255E0,3.378665686E0
9.076394582E0,-1.191356468E1,-7.759026527E0,-1.336810207E1
9.086107968E0,-1.466650772E1,-9.492327690E0,1.420439363E0
9.095820676E0,-1.446311760E1,-1.635404587E1,2.006979942E0
9.105534166E0,-4.594518661E0,-2.007667923E1,-5.596213937E-1
9.115248437E0,2.930011272E0,-2.078764725E1,9.955338478E0
9.124961926E0,8.513064384E0,-2.083311081E1,8.423034668E0
9.134674582E0,7.390232563E0,-1.759891129E1,2.184048891E0
9.144388072E0,2.161616087E0,-1.450559044E1,3.065205812E0
9.154102343E0,-3.907479286E0,-1.289432335E1,2.916551590E0
9.163815832E0,-8.614460945E0,-1.229821110E1,3.311068416E-1
9.173528437E0,-7.342974663E0,-1.370848083E1,-2.496312141E0
9.183241978E0,-3.720839262E0,-1.650957870E1,-3.748655796E0
9.192956249E0,-1.360319614E0,-1.866192245E1,-2.015055656E0
9.202669634E0,-2.183450572E-2,-1.930589104E1,-8.554340899E-2
9.212382343E0,3.346960545E-1,-1.802722740E1,-1.086341500E0
9.222095832E0,7.561319470E-1,-1.578874111E1,-4.701298237E0
9.231810103E0,8.087740541E-1,-1.337797260E1,-7.198507786E0
9.241523593E0,-1.079761237E-1,-1.078295612E1,-7.382755280E0
9.251236197E0,-2.854039192E0,-8.118248940E0,-5.888736725E0
9.260949739E0,-7.364510059E0,-6.435197353E0,-4.840082169E0
9.270664009E0,-1.002921677E1,-6.142973900E0,-5.156233788E0
9.280377499E0,-8.875278473E0,-6.786942482E0,-7.433004379E0
9.290090103E0,-7.161119938E0,-7.629814148E0,-1.102881908E1
9.299803645E0,-6.110072613E0,-7.780561924E0,-1.377488136E1
9.309517916E0,-5.296213627E0,-7.703991413E0,-1.502243996E1
9.319231301E0,-3.399901867E0,-7.653742313E0,-1.475653744E1
9.328944009E0,-4.791627228E-1,-8.010572433E0,-1.341117287E1
9.338657499E0,2.065604210E0,-8.199604988E0,-1.076321507E1
9.348371770E0,3.346661568E0,-7.847560883E0,-6.765107632E0
9.358085259E0,3.142972469E0,-6.818347931E0,-3.262613773E0
9.367797864E0,1.428814173E0,-5.376971722E0,-8.611170650E-1
9.377511405E0,-1.034596682E0,-3.844667673E0,6.661019921E-1
9.387225676E0,-3.064906597E0,-3.030808926E0,3.414557934E0
9.396939166E0,-3.950550079E0,-2.892025232E0,5.054538727E0
9.406651770E0,-3.838087559E0,-2.396411896E0,7.046563625E0
9.416365312E0,-3.024228811E0,-3.109772205E0,4.487140656E0
9.426079582E0,-3.234797001E0,-5.724229813E0,-3.360719442E0
9.435792968E0,-3.282653570E0,-9.343972206E0,-8.117650986E0
9.445505676E0,-2.753540754E0,-1.419452286E1,-8.381160736E0
9.455219166E0,-3.127120018E0,-1.878395653E1,-7.574181080E0
9.464933437E0,-2.995514870E0,-2.241087723E1,-7.126723289E0
9.474646926E0,-2.408974171E0,-2.410110855E1,-5.563312531E0
9.484359530E0,-2.933301449E0,-2.247787666E1,-5.666203976E0
9.494073072E0,-3.594019651E0,-2.018435669E1,-7.377969742E0
9.503787343E0,-4.319344044E0,-1.825005913E1,-7.974081516E0
9.513500832E0,-5.236393452E0,-1.721815300E1,-6.338886261E0
9.523213437E0,-6.620042801E0,-1.680389595E1,-3.767798424E0
9.532926978E0,-7.532306671E0,-1.595893097E1,-1.586740494E0
9.542641249E0,-6.567400932E0,-1.490070438E1,-5.356931686E-1
9.552354634E0,-4.874777794E0,-1.357687569E1,-4.519443810E-1
9.562067343E0,-4.508377075E0,-1.223599815E1,-4.232304990E-1
9.571780832E0,-4.537090778E0,-1.095763206E1,-5.922235921E-2
9.581495103E0,-4.257130623E0,-9.629017830E0,4.606183618E-2
9.591208593E0,-3.598805189E0,-8.058428764E0,-1.860419661E-1
9.600921197E0,-3.253939629E0,-6.418447495E0,-4.351946115E-1
9.610634739E0,-3.024228811E0,-4.871787071E0,-8.682954907E-1
9.620349009E0,-2.602792740E0,-3.442374468E0,-1.620239973E0
9.630062395E0,-2.547757864E0,-2.331805706E0,-2.230708838E0
9.639775103E0,-2.531008244E0,-1.543968797E0,-1.182054400E0
9.649488645E0,-2.351247311E0,-9.861420393E-1,3.239283562E-1
9.659202864E0,-2.035394669E0,-5.216353536E-1,8.003991842E-1
9.668916353E0,-1.601994753E0,-2.847459018E-1,5.560321808E-1
9.678629009E0,-8.120641708E-1,-2.440679073E-1,-3.511467278E-1
9.688342499E0,7.992027402E-1,-6.678966284E-1,-1.613061547E0
9.698056770E0,1.859821439E0,-1.536790371E0,-3.181257725E0
9.707770259E0,1.237388372E0,-3.124129057E0,-4.354339123E0
9.717482864E0,-3.595215976E-1,-4.847858906E0,-5.922235966E0
9.727196405E0,-6.705885530E-1,-5.496612549E0,-8.670691490E0
9.736910676E0,1.122532964E0,-6.023332596E0,-1.172333527E1
9.746624062E0,3.949951887E0,-7.107879639E0,-1.156032467E1
9.756336770E0,6.135795593E0,-7.830811024E0,-6.362814426E0
9.766050259E0,7.361518860E0,-7.584350586E0,2.545365095E-1
9.775764530E0,5.893821239E0,-6.516553402E0,8.277072906E0
9.785478020E0,2.422433853E0,-6.214758396E0,1.351286793E1
9.795190624E0,-2.904288530E0,-4.165605068E0,-3.583251834E-1
9.804904166E0,-1.877259064E1,-2.779263496E0,-1.414606857E1
9.814618437E0,-1.567209148E1,-6.964310169E0,-1.120857906E1
9.824331822E0,-1.408714485E1,-1.297089291E1,-3.437289715E0
9.834044530E0,-6.002395630E0,-1.888206291E1,7.922635555E0
9.843758072E0,2.580360174E0,-2.124018860E1,1.442752457E1
9.853472291E0,8.649456024E0,-2.003600121E1,6.263512135E0
9.863185780E0,9.422935486E0,-1.628914070E1,-1.780559182E0
9.872898384E0,5.003392220E0,-1.379701519E1,-7.438687682E-1
9.882611926E0,1.289133132E-1,-1.325354576E1,1.872981906E0
9.892326197E0,-3.306581736E0,-1.429741478E1,1.427617788E0
9.902039687E0,-3.304188967E0,-1.642343712E1,-7.199404836E-1
9.911752291E0,-1.592423439E0,-1.888206291E1,-1.983949065E0
9.921465832E0,-2.374876440E-1,-1.993071747E1,-1.498206019E0
9.931180051E0,-3.451646566E-1,-1.894188309E1,-1.658525229E0
9.940893541E0,-4.863412082E-1,-1.662443352E1,-3.537788391E0
9.950606197E0,-5.389832854E-1,-1.459891033E1,-5.316552639E0
9.960319687E0,2.602194622E-2,-1.224078369E1,-5.515456200E0
9.970033957E0,-5.676971674E-1,-1.071805096E1,-4.864309311E0
9.979747447E0,-3.383152008E0,-1.013150978E1,-3.238685369E0
9.989460051E0,-5.434997559E0,-9.284152031E0,-3.183650494E0
9.999173593E0,-6.806683064E0,-8.573184013E0,-8.230113029E0
1.000888786E1,-7.053442955E0,-7.782954693E0,-1.464885998E1
1.001860125E1,-7.280761242E0,-7.256234646E0,-1.707637787E1
1.002831396E1,-7.192226887E0,-6.786942482E0,-1.623859215E1
1.003802745E1,-6.466902256E0,-6.562016964E0,-1.489771366E1
1.004774172E1,-4.290630341E0,-6.626623154E0,-1.330828094E1
1.005745521E1,-8.670991063E-1,-7.086344242E0,-1.108654594E1
1.006716786E1,2.079961061E0,-6.995417118E0,-7.696514130E0
1.007688135E1,3.346661568E0,-6.044867992E0,-4.387838364E0
1.008659562E1,2.745764017E0,-4.464707851E0,-1.718345761E0
1.009630901E1,1.217348501E-1,-2.932703257E0,-6.161518395E-2
1.010602172E1,-3.110370398E0,-1.833799481E0,2.995813847E0
1.011573526E1,-4.860421181E0,-1.649253011E0,4.762614250E0
1.012544948E1,-4.226023674E0,-2.394019127E0,4.463212490E0
1.013516297E1,-3.926621914E0,-4.713860512E0,7.812566161E-1
1.014487557E1,-4.771886349E0,-7.924131393E0,-5.290231705E0
1.015458911E1,-5.518746376E0,-1.254975700E1,-7.976474285E0
1.016430338E1,-5.231607437E0,-1.835055733E1,-6.487241268E0
1.017401687E1,-3.421437263E0,-2.411546516E1,-6.039783478E0
1.018372948E1,6.909275055E-2,-2.679213524E1,-7.236793041E0
1.019344302E1,1.062712312E0,-2.638505745E1,-7.852047443E0
1.020315724E1,-1.039382339E0,-2.464697075E1,-8.177471161E0
1.021287073E1,-3.677768469E0,-2.251616287E1,-7.619644642E0
1.022258338E1,-5.135595798E0,-2.053879356E1,-5.390730381E0
1.023229687E1,-6.153143406E0,-1.951646042E1,-2.649751902E0
1.024201115E1,-6.505187511E0,-1.853719711E1,-9.954141974E-1
1.025172463E1,-5.384748459E0,-1.722533226E1,-7.118647546E-2
1.026143724E1,-3.639483213E0,-1.560688686E1,5.847460628E-1
1.027115078E1,-2.710469961E0,-1.371326637E1,1.166501045E0
1.028086505E1,-1.987538338E0,-1.158724403E1,1.432403445E0
1.029057844E1,-1.307677627E0,-9.609575272E0,1.475474238E0
1.030029115E1,-7.833502889E-1,-7.761419296E0,1.520937920E0
1.031000463E1,-7.139584422E-1,-5.724229813E0,1.204786181E0
1.031971890E1,-1.587637782E0,-3.806382656E0,5.416752100E-1
1.032943240E1,-2.387438774E0,-2.178365946E0,-1.501496136E-1
1.033914500E1,-3.337688446E0,-7.133602500E-1,-5.715855360E-1
1.034885854E1,-4.281058788E0,3.520440459E-1,-1.016949654E0
1.035857281E1,-5.049454212E0,1.180558920E0,-1.361516118E0
1.036828620E1,-5.906682491E0,1.561017632E0,-1.466800332E0
1.037799890E1,-5.923432350E0,1.688136339E0,-1.538884044E0
1.038771240E1,-4.740779877E0,1.371984720E0,-1.577169180E0
1.039742667E1,-2.272284269E0,7.184450030E-1,-4.998008311E-1
1.040714016E1,2.174477577E-1,-2.656033039E-1,1.456331730E0
1.041685276E1,1.639681697E0,-1.644467354E0,2.758625507E0
1.042656630E1,1.230209947E0,-4.105784416E0,1.367797256E0
1.043628057E1,2.266900301E0,-5.740979671E0,-4.775475979E0
1.044599396E1,5.201996326E0,-5.561218739E0,-1.305195045E1
1.045570667E1,6.839584351E0,-6.279664040E0,-1.693280983E1
1.046542016E1,6.877869606E0,-6.763014317E0,-7.899903774E0
1.047513443E1,5.573183060E0,-7.507780075E0,1.786541224E0
1.048484792E1,4.471886635E0,-6.566802502E0,3.330809116E0
1.049456052E1,2.707478762E0,-6.040082455E0,5.545366287E0
1.050427406E1,-3.984049797E0,-8.266604424E0,-1.028913736E0
1.051398833E1,-1.483191109E1,-7.366304398E0,-2.611167669E0
1.052370172E1,-1.595235062E1,-1.157767200E1,-9.154341698E0
1.053341443E1,-1.152323532E1,-1.539392567E1,-2.750250578E0
1.054312792E1,-4.417449474E0,-1.888206291E1,6.543771744E0
1.055284219E1,2.091925144E0,-2.151566315E1,9.126823425E0
1.056255568E1,6.248258114E0,-1.988525391E1,6.021837234E0
1.057226828E1,4.100699902E0,-1.572652817E1,2.926122904E0
1.058198182E1,3.634099364E-1,-1.402194023E1,2.145763636E0
1.059169609E1,-3.375973701E0,-1.274836063E1,1.985444546E0
1.060140948E1,-5.367998600E0,-1.276032448E1,-1.932204217E-1
1.061112219E1,-3.653840065E0,-1.451276875E1,-2.539382935E0
1.062083568E1,-2.056930065E0,-1.736890221E1,-2.915355206E0
1.063054995E1,-1.415354609E0,-1.925803566E1,-1.799701691E0
1.064026344E1,-1.197308660E0,-1.980150414E1,-1.404586911E0
1.064997604E1,-1.484746456E0,-1.882942009E1,-2.386242390E0
1.065968958E1,-1.228415370E0,-1.707219124E1,-5.094020367E0
1.066940385E1,-7.259225845E-1,-1.428784275E1,-6.815357208E0
1.067911724E1,-6.346961856E-1,-1.133839035E1,-6.204888344E0
1.068882995E1,-2.025823355E0,-8.618648529E0,-4.524229527E0
1.069854344E1,-4.427021027E0,-6.571588516E0,-3.590430260E0
1.070825771E1,-5.320142269E0,-4.495814800E0,-4.567300320E0
1.071797120E1,-5.657529831E0,-3.423231840E0,-7.076174736E0
1.072768380E1,-5.281857014E0,-3.588635683E0,-9.606884003E0
1.073739734E1,-4.584947109E0,-4.670789719E0,-1.132822037E1
1.074711161E1,-3.131905794E0,-5.958726406E0,-1.233619690E1
1.075682500E1,-7.881359458E-1,-6.923632145E0,-1.298495102E1
1.076653771E1,1.215852976E0,-7.424031258E0,-1.264487171E1
1.077625120E1,2.338685036E0,-7.433602810E0,-1.107218838E1
1.078596547E1,2.357827663E0,-6.835097790E0,-8.340482712E0
1.079567896E1,1.929213285E0,-5.867799282E0,-5.979663849E0
1.080539156E1,1.512562990E0,-4.831109047E0,-3.882653952E0
1.081510510E1,9.284151793E-1,-3.928416491E0,-2.106282234E0
1.082481937E1,-1.657029688E-1,-3.217449188E0,-3.439682424E-1
1.083453276E1,-6.466603279E-1,-3.014059305E0,2.914158821E0
1.084424547E1,-1.336391449E0,-3.930809498E0,7.338488102E0
1.085395896E1,-2.763111830E0,-6.176473618E0,8.700901031E0
1.086367323E1,-4.546662331E0,-7.936394691E0,6.174977779E0
1.087338672E1,-6.284748554E0,-1.016979504E1,-1.435693622E0
1.088309932E1,-5.360819817E0,-1.490788364E1,-5.919843197E0
1.089281286E1,-1.894218206E0,-2.137179375E1,-9.494421005E0
1.090252713E1,-2.619542599E0,-2.411307144E1,-1.425374508E1
1.091224052E1,-6.282355785E0,-2.506122780E1,-1.250130177E1
1.092195323E1,-9.078668594E0,-2.395993042E1,-8.222934723E0
1.093166672E1,-9.275178909E0,-2.456800652E1,-6.712465763E0
1.094138099E1,-7.690232754E0,-2.535823631E1,-5.809773445E0
1.095109448E1,-5.787041664E0,-2.390489578E1,-3.379862070E0
1.096080708E1,-4.491627216E0,-2.175016022E1,-1.227517962E0
1.097052062E1,-2.964408159E0,-1.951885223E1,3.191427290E-1
1.098023490E1,-1.666600943E0,-1.678953934E1,1.709970832E0
1.098994828E1,-1.228415370E0,-1.405304718E1,2.337189436E0
1.099966099E1,-1.276570916E0,-1.113709354E1,1.951945066E0
1.100937448E1,-1.115952611E0,-8.795717239E0,1.604686737E0
1.101908875E1,-6.658028960E-1,-7.344769001E0,1.839183331E0
1.102880224E1,-5.294120312E-1,-6.270092487E0,2.030908108E0
1.103851484E1,-8.192426562E-1,-5.341079235E0,2.140978098E0
1.104822838E1,-1.190130115E0,-4.395316124E0,1.851147413E0
1.105794266E1,-1.793420553E0,-3.416053534E0,1.339083314E0
1.106765604E1,-2.348854542E0,-2.592623234E0,1.022931695E0
1.107736875E1,-3.050549746E0,-1.946262121E0,7.402794957E-1
1.108708224E1,-3.498306751E0,-1.328614831E0,-2.506481707E-1
1.109679651E1,-3.582055569E0,-9.885348678E-1,-1.761416554E0
1.110651000E1,-3.057728291E0,-7.229315639E-1,-3.219542980E0
1.111622260E1,-1.944467545E0,-5.288137794E-1,-3.676572084E0
1.112593614E1,-5.413761139E-1,-6.077769399E-1,-1.938485503E0
1.113565042E1,4.232304990E-1,-4.378865361E-1,2.904288471E-1
1.114536380E1,-1.657029688E-1,-2.608176768E-1,5.344967842E-1
1.115507651E1,-1.237986565E0,-2.044367790E0,-2.965604544E0
1.116479000E1,-1.044167995E0,-3.727419376E0,-8.076972961E0
1.117450427E1,4.905286431E-1,-1.673181176E0,-1.437577915E1
1.118421776E1,3.935595036E0,-2.800798893E0,-2.091177368E1
1.119393036E1,6.566503525E0,-3.777668715E0,-1.493839169E1
1.120364390E1,3.990629911E0,-5.853442192E0,1.068395257E0
1.121335812E1,2.087139606E0,-8.343173981E0,8.116753578E0
1.122307161E1,-6.849454641E-1,-9.116654396E0,1.531316757E1
1.123278427E1,-2.507079840E0,-1.252582836E1,1.096331501E1
1.124249776E1,-1.156391335E1,-1.270528984E1,-5.922235921E-2
1.125221203E1,-7.568199158E0,-1.388076401E1,-1.463211060E1
1.126192552E1,-2.188535452E0,-1.446491241E1,-3.420539856E0
1.127163812E1,-3.773481369E0,-1.746222115E1,8.636295319E0
1.128135167E1,-2.100000858E0,-1.911416626E1,1.212203979E1
1.129106594E1,-2.973082066E-1,-1.753669739E1,9.383154869E0
1.130077932E1,9.643075466E-1,-1.518545055E1,2.624627352E0
1.131049203E1,-5.796613097E-1,-1.369412422E1,-3.123530865E0
1.132020552E1,-1.901396751E0,-1.384247875E1,-3.686143398E0
1.132991979E1,-2.397010088E0,-1.537478256E1,-2.999104023E0
1.133963318E1,-2.064108610E0,-1.711526299E1,-2.134995937E0
1.134934588E1,-2.068894386E0,-1.782622910E1,-3.224328458E-1
1.135905943E1,-2.162214279E0,-1.756780434E1,4.148556292E-1
1.136877365E1,-2.408974171E0,-1.632503319E1,-1.785344839E0
1.137848713E1,-2.111965179E0,-1.406261826E1,-6.228816509E0
1.138819974E1,-9.029914737E-1,-1.169731331E1,-9.015557289E0
1.139791328E1,-5.581258535E-1,-9.832406998E0,-8.775976181E0
1.140762755E1,-1.477568030E0,-8.848359108E0,-6.101996899E0
1.141734104E1,-2.935694218E0,-8.695218086E0,-3.173780203E0
1.142705364E1,-4.144668102E0,-9.346364975E0,-2.240280151E0
1.143676719E1,-4.036691666E0,-9.241081238E0,-3.786941051E0
1.144648140E1,-4.063312054E0,-9.092725754E0,-8.860024452E0
1.145619490E1,-3.938585997E0,-8.637790680E0,-1.534068489E1
1.146590750E1,-4.084847450E0,-7.701598644E0,-1.849382782E1
1.147562104E1,-4.508377075E0,-7.294519901E0,-1.724656868E1
1.148533531E1,-3.558127165E0,-7.562815189E0,-1.393310738E1
1.149504870E1,-1.570888042E0,-8.369495392E0,-1.041117096E1
1.150476140E1,1.091426253E0,-9.102297783E0,-7.377969742E0
1.151447490E1,3.399303675E0,-9.274580956E0,-4.411766529E0
1.152418917E1,4.313661098E0,-8.501399994E0,-1.641775489E0
1.153390266E1,2.918047190E0,-6.786942482E0,2.991028363E-3
1.154361526E1,7.417750359E-1,-4.867001057E0,3.071786165E-1
1.155332880E1,-6.155536175E-1,-4.223032951E0,2.452344179E0
1.156304307E1,-1.194915771E0,-5.484648705E0,6.601199627E0
1.157275646E1,-2.971586704E0,-6.142973900E0,7.757531166E0
1.158246917E1,-6.399903297E0,-5.963512421E0,7.905886173E0
1.159218266E1,-8.755637169E0,-8.561220169E0,4.271786690E0
1.160189693E1,-8.030312538E0,-1.369173145E1,-1.799701691E0
1.161161042E1,-3.158226728E0,-1.512802315E1,-8.783154488E0
1.162132302E1,3.275175989E-1,-1.982304001E1,-1.469910908E1
1.163103656E1,-1.975574136E0,-2.088844490E1,-1.354277802E1
1.164075083E1,-5.557031631E0,-2.168316078E1,-8.220541954E0
1.165046422E1,-6.509973049E0,-2.205195427E1,-4.497908592E0
1.166017693E1,-5.432604790E0,-2.165923309E1,-3.408575773E0
1.166989042E1,-4.987240791E0,-2.068714905E1,-3.075674295E0
1.167960469E1,-5.169095039E0,-1.887249184E1,-2.656930447E0
1.168931818E1,-4.932205677E0,-1.602593040E1,-1.955235243E0
1.169903078E1,-4.338486671E0,-1.364866066E1,-1.658525229E0
1.170874432E1,-3.603590965E0,-1.195125198E1,-1.177268744E0
1.171845859E1,-2.861217737E0,-1.056012440E1,-7.223333120E-1
1.172817198E1,-2.336890459E0,-9.159725189E0,-6.879365444E-2
1.173788469E1,-1.820040703E0,-7.881060600E0,1.073180914E0
1.174759823E1,-1.518245935E0,-6.763014317E0,1.959123492E0
1.175731245E1,-1.870290041E0,-5.403292656E0,1.908874273E0
1.176702594E1,-2.449652195E0,-4.041178226E0,1.537687659E0
1.177673854E1,-2.909074068E0,-3.057130098E0,9.678967595E-1
1.178645208E1,-3.139084101E0,-2.185544491E0,5.009972453E-1
1.179616635E1,-3.397509098E0,-1.608574986E0,3.071786165E-1
1.180587974E1,-3.718446493E0,-1.252044439E0,-4.232304990E-1
1.181559245E1,-3.955335855E0,-9.023932219E-1,-1.165304661E0
1.182530594E1,-4.513162613E0,-5.234299600E-2,-1.418943882E0
1.183502021E1,-3.594019651E0,3.879363835E-1,-1.229910851E0
1.184473370E1,-1.032203913E0,7.447660714E-2,-6.074778438E-1
1.185444630E1,1.821536183E0,-1.579262912E-1,-2.005484581E0
1.186415984E1,1.802393675E0,-1.402792215E0,-4.919344425E0
1.187387411E1,5.575276613E-1,-2.401197433E0,-9.465706825E0
1.188358750E1,2.748754919E-1,-3.004487991E0,-1.410299778E1
1.189330021E1,2.125723839E0,-4.457529545E0,-1.827817345E1
1.190301370E1,4.699204445E0,-6.377769470E0,-1.331067371E1
1.191272797E1,4.790132046E0,-8.199604988E0,-7.462615371E-1
1.192244146E1,4.864309311E0,-8.996713638E0,4.934897423E0
1.193215406E1,6.343971252E0,-8.934500694E0,5.380261898E0
1.194186760E1,9.300602913E0,-1.156810093E1,-1.653739572E0
1.195158187E1,-4.915455818E0,-1.374437332E1,3.278167009E0
1.196129526E1,-9.189037323E0,-1.387358570E1,6.641877651E0
1.197100797E1,-1.132672501E1,-1.463480282E1,-7.885547161E0
1.198072146E1,-1.020149994E1,-1.061515903E1,4.812863827E0
1.199043573E1,-8.784351349E0,-1.505384541E1,1.226560879E1
1.200014922E1,-1.108774185E0,-1.579382610E1,5.688935757E0
1.200986182E1,2.803191662E0,-1.373001671E1,1.133001566E0
1.201957536E1,1.232602715E0,-1.225274754E1,1.765005827E0
1.202928963E1,-1.738385677E0,-1.151785183E1,1.896910191E0
1.203900302E1,-5.401497841E0,-1.228624725E1,4.890331328E-1
1.204871573E1,-6.344868183E0,-1.374437332E1,-1.522134304E0
1.205842922E1,-1.633101463E0,-1.723729706E1,-1.902593136E0
1.206814349E1,1.833500385E0,-2.044786644E1,-9.032905847E-2
1.207785698E1,2.398505688E0,-2.100569344E1,6.062814593E-1
1.208756958E1,8.685946465E-1,-1.945663834E1,-1.031306505E0
1.209728312E1,4.277170449E-2,-1.735932922E1,-3.257827997E0
1.210699740E1,3.083750308E-1,-1.464915943E1,-5.682953835E0
1.211671078E1,4.088735580E-1,-1.201825047E1,-7.133901596E0
1.212642349E1,-2.350948304E-1,-9.566504478E0,-7.136294365E0
1.213613698E1,-2.777468920E0,-7.373782158E0,-6.042176247E0
1.214585125E1,-6.598507404E0,-7.713562965E0,-5.161019325E0
1.215556474E1,-8.870492935E0,-8.575576782E0,-4.971986294E0
1.216527734E1,-6.890730858E0,-7.562815189E0,-6.159424782E0
1.217499088E1,-3.993621111E0,-8.003393173E0,-9.961320877E0
1.218470516E1,-1.518245935E0,-8.295317650E0,-1.318355560E1
1.219441854E1,-3.858426511E-1,-8.422137260E0,-1.465843105E1
1.220413125E1,-1.944168471E-2,-7.962715626E0,-1.423938847E1
1.221384474E1,6.580262184E-1,-7.529315472E0,-1.261615753E1
1.222355901E1,1.606182218E0,-7.388139248E0,-1.034895802E1
1.223327250E1,1.945963025E0,-7.550850868E0,-7.550252914E0
1.224298510E1,1.479063511E0,-7.421638489E0,-4.869094849E0
1.225269864E1,5.742774606E-1,-6.851847649E0,-2.738286495E0
1.226241292E1,-1.025025368E0,-5.791228771E0,-1.502991676E0
1.227212630E1,-2.928216696E0,-4.666004181E0,-8.060821295E-1
1.228183901E1,-4.367200375E0,-4.081856251E0,2.670090914E0
1.229155250E1,-4.259523392E0,-4.347459793E0,7.982456207E0
1.230126677E1,-3.519842148E0,-5.140082359E0,9.244371414E0
1.231098026E1,-2.782254457E0,-6.277271271E0,3.421736479E0
1.232069286E1,-2.650649309E0,-7.938787460E0,-3.837190151E0
1.233040641E1,-4.019941807E0,-1.176909828E1,-5.955735683E0
1.234012068E1,-3.426223040E0,-1.725165367E1,-6.456134796E0
1.234983406E1,-1.592423439E0,-2.216202354E1,-9.218947411E0
1.235954677E1,-3.349652529E0,-2.341406822E1,-1.109133148E1
1.236926026E1,-6.040680885E0,-2.314368057E1,-9.228518486E0
1.237897453E1,-7.587341309E0,-2.220748711E1,-7.301399231E0
1.238868802E1,-7.539484978E0,-2.108944130E1,-6.159424782E0
1.239840062E1,-6.031109333E0,-2.013889313E1,-4.100400925E0
1.240811417E1,-4.999204636E0,-1.867627907E1,-1.945663929E0
1.241782844E1,-4.553840637E0,-1.683500290E1,-6.337988973E-1
1.242754182E1,-3.234797001E0,-1.467577934E1,-9.032905847E-2
1.243725453E1,-2.578864574E0,-1.303101349E1,2.138585299E-1
1.244696802E1,-2.262712955E0,-1.152742290E1,9.248259664E-1
1.245668229E1,-1.661815286E0,-1.010518932E1,1.693221092E0
1.246639578E1,-8.886345029E-1,-8.759824753E0,2.516950369E0
1.247610838E1,-6.634100676E-1,-7.424031258E0,2.593520641E0
1.248582193E1,-9.436694384E-1,-6.061617851E0,2.255833626E0
1.249553620E1,-1.484746456E0,-4.591826439E0,1.688435435E0
1.250524958E1,-2.260320187E0,-3.009273529E0,8.386843204E-1
1.251496229E1,-3.148655415E0,-1.639681697E0,-2.889333367E-1
1.252467578E1,-3.924229145E0,-5.335994363E-1,-1.452443361E0
1.253439005E1,-4.331307888E0,1.797607988E-1,-2.719143867E0
1.254410354E1,-3.847658873E0,4.668995142E-1,-3.413361549E0
1.255381614E1,-3.050549746E0,5.772684813E-1,-3.106781006E0
1.256352969E1,-1.206879973E0,4.336991161E-2,-1.706381679E0
1.257324396E1,9.906286001E-1,-6.173482537E-1,-1.238285750E-1
1.258295734E1,4.040879309E-1,-8.162516356E-1,3.933202326E-1
1.259267005E1,-1.580459356E0,-1.845763564E0,-1.268195987E0
1.260238359E1,-9.628120065E-1,-2.695514679E0,-5.608776093E0
1.261209781E1,7.800601721E-1,-2.547159672E0,-1.072014427E1
1.262181130E1,3.954737663E0,-3.940380573E0,-1.353799248E1
1.263152391E1,7.284948349E0,-6.233901024E0,-9.094520569E0
1.264123745E1,8.836095810E0,-7.668099403E0,-3.777369738E0
1.265095172E1,6.966403961E0,-7.893024445E0,2.758625507E0
1.266066510E1,6.568896294E0,-8.570791245E0,3.397808075E0
1.267037781E1,1.323530078E0,-1.132881927E1,1.274178028E-1
1.268009130E1,-1.052483082E1,-1.199193001E1,4.278964996E0
1.268980557E1,-1.527727509E1,-1.294935799E1,4.563711166E0
1.269951906E1,-1.270588779E1,-1.486959839E1,-4.727619171E0
1.270923167E1,-5.492425442E0,-1.629392624E1,2.179263115E0
1.271894521E1,-5.653043389E-1,-1.937528229E1,8.253144264E0
1.272865948E1,3.808775425E0,-1.828594971E1,7.063313484E0
1.273837286E1,4.189234257E0,-1.586561012E1,5.016253471E0
1.274808557E1,1.742573142E0,-1.378265858E1,2.593520641E0
1.275779911E1,-3.194119215E0,-1.248036480E1,1.657029688E-1
1.276751333E1,-5.901896954E0,-1.217378426E1,-1.225125194E0
1.277722682E1,-4.546662331E0,-1.397169113E1,-2.728715181E0
1.278693948E1,-2.102393866E0,-1.658614922E1,-3.255435228E0
1.279665297E1,-1.633101404E-1,-1.815434456E1,-2.455634356E0
1.280636724E1,1.057926655E0,-1.859701729E1,-1.675274968E0
1.281608073E1,1.701895118E0,-1.780948067E1,-2.668894529E0
1.282579333E1,2.235793591E0,-1.609771347E1,-5.350052357E0
1.283550687E1,2.178365946E0,-1.344497108E1,-7.421040535E0
1.284522114E1,2.841476910E-2,-1.062712383E1,-5.486742496E0
1.285493453E1,-3.728017569E0,-8.695218086E0,-2.807678223E0
1.286464724E1,-8.633603096E0,-8.388637543E0,-2.625823736E0
1.287436073E1,-8.169096947E0,-6.547659874E0,-4.316053867E0
1.288407500E1,-6.536293983E0,-6.921239376E0,-9.010771751E0
1.289378849E1,-4.731208801E0,-7.766204834E0,-1.410539055E1
1.290350109E1,-3.744767427E0,-8.728717804E0,-1.659990883E1
1.291321463E1,-2.775076151E0,-9.415757179E0,-1.619791412E1
1.292292891E1,-1.338784218E0,-9.698409081E0,-1.458903980E1
1.293264229E1,7.992027402E-1,-9.655338287E0,-1.186211872E1
1.294235500E1,2.654537678E0,-9.305686951E0,-7.995616913E0
1.295206849E1,3.164507866E0,-8.422137260E0,-3.978366852E0
1.296178276E1,2.717050076E0,-6.935596466E0,-1.478764415E0
1.297149625E1,1.237388372E0,-4.955535889E0,-1.287338614E0
1.298120885E1,-8.838488460E-1,-2.918346405E0,-1.969592094E0
1.299092240E1,-3.270689487E0,-2.046760559E0,5.392823815E-1
1.300063667E1,-4.640281200E0,-2.484946251E0,6.534200668E0
1.301035005E1,-4.676173687E0,-2.968595505E0,1.080508995E1
1.302006276E1,-4.226023674E0,-3.978665829E0,5.502295494E0
1.302977625E1,-4.415056705E0,-5.566004753E0,-8.249555588E0
1.303949052E1,-6.122036934E0,-9.688838005E0,-1.124207878E1
1.304920401E1,-4.968098164E0,-1.706740570E1,-7.444968700E0
1.305891661E1,-1.518245935E0,-2.449861526E1,-3.281756163E0
1.306863016E1,-2.590230405E-1,-2.797239494E1,-4.576871395E0
1.307834443E1,-2.212463617E0,-2.622473717E1,-7.080960274E0
1.308805792E1,-5.406283855E0,-2.310778809E1,-7.741977692E0
1.309777052E1,-7.494021416E0,-2.066561317E1,-7.746763229E0
1.310748406E1,-7.723732471E0,-1.885813522E1,-6.628716946E0
1.311719833E1,-6.986443996E0,-1.778555107E1,-3.528217077E0
1.312691172E1,-6.114858150E0,-1.649761391E1,-9.017950296E-1
1.313662443E1,-4.853242397E0,-1.449362564E1,2.401795685E-1
1.314633792E1,-2.897109985E0,-1.271246815E1,5.991029739E-1
1.315605219E1,-1.434497118E0,-1.133599758E1,1.592722535E0
1.316576568E1,-7.929216027E-1,-9.908977509E0,2.344367981E0
1.317547828E1,-4.552344978E-1,-8.676075935E0,2.859123945E0
1.318519182E1,-7.761718631E-1,-7.378567696E0,2.990729094E0
1.319490609E1,-1.087238789E0,-5.963512421E0,2.425724030E0
1.320461948E1,-1.513460279E0,-4.807180882E0,1.772184253E0
1.321433219E1,-2.167000055E0,-3.899702787E0,1.525723577E0
1.322404568E1,-3.263510942E0,-2.966202736E0,1.164108157E0
1.323375995E1,-4.293023109E0,-2.140080690E0,-4.247260094E-2
1.324347344E1,-4.798207760E0,-1.608574986E0,-1.861915112E0
1.325318604E1,-4.910670280E0,-1.165603757E0,-3.377469063E0
1.326289958E1,-4.118346691E0,-1.122532964E0,-4.359124660E0
1.327261385E1,-1.851147413E0,-1.532004714E0,-3.566502094E0
1.328232724E1,8.518448472E-1,-2.032403708E0,-1.620239973E0
1.329203995E1,1.285244823E0,-1.632503271E0,-1.610668778E0
1.330175349E1,1.839482337E-1,-1.309472203E0,-3.327219963E0
1.331146771E1,4.516452923E-2,-1.826620936E0,-6.013462543E0
1.332118120E1,1.352243900E0,-1.917548299E0,-7.923832417E0
1.333089385E1,3.461517096E0,-2.480160713E0,-1.073210907E1
1.334060734E1,6.037390709E0,-3.765704632E0,-1.209661579E1
1.335032161E1,7.205985546E0,-5.152046204E0,-8.383553505E0
1.336003510E1,6.056832314E0,-7.577171803E0,-3.849453330E-1
1.336974771E1,2.187937260E0,-9.798908234E0,7.683353424E0
1.337946125E1,-2.143071890E0,-1.285603809E1,1.261047459E1
1.338917552E1,-1.374018574E1,-1.252582836E1,4.915754795E0
1.339888891E1,-1.601456451E1,-1.081645584E1,-5.446064472E0
1.340860161E1,-1.006750202E1,-1.336600780E1,-9.736096382E0
1.341831510E1,-2.753540754E0,-1.587996769E1,4.121038914E0
1.342802937E1,6.221339107E-1,-1.778076553E1,9.828518867E0
1.343774286E1,3.669692516E0,-1.764676857E1,6.761518478E0
1.344745547E1,3.439981699E0,-1.472842121E1,4.286143780E0
1.345716901E1,4.280161560E-1,-1.227188969E1,2.174477577E0
1.346688328E1,-3.127120018E0,-1.235324574E1,1.226321608E-1
1.347659667E1,-4.149453640E0,-1.668425560E1,-2.178066730E0
1.348630937E1,-1.113559842E0,-1.866670799E1,-1.890628934E0
1.349602292E1,3.490529954E-1,-1.988046837E1,-9.451649189E-1
1.350573713E1,6.149554253E-1,-1.972254181E1,7.187440991E-1
1.351545062E1,-3.786641955E-1,-1.796740532E1,8.865407705E-1
1.352516323E1,-1.017846942E0,-1.540349674E1,-1.854736686E0
1.353487677E1,-9.364909530E-1,-1.282493114E1,-5.297410011E0
1.354459104E1,-1.575673699E0,-1.019402313E1,-7.581359386E0
1.355430453E1,-3.170190811E0,-7.919345856E0,-7.243971348E0
1.356401713E1,-4.599304199E0,-6.351448536E0,-5.697310925E0
1.357373068E1,-6.758826733E0,-6.475875378E0,-4.349553585E0
1.358344495E1,-8.777172089E0,-7.036095142E0,-4.328018188E0
1.359315833E1,-7.778767109E0,-6.142973900E0,-5.465207100E0
1.360287104E1,-5.671886921E0,-6.731907368E0,-8.622835159E0
1.361258453E1,-3.174976587E0,-7.095915318E0,-1.155793190E1
1.362229880E1,-1.436890006E0,-7.656135082E0,-1.292034531E1
1.363201229E1,-1.199402362E-1,-8.065607071E0,-1.405753422E1
1.364172490E1,1.232602715E0,-8.680861473E0,-1.443350601E1
1.365143844E1,1.902892232E0,-9.372686386E0,-1.292273808E1
1.366115271E1,1.438385487E0,-9.648159981E0,-1.014317513E1
1.367086609E1,6.436693072E-1,-9.293723106E0,-7.392326355E0
1.368057880E1,3.798605874E-2,-8.546863556E0,-5.084448814E0
1.369029234E1,-7.809575200E-1,-7.457530975E0,-3.523431301E0
1.370000656E1,-2.344068766E0,-6.025725842E0,-2.371885538E0
1.370972005E1,-4.084847450E0,-5.312365532E0,1.784148335E0
1.371943271E1,-5.104488850E0,-5.784050465E0,5.823233128E0
1.372914620E1,-6.318547249E0,-7.182057381E0,6.969993114E0
1.373886047E1,-6.220142365E0,-9.267401695E0,7.077670097E0
1.374857396E1,-4.199702740E0,-1.223599815E1,4.966004372E0
1.375828656E1,9.302098304E-2,-1.482174206E1,9.702895880E-1
1.376800010E1,4.835595608E0,-1.870499420E1,-5.101198673E0
1.377771437E1,4.814060211E0,-2.041675949E1,-9.915857315E0
1.378742776E1,-1.082453132E0,-1.948535347E1,-1.202483082E1
1.379714047E1,-7.539484978E0,-1.907588196E1,-1.083739281E1
1.380685401E1,-1.112333488E1,-1.939442635E1,-7.674978733E0
1.381656823E1,-1.217198944E1,-1.969113541E1,-5.421836853E0
1.382628172E1,-1.040518951E1,-1.980389786E1,-4.220041752E0
1.383599437E1,-8.181060791E0,-1.921974945E1,-2.678465843E0
1.384570786E1,-5.856433392E0,-1.773530197E1,-1.418943882E0
1.385542213E1,-3.739981890E0,-1.580578995E1,-5.739783049E-1
1.386513562E1,-2.691327333E0,-1.358405399E1,4.339981973E-1
1.387484823E1,-2.202892303E0,-1.189621735E1,1.642971873E0
1.388456177E1,-1.733600020E0,-1.023709393E1,2.782553673E0
1.389427604E1,-1.973181367E0,-8.534899712E0,3.359523058E0
1.390398943E1,-2.320140600E0,-6.921239376E0,3.134597778E0
1.391370213E1,-2.779861689E0,-5.197509766E0,1.995015860E0
1.392341562E1,-2.978765011E0,-3.904488325E0,1.211964726E0
1.393312990E1,-3.249154091E0,-2.776870728E0,6.852445602E-1
1.394284338E1,-3.771088600E0,-1.905584097E0,-2.434697002E-1
1.395255604E1,-3.948157310E0,-1.476969719E0,-7.342974544E-1
1.396226953E1,-4.019941807E0,-1.153639674E0,-1.397408366E0
1.397198380E1,-3.402294636E0,-1.022034407E0,-2.166102648E0
1.398169719E1,-1.750349760E0,-1.196710467E0,-3.236292601E0
1.399140990E1,8.422735929E-1,-1.783550143E0,-3.844368696E0
1.400112344E1,4.177269936E0,-2.819941521E0,-2.965604544E0
1.401083771E1,5.089533806E0,-3.789632797E0,-9.595218897E-1
1.402055109E1,2.446362019E0,-4.352245331E0,-1.390229940E0
1.403026380E1,3.658027649E-1,-4.682754040E0,-4.150650024E0
1.403997729E1,2.318046987E-1,-4.292424679E0,-7.339684486E0
1.404969156E1,2.455933332E0,-4.752145767E0,-1.136650562E1
1.405940505E1,4.694418907E0,-5.810371399E0,-1.118225861E1
1.406911766E1,5.688038349E0,-6.521338940E0,-5.795416355E0
1.407883120E1,4.373780727E0,-7.220342159E0,1.358225942E0
1.408854547E1,4.361517429E0,-7.435995579E0,4.580460548E0
1.409825896E1,6.174080849E0,-7.129415035E0,2.047657967E0
1.410797156E1,1.408774406E-1,-8.142177582E0,-3.897010803E0
1.411768510E1,-1.068993473E1,-9.217152596E0,2.962015390E0
1.412739937E1,-1.664178276E1,-1.175234795E1,4.757828712E0
1.413711276E1,-1.504247952E1,-1.506341648E1,-2.733500719E0
1.414682547E1,-5.099703312E0,-1.612882042E1,2.207977057E0
1.415653896E1,-7.019943595E-1,-1.773530197E1,8.375178337E0
1.416625323E1,2.988037169E-1,-1.723729706E1,7.479664326E0
1.417596672E1,1.839482337E-1,-1.475952816E1,2.801696301E0
1.418567932E1,-1.470389485E0,-1.278425312E1,6.469594240E-1
1.419539286E1,-4.417449474E0,-1.248515034E1,1.489532143E-1
1.420510713E1,-5.382355213E0,-1.329183102E1,-3.945166469E-1
1.421482062E1,-3.531806231E0,-1.536042595E1,-5.691927075E-1
1.422453323E1,-5.222335458E-1,-1.828355789E1,-1.124626637E0
1.423424677E1,1.457528114E0,-1.982782555E1,-1.689631939E0
1.424396104E1,2.518146753E0,-1.954517365E1,-2.223530531E0
1.425367443E1,2.022533417E0,-1.758455467E1,-3.094816923E0
1.426338713E1,1.433599830E0,-1.480020618E1,-4.083651066E0
1.427310062E1,1.256531000E0,-1.134796143E1,-5.141876698E0
1.428281490E1,2.724826932E-1,-7.057630539E0,-6.432206154E0
1.429252838E1,-3.428615808E0,-5.508576870E0,-6.396314144E0
1.430224104E1,-8.149953842E0,-7.021738052E0,-6.178566933E0
1.431195453E1,-9.294321060E0,-6.449554443E0,-6.444170475E0
1.432166880E1,-6.617650032E0,-5.379364491E0,-6.896713257E0
1.433138229E1,-3.799802303E0,-6.870990276E0,-9.029914856E0
1.434109490E1,-1.515853167E0,-7.409674644E0,-1.109133148E1
1.435080844E1,-6.323033571E-1,-7.660920620E0,-1.277677536E1
1.436052271E1,-1.704886183E-2,-7.708777428E0,-1.382752419E1
1.437023609E1,6.436693072E-1,-8.032107353E0,-1.348056412E1
1.437994880E1,1.416850090E0,-8.726325035E0,-1.164676476E1
1.438966229E1,1.495813251E0,-9.734301567E0,-8.598907471E0
1.439937656E1,8.255237937E-1,-1.025862885E1,-5.659025669E0
1.440909005E1,-3.619144112E-2,-9.997511864E0,-3.547359467E0
1.441880271E1,-1.281356573E0,-8.393424034E0,-2.676073074E0
1.442851620E1,-3.105584621E0,-6.279664040E0,-1.531705618E0
1.443823047E1,-4.510769844E0,-4.852644444E0,2.842374086E0
1.444794396E1,-5.317749023E0,-4.469493389E0,7.374380112E0
1.445765656E1,-6.057430744E0,-5.041677475E0,6.285048008E0
1.446737010E1,-4.877170563E0,-7.205985546E0,1.113858938E0
1.447708437E1,-3.268296719E0,-1.050030422E1,-1.809273005E0
1.448679776E1,-9.101698995E-1,-1.524796295E1,-4.212863445E0
1.449651047E1,1.208674550E0,-1.984457588E1,-5.852844238E0
1.450622401E1,7.369893789E-1,-2.328007126E1,-7.124330521E0
1.451593823E1,-2.040180445E0,-2.375893402E1,-7.626822948E0
1.452565172E1,-6.119643688E0,-2.287059975E1,-7.011568546E0
1.453536437E1,-8.171489716E0,-2.181955147E1,-6.384349823E0
1.454507786E1,-6.553043842E0,-2.115165520E1,-5.235197067E0
1.455479213E1,-3.565305710E0,-2.019153404E1,-3.712464333E0
1.456450562E1,-1.894218206E0,-1.843430519E1,-1.677667737E0
1.457421823E1,-1.408176184E0,-1.606660843E1,-6.161518395E-2
1.458393177E1,-1.271785259E0,-1.350000668E1,9.320043921E-1
1.459364604E1,-1.283749342E0,-1.134796143E1,1.485045552E0
1.460335943E1,-1.771885157E0,-9.719944954E0,1.951945066E0
1.461307213E1,-2.717648268E0,-8.257032394E0,2.574378014E0
1.462278568E1,-3.301796198E0,-7.067201614E0,2.562413931E0
1.463249995E1,-3.230011463E0,-5.920441628E0,1.913659930E0
1.464221333E1,-3.115155935E0,-5.000999451E0,1.077966571E0
1.465192604E1,-3.033800125E0,-4.282853603E0,7.426723242E-1
1.466163958E1,-3.134298563E0,-3.478565931E0,3.981058598E-1
1.467135380E1,-3.452543974E0,-2.743371248E0,-5.021936297E-1
1.468106729E1,-4.336093903E0,-2.063510418E0,-1.960020900E0
1.469077990E1,-5.291428089E0,-1.273579836E0,-3.561716557E0
1.470049344E1,-6.105287075E0,-5.120640397E-1,-4.572085857E0
1.471020771E1,-6.483652115E0,3.209373355E-1,-4.227220535E0
1.471992120E1,-5.334498882E0,6.586244106E-1,-2.743072033E0
1.472963380E1,-3.230011463E0,-2.177468538E-1,-1.361516118E0
1.473934734E1,-2.119143486E0,-1.886441588E0,-1.644168258E0
1.474906161E1,-7.447660714E-2,-3.598206997E0,-3.585644722E0
1.475877500E1,1.816750646E0,-4.591826439E0,-6.302993774E0
1.476848771E1,4.893023014E0,-5.961119175E0,-1.181904793E1
1.477820125E1,8.055736542E0,-7.268198967E0,-1.047338486E1
1.478791547E1,8.623134613E0,-7.730312824E0,-7.319046259E-1
1.479762896E1,5.333601475E0,-8.664112091E0,9.761520386E0
1.480734161E1,5.975177288E0,-7.859525204E0,1.026640511E1
1.481705510E1,7.653443336E0,-4.132105827E0,7.285845757E0
1.482676937E1,-2.351247311E0,-2.051546335E0,-2.258525467E1
1.483648286E1,-1.111137104E1,-4.282853603E0,-1.330110264E1
1.484619547E1,-1.501137257E1,-9.329615593E0,2.615056038E0
1.485590901E1,-1.759711647E1,-1.315543938E1,1.863111496E0
1.486562328E1,-8.027919769E0,-1.434766388E1,1.060169983E1
1.487533677E1,1.524527073E0,-2.011017799E1,1.382184124E1
1.488504937E1,8.807381630E0,-2.163530350E1,4.116253376E0
1.489476292E1,7.751848221E0,-1.772094536E1,-1.780559182E0
1.490447719E1,3.229114056E0,-1.537478256E1,2.243869543E0
1.491419057E1,-2.598007202E0,-1.534128284E1,3.850350618E0
1.492390328E1,-6.395117760E0,-1.653350639E1,2.040479422E0
1.493361682E1,-4.903491974E0,-1.704826355E1,-5.309075117E-1
1.494333109E1,-7.761718631E-1,-1.835055733E1,-1.816451430E0
1.495304448E1,6.460621357E-1,-1.885574150E1,-1.277767301E0
1.496275719E1,-5.772684515E-2,-1.748884201E1,-1.141376376E0
1.497247068E1,-1.539781332E0,-1.537717533E1,-2.814856768E0
1.498218495E1,-2.080858469E0,-1.329422379E1,-4.943272591E0
1.499189844E1,-2.195713997E0,-1.107248783E1,-7.210472107E0
1.500161104E1,-3.447758436E0,-9.253045082E0,-8.100900650E0
1.501132458E1,-5.365605831E0,-7.818847179E0,-6.812964439E0
1.502103885E1,-7.675876141E0,-7.335197926E0,-5.556134224E0
1.503075234E1,-8.396414757E0,-8.568398476E0,-5.242375374E0
1.504046495E1,-6.232106686E0,-9.061619759E0,-6.477670193E0
1.505017849E1,-3.783052683E0,-9.681659698E0,-1.016471100E1
1.505989276E1,-2.047358990E0,-9.643374443E0,-1.346860027E1
1.506960615E1,-1.451246977E0,-9.198010445E0,-1.415324688E1
1.507931885E1,-1.276570916E0,-8.633005142E0,-1.324337578E1
