"Time (s)","Gyroscope x (rad/s)","Gyroscope y (rad/s)","Gyroscope z (rad/s)"
1.934667400E-1,-1.297744989E0,2.773246467E-1,5.030327439E-1
2.031802300E-1,-9.642223716E-1,2.916795574E-2,3.173351586E-1
2.128944480E-1,-5.427377820E-1,-1.101052165E-1,1.156028435E-1
2.226078860E-1,-7.635590620E-3,-8.567132801E-2,-9.086353332E-2
2.323205420E-1,6.239804626E-1,1.453816444E-1,-2.790044844E-1
2.420340320E-1,1.274074674E0,5.558710098E-1,-4.304946065E-1
2.517482510E-1,1.836054206E0,9.785773158E-1,-5.318952799E-1
2.614617400E-1,2.200119019E0,1.150836229E0,-6.516213417E-1
2.711743440E-1,2.343057394E0,9.834640622E-1,-7.615737915E-1
2.808878340E-1,2.371156454E0,6.548282504E-1,-7.957812548E-1
2.906020530E-1,2.401698828E0,4.410317242E-1,-7.395833135E-1
3.003155420E-1,2.465226889E0,3.946073353E-1,-6.565080881E-1
3.100281460E-1,2.602056503E0,5.033381581E-1,-6.039752364E-1
3.197416360E-1,2.839065313E0,7.721109390E-1,-5.868715048E-1
3.294559070E-1,3.077295780E0,1.054322362E0,-5.783196688E-1
3.391692920E-1,3.186026573E0,1.230246425E0,-5.172349215E-1
3.488819480E-1,3.058970451E0,1.370741248E0,-3.694098890E-1
3.585954380E-1,2.660697937E0,1.467255116E0,-2.020377368E-1
3.683097090E-1,2.000983000E0,1.367076159E0,-1.030804738E-1
3.780230940E-1,1.243532300E0,8.283088803E-1,-2.362451702E-1
3.877357510E-1,7.705838084E-1,-6.612421572E-2,-5.954233408E-1
3.974492400E-1,8.524373770E-1,-8.419002295E-1,-9.521581531E-1
4.071635110E-1,1.233758807E0,-6.500942111E-1,-1.123195410E0
4.168768960E-1,1.568503022E0,4.630222321E-1,-1.207492352E0
4.265895530E-1,1.322942495E0,6.890357137E-1,-1.196497083E0
4.363030940E-1,8.145648241E-1,-1.234064221E0,-8.165500760E-1
4.460173130E-1,5.738909841E-1,-2.441098452E0,-4.671454430E-1
4.557306980E-1,6.484143734E-1,-2.464310646E0,-1.324011385E-1
4.654433550E-1,1.093111157E0,-1.544374585E0,1.656923145E-1
4.751568960E-1,1.730988383E0,-8.247964978E-1,3.075616062E-1
4.848711150E-1,2.009534836E0,-7.258392572E-1,6.062658876E-2
4.945846050E-1,1.833610773E0,-1.047144890E0,-3.144336343E-1
5.042972090E-1,1.563616276E0,-1.341573238E0,-5.086830258E-1
5.140106980E-1,1.500088215E0,-1.342795014E0,-5.013529062E-1
5.237249170E-1,1.662573576E0,-1.216960430E0,-3.706315756E-1
5.334384070E-1,1.942341566E0,-8.284615874E-1,-2.619007528E-1
5.431510110E-1,2.330840349E0,-3.153499067E-1,-3.400892019E-1
5.528645010E-1,2.872051001E0,9.025268257E-2,-5.685460567E-1
5.625787710E-1,3.446247578E0,4.593571424E-1,-8.067765236E-1
5.722921570E-1,3.784657001E0,6.658235192E-1,-9.900307059E-1
5.820048130E-1,3.722350597E0,6.438329816E-1,-1.154959440E0
5.917183030E-1,3.328964949E0,5.302154422E-1,-1.290567517E0
6.014325730E-1,2.773093939E0,4.129327536E-1,-1.213600755E0
6.111459590E-1,2.214779377E0,2.113531530E-1,-7.994463444E-1
6.208586150E-1,1.669903636E0,-7.834116369E-2,-1.812689304E-1
6.305721570E-1,1.066233873E0,-3.727695346E-1,3.869717419E-1
6.402863760E-1,3.979669809E-1,-5.572454333E-1,7.204943299E-1
6.499998650E-1,-3.020639718E-1,-6.268820167E-1,8.451071978E-1
6.597124690E-1,-1.008203387E0,-7.026270628E-1,9.123004079E-1
6.694259590E-1,-1.714342833E0,-7.905890942E-1,9.880454540E-1
6.791402300E-1,-2.394826651E0,-8.125795722E-1,1.050351858E0
6.888536150E-1,-3.009339094E0,-7.563816309E-1,1.077229142E0
6.985662710E-1,-3.549328089E0,-7.136223316E-1,1.077229142E0
7.082798130E-1,-4.045335770E0,-8.015843034E-1,1.071120620E0
7.179940320E-1,-4.477968693E0,-9.970554113E-1,1.099219680E0
7.277075210E-1,-4.791944027E0,-1.237729311E0,1.225054145E0
7.374201260E-1,-4.925108910E0,-1.366007209E0,1.427855492E0
7.471336150E-1,-4.806604385E0,-1.187639832E0,1.633100152E0
7.568478860E-1,-4.302044392E0,-5.767925382E-1,1.723505497E0
7.665612710E-1,-3.589643955E0,5.363239050E-1,1.756491303E0
7.762739280E-1,-3.347748518E0,1.407392025E0,1.727170587E0
7.859874690E-1,-3.615299463E0,1.525896430E0,1.551246643E0
7.957016880E-1,-3.918279648E0,1.222916245E0,1.396091461E0
8.054151780E-1,-4.036784172E0,9.626953006E-1,1.336228371E0
8.151277820E-1,-4.084430218E0,6.780404449E-1,1.304464340E0
8.248412710E-1,-4.110085964E0,2.565558553E-1,1.375322580E0
8.345555420E-1,-4.009906769E0,-2.092151903E-2,1.507265568E0
8.442689280E-1,-3.809548855E0,-2.336490713E-2,1.598892689E0
8.539816360E-1,-3.600639105E0,1.747023165E-1,1.696628213E0
8.636951260E-1,-3.342861652E0,3.811686933E-1,1.791920424E0
8.734093960E-1,-3.027664423E0,5.167768002E-1,1.821241140E0
8.831227820E-1,-2.631835461E0,5.925218463E-1,1.717397094E0
8.928354380E-1,-2.101619959E0,6.633801460E-1,1.443737507E0
9.025489800E-1,-1.466338873E0,6.401679516E-1,1.041800022E0
9.122631980E-1,-7.931851745E-1,5.644228458E-1,6.129852533E-1
9.219766880E-1,-8.704573661E-2,6.768187881E-1,2.145601064E-1
9.316892920E-1,6.337540150E-1,9.358180165E-1,-1.079672500E-1
9.414028340E-1,1.337602735E0,1.244906664E0,-3.498627543E-1
9.511170530E-1,1.953336835E0,1.533226609E0,-5.514423847E-1
9.608305420E-1,2.423689127E0,1.722589254E0,-7.249229550E-1
9.705431460E-1,2.751103401E0,1.771457076E0,-8.202151656E-1
9.802566880E-1,2.945352793E0,1.618745208E0,-8.458707333E-1
9.899709070E-1,3.045531750E0,1.258345366E0,-8.483141065E-1
9.996843960E-1,3.060192108E0,8.576295376E-1,-8.470924497E-1
1.009397001E0,2.964899778E0,5.375455618E-1,-8.812998533E-1
1.019110542E0,2.874494553E0,3.738385141E-1,-9.790354371E-1
1.028824761E0,3.005215883E0,4.679090083E-1,-1.104869962E0
1.038538251E0,3.427922010E0,7.476770282E-1,-1.148851037E0
1.048250855E0,3.944698811E0,9.993461370E-1,-1.086544514E0
1.057964396E0,4.096189022E0,1.386623263E0,-9.240592122E-1
1.067678615E0,3.635610104E0,1.815438032E0,-7.127060294E-1
1.077392105E0,2.755990028E0,1.761683464E0,-5.331169367E-1
1.087104709E0,1.584385037E0,1.141062737E0,-5.196782947E-1
1.096818251E0,6.093201637E-1,2.125748396E-1,-7.811209559E-1
1.106532521E0,5.457920432E-1,-4.546230733E-1,-1.038898468E0
1.116245907E0,9.843803644E-1,-2.225011140E-1,-1.079214454E0
1.125958615E0,1.210546613E0,7.391251922E-1,-1.176949978E0
1.135672105E0,9.452861547E-1,7.195780873E-1,-1.261246920E0
1.145386376E0,3.637595475E-1,-1.264606595E0,-9.179506898E-1
1.155099865E0,3.833066523E-1,-2.201646328E0,-6.320741773E-1
1.164812469E0,7.644753456E-1,-2.174768925E0,-2.240282297E-1
1.174526011E0,1.330272675E0,-1.494285107E0,2.328855246E-1
1.184240282E0,1.827502251E0,-1.227955699E0,4.749337435E-1
1.193953667E0,1.958223581E0,-1.759392858E0,3.588727713E-1
1.203666376E0,1.722436547E0,-2.343362808E0,4.107947648E-2
1.213379865E0,1.386470556E0,-2.477749109E0,-2.423536479E-1
1.223094136E0,1.335159421E0,-2.304268599E0,-2.973299026E-1
1.232807626E0,1.590493560E0,-1.798487067E0,-1.617218107E-1
1.242520230E0,1.987544298E0,-8.406785131E-1,-2.901524538E-3
1.252233771E0,2.434684515E0,3.038965166E-2,-4.443913698E-2
1.261948042E0,2.884268045E0,3.921639323E-1,-3.388675153E-1
1.271661428E0,3.350955248E0,5.619794726E-1,-7.102626562E-1
1.281374136E0,3.715020418E0,8.258655071E-1,-9.814788103E-1
1.291087626E0,3.848185062E0,1.158166409E0,-1.076771021E0
1.300801896E0,3.728458881E0,1.299883008E0,-1.103648305E0
1.310515386E0,3.353398800E0,1.126402378E0,-1.146407604E0
1.320227990E0,2.809744596E0,7.611156702E-1,-1.114643574E0
1.329941532E0,2.242878437E0,2.028012872E-1,-8.397622705E-1
1.339655803E0,1.711441278E0,-4.399627447E-1,-3.290939629E-1
1.349369292E0,1.204438090E0,-8.883246183E-1,2.170034945E-1
1.359081896E0,6.545228362E-1,-9.946120381E-1,6.459710002E-1
1.368795438E0,8.276980370E-2,-8.980981708E-1,8.890882134E-1
1.378509709E0,-4.914266169E-1,-8.284615874E-1,9.587247968E-1
1.388223094E0,-1.112047434E0,-8.076927662E-1,9.672766328E-1
1.397935803E0,-1.791309595E0,-6.586460471E-1,9.513946176E-1
1.407649344E0,-2.451024532E0,-2.848075330E-1,9.049702287E-1
1.417363615E0,-3.002008915E0,1.159082651E-1,8.218950033E-1
1.427077001E0,-3.411276579E0,2.345653474E-1,7.168292403E-1
1.436789709E0,-3.747242451E0,-2.336490713E-2,6.618530154E-1
1.446503251E0,-4.019680500E0,-5.071559548E-1,7.241594195E-1
1.456217521E0,-4.193313599E0,-8.956547976E-1,9.281824231E-1
1.465930907E0,-4.310596466E0,-1.005607247E0,1.187181592E0
1.475643615E0,-4.250733376E0,-9.323056340E-1,1.375322580E0
1.485357157E0,-3.874298811E0,-6.586460471E-1,1.457176089E0
1.495071428E0,-3.446705580E0,2.794626169E-2,1.475501537E0
1.504784813E0,-3.370960712E0,8.075400591E-1,1.396091461E0
1.514497521E0,-3.595752478E0,1.073869467E0,1.255596519E0
1.524211063E0,-3.705704927E0,1.051878929E0,1.126096964E0
1.533925334E0,-3.620186329E0,1.178935170E0,9.330691695E-1
1.543638719E0,-3.480913162E0,1.252236843E0,7.791357040E-1
1.553351428E0,-3.487021685E0,1.000567794E0,7.583668828E-1
1.563064969E0,-3.604304314E0,5.644228458E-1,8.866447806E-1
1.572779240E0,-3.659280539E0,5.115845799E-2,1.090667725E0
1.582492626E0,-3.524893999E0,-2.359397560E-1,1.275143623E0
1.592205334E0,-3.181597948E0,-2.725905776E-1,1.438850760E0
1.601918876E0,-2.722240925E0,-1.980672181E-1,1.501157165E0
1.611633146E0,-2.248223305E0,-2.092151903E-2,1.407086611E0
1.621346636E0,-1.793753028E0,1.783674061E-1,1.140757203E0
1.631059240E0,-1.342947721E0,2.858765125E-1,8.035695553E-1
1.640772782E0,-8.664868474E-1,3.396310806E-1,4.859289825E-1
1.650487053E0,-3.374931216E-1,3.921639323E-1,2.121167034E-1
1.660200542E0,2.073826492E-1,4.410317242E-1,-4.810422286E-2
1.669913146E0,7.192726731E-1,5.070032477E-1,-3.119902313E-1
1.679626688E0,1.193290114E0,6.401679516E-1,-5.111264586E-1
1.689340959E0,1.634474516E0,8.612946272E-1,-6.149705052E-1
1.699054448E0,1.998539567E0,1.073869467E0,-6.284091473E-1
1.708767053E0,2.235548258E0,1.149614573E0,-6.027535200E-1
1.718480594E0,2.369934559E0,1.037218690E0,-5.917583108E-1
1.728194865E0,2.445679665E0,7.562289238E-1,-5.893148780E-1
1.737908355E0,2.461561680E0,4.446968138E-1,-5.917583108E-1
1.747621011E0,2.484773874E0,2.309002578E-1,-6.088619828E-1
1.757334553E0,2.674136639E0,2.956500649E-1,-6.174138784E-1
1.767048823E0,3.012546062E0,5.644228458E-1,-6.308525205E-1
1.776762209E0,3.331408262E0,7.660024762E-1,-6.784985662E-1
1.786474917E0,3.453577757E0,1.072647810E0,-6.430694461E-1
1.796188459E0,3.182361603E0,1.682273388E0,-5.245651007E-1
1.805902730E0,2.526311636E0,1.915616989E0,-3.413109183E-1
1.815616219E0,1.415791273E0,1.009119630E0,-2.057028115E-1
1.825328823E0,2.293731421E-1,-6.427640319E-1,-2.985515893E-1
1.835042365E0,-1.200314835E-1,-1.730072141E0,-5.575508475E-1
1.844756636E0,3.197785318E-1,-1.620119691E0,-5.758762360E-1
1.854470126E0,9.123004079E-1,-5.548020005E-1,-3.914003670E-1
1.864182782E0,1.335159421E0,5.473191738E-1,-4.695888162E-1
1.873896271E0,9.330691695E-1,3.897205591E-1,-6.821636558E-1
1.883610542E0,3.771981895E-1,-9.836167693E-1,-6.345176101E-1
1.893324032E0,3.234436214E-1,-1.550483108E0,-7.432484031E-1
1.903036688E0,5.445703268E-1,-1.475959659E0,-5.196782947E-1
1.912750230E0,1.094332814E0,-1.243837714E0,-1.568350345E-1
1.922464501E0,1.704111099E0,-1.083795786E0,4.428642802E-3
1.932177990E0,1.921572804E0,-1.107007980E0,-1.421747059E-1
1.941890594E0,1.785964727E0,-1.207186937E0,-3.388675153E-1
1.951604136E0,1.749313831E0,-1.384332657E0,-4.500417113E-1
1.961318407E0,1.877591729E0,-1.451525807E0,-4.133908749E-1
1.971031896E0,1.983879209E0,-1.202300072E0,-2.863346636E-1
1.980744553E0,2.172020197E0,-7.771504521E-1,-2.863346636E-1
1.990458042E0,2.457896709E0,-3.275668323E-1,-4.671454430E-1
2.000172313E0,2.846395493E0,7.314895838E-2,-7.346965671E-1
2.009885803E0,3.294757366E0,5.008947253E-1,-9.888089895E-1
2.019598459E0,3.635610104E0,8.710681796E-1,-1.112200141E0
2.029312001E0,3.671039343E0,1.016449809E0,-1.143964171E0
2.039026271E0,3.382719517E0,9.077190161E-1,-1.176949978E0
2.048739761E0,2.960013151E0,5.900784731E-1,-1.159846187E0
2.058452365E0,2.528754950E0,2.125748396E-1,-9.387195110E-1
2.068165907E0,2.164690018E0,-1.357607991E-1,-5.099047422E-1
2.077880178E0,1.884921908E0,-3.849864900E-1,-7.986827940E-2
2.087593667E0,1.533073902E0,-4.595098495E-1,2.658712566E-1
2.097306323E0,9.746068120E-1,-3.972034156E-1,4.822639227E-1
2.107019865E0,2.428117841E-1,-3.434488773E-1,5.922164321E-1
2.116734136E0,-5.561764240E-1,-3.605526090E-1,7.119424939E-1
2.126447521E0,-1.345391035E0,-4.362976551E-1,8.328902125E-1
2.136160230E0,-2.073521137E0,-4.240806997E-1,9.281824231E-1
2.145873771E0,-2.668486357E0,-2.591519356E-1,9.660549164E-1
2.155588042E0,-3.133951902E0,-1.186570823E-1,9.623898268E-1
2.165301532E0,-3.504125357E0,-2.506000996E-1,9.330691695E-1
2.175014188E0,-3.820544243E0,-6.928535104E-1,9.184088707E-1
2.184727730E0,-4.117415905E0,-1.246281147E0,9.843803644E-1
2.194442001E0,-4.387563229E0,-1.694643021E0,1.135870457E0
2.204155490E0,-4.497515678E0,-1.854684949E0,1.293469071E0
2.213868094E0,-4.251955032E0,-1.681204319E0,1.400978208E0
2.223581636E0,-3.717921734E0,-8.919897079E-1,1.506043911E0
2.233295907E0,-3.391729355E0,4.068242610E-1,1.605001211E0
2.243009396E0,-3.541997910E0,1.205812454E0,1.534142852E0
2.252722053E0,-3.816879034E0,1.296217918E0,1.280030489E0
2.262435594E0,-3.980586052E0,1.332868695E0,9.550597072E-1
2.272149865E0,-4.025788784E0,1.483137131E0,7.889092565E-1
2.281863355E0,-3.943935394E0,1.275449038E0,9.086353183E-1
2.291575959E0,-3.825430870E0,8.026533127E-1,1.192068458E0
2.301289501E0,-3.720365286E0,3.542914093E-1,1.454732776E0
2.311003771E0,-3.549328089E0,-2.596100792E-3,1.575680494E0
2.320717261E0,-3.270781755E0,-1.333174109E-1,1.558576822E0
2.330429917E0,-2.896943092E0,-5.146388337E-2,1.471836448E0
2.340143459E0,-2.431477547E0,2.333436459E-1,1.331341624E0
2.349857730E0,-1.934247851E0,5.216635466E-1,1.077229142E0
2.359571219E0,-1.474890709E0,5.815265775E-1,7.412631512E-1
2.369283876E0,-1.038745761E0,4.520269632E-1,4.089622498E-1
2.378997365E0,-5.696150661E-1,3.298575282E-1,1.168245375E-1
2.388711688E0,-7.482878864E-2,3.310792148E-1,-1.397313178E-1
2.398425073E0,3.943018913E-1,4.666872919E-1,-3.437542915E-1
2.408137782E0,7.999044657E-1,6.536065936E-1,-4.866925478E-1
2.417851323E0,1.200773001E0,8.368607163E-1,-5.526640415E-1
2.427565594E0,1.638139606E0,9.822424054E-1,-5.587725043E-1
2.437279084E0,2.091388226E0,9.956810474E-1,-5.270084739E-1
2.446991740E0,2.448123217E0,8.283088803E-1,-4.866925478E-1
2.456705282E0,2.636264086E0,5.644228458E-1,-4.683671296E-1
2.466419553E0,2.679023266E0,3.481829464E-1,-4.879142344E-1
2.476133042E0,2.635042429E0,2.272351831E-1,-5.465555787E-1
2.485845698E0,2.619160414E0,2.235700935E-1,-6.687250137E-1
2.495559188E0,2.716895819E0,4.410317242E-1,-8.397622705E-1
2.505273511E0,2.851282358E0,7.049177289E-1,-9.521581531E-1
2.514986896E0,2.840286970E0,9.626953006E-1,-9.191724062E-1
2.524699605E0,2.496990919E0,1.369519591E0,-7.786775231E-1
2.534413146E0,1.625922680E0,1.553995371E0,-6.442911625E-1
2.544127417E0,2.867927849E-1,1.018893242E0,-7.224795818E-1
2.553840907E0,-3.826957941E-1,1.685938388E-1,-9.130639434E-1
2.563553563E0,2.171562016E-1,-1.553079188E-1,-9.130639434E-1
2.573267105E0,1.079672575E0,6.145123243E-1,-7.114843726E-1
2.582981376E0,1.706554532E0,1.572320819E0,-5.832064152E-1
2.592694865E0,1.382805467E0,5.778614879E-1,-8.006680608E-1
2.602407521E0,-4.352286756E-1,-1.694643021E0,-6.638382673E-1
2.612121063E0,-8.420529366E-1,-2.048934460E0,-7.737907767E-1
2.621835334E0,-1.114796251E-1,-2.011061907E0,-2.655658424E-1
2.631548823E0,6.850652099E-1,-1.676317573E0,6.239804626E-1
2.641261480E0,1.384027123E0,-1.121668339E0,7.901309133E-1
2.650975021E0,1.559951186E0,-1.267049909E0,3.210002482E-1
2.660689292E0,1.189625025E0,-1.916991353E0,-2.325800955E-1
2.670402782E0,8.658760190E-1,-2.141783237E0,-6.491779089E-1
2.680115386E0,1.033248186E0,-1.600572586E0,-8.043331504E-1
2.689828928E0,1.566059709E0,-7.441646457E-1,-7.078192830E-1
2.699543251E0,2.032747030E0,-1.015533581E-1,-5.428904891E-1
2.709256636E0,2.200119019E0,2.150182426E-1,-5.318952799E-1
2.718969344E0,2.278307676E0,3.555130959E-1,-6.662816405E-1
2.728682886E0,2.496990919E0,4.117110670E-1,-7.249229550E-1
2.738397157E0,2.806079626E0,5.412106514E-1,-6.088619828E-1
2.748110646E0,3.030871391E0,8.124268651E-1,-4.366030693E-1
2.757823303E0,3.000329018E0,1.014006495E0,-3.388675153E-1
2.767536844E0,2.725447655E0,9.003888369E-1,-3.205420971E-1
2.777251115E0,2.358939409E0,5.693096519E-1,-3.376458287E-1
2.786964605E0,2.007091284E0,2.260134816E-1,-3.694098890E-1
2.796677261E0,1.836054206E0,-1.333174109E-1,-3.804051280E-1
2.806390803E0,1.795738220E0,-3.727695346E-1,-3.168770075E-1
2.816105073E0,1.581941724E0,-3.507790267E-1,-2.118112892E-1
2.825818563E0,9.709417224E-1,-2.542651594E-1,-5.543438718E-2
2.835531219E0,-6.627693027E-2,-2.884726226E-1,2.011214644E-1
2.845244761E0,-1.256207347E0,-5.022691488E-1,5.274665952E-1
2.854959032E0,-2.271435499E0,-7.771504521E-1,8.585458398E-1
2.864672521E0,-2.971466541E0,-9.628480077E-1,1.167634487E0
2.874385178E0,-3.336753130E0,-1.065470338E0,1.394869685E0
2.884098719E0,-3.488243341E0,-1.212073684E0,1.468171358E0
2.893812990E0,-3.666610718E0,-1.474738002E0,1.435185671E0
2.903526480E0,-3.824209213E0,-1.879118919E0,1.342336893E0
2.913239136E0,-3.725251913E0,-2.183320761E0,1.217723966E0
2.922952678E0,-3.465031147E0,-1.749619246E0,1.155417562E0
2.932666948E0,-3.212140322E0,-3.458922505E-1,1.284917235E0
2.942380438E0,-3.199923277E0,1.160609841E0,1.473058224E0
2.952093094E0,-3.531002522E0,1.861862421E0,1.484053373E0
2.961806636E0,-3.934161663E0,1.584537745E0,1.366770744E0
2.971520907E0,-4.050222874E0,1.073869467E0,1.242157936E0
2.981234396E0,-3.930496693E0,8.979454637E-1,1.171299577E0
2.990947001E0,-3.736247301E0,8.417475224E-1,1.264148355E0
3.000660594E0,-3.532224178E0,6.340594292E-1,1.427855492E0
3.010374865E0,-3.403946400E0,1.771457046E-1,1.548803210E0
3.020088355E0,-3.345304966E0,-1.785201132E-1,1.607444525E0
3.029800959E0,-3.204810143E0,-2.017323077E-1,1.607444525E0
3.039514501E0,-2.893278122E0,-5.039489828E-3,1.554911733E0
3.049228771E0,-2.460798264E0,2.993151546E-1,1.429077148E0
3.058942395E0,-1.953794956E0,6.975875497E-1,1.204285383E0
3.068655051E0,-1.399145603E0,9.871291518E-1,8.707627654E-1
3.078368593E0,-7.797465324E-1,9.907942414E-1,4.993676245E-1
3.088082864E0,-1.212531775E-1,8.319739699E-1,1.595838517E-1
3.097796353E0,5.164713860E-1,7.073611021E-1,-1.067455560E-1
3.107509062E0,1.097997904E0,7.342383862E-1,-3.083251417E-1
3.117222603E0,1.634474516E0,9.064973593E-1,-5.111264586E-1
3.126936874E0,2.120708942E0,1.109298587E0,-7.237012982E-1
3.136650364E0,2.510429621E0,1.255901933E0,-8.971819282E-1
3.146363020E0,2.775537252E0,1.292552829E0,-9.961391687E-1
3.156076562E0,2.895263195E0,1.170383334E0,-1.027903199E0
3.165790832E0,2.894041538E0,9.113841057E-1,-9.900307059E-1
3.175504322E0,2.834178686E0,5.913001299E-1,-9.118422270E-1
3.185216978E0,2.768207073E0,3.151971996E-1,-8.409839869E-1
3.194930520E0,2.746216536E0,3.042019308E-1,-8.385405540E-1
3.204644791E0,2.863499165E0,5.986303091E-1,-9.032903910E-1
3.214358280E0,3.267880201E0,6.560499668E-1,-8.189934492E-1
3.224070937E0,3.607511282E0,7.684458494E-1,-5.990884304E-1
3.233784478E0,3.491450310E0,1.165496588E0,-4.097257853E-1
3.243498749E0,2.917253733E0,1.428160906E0,-2.411319613E-1
3.253212239E0,1.969218850E0,1.062874198E0,-9.941539168E-2
3.262924895E0,7.974610925E-1,7.314895838E-2,-1.898207814E-1
3.272638437E0,4.856235534E-2,-9.811733961E-1,-5.929799676E-1
3.282352707E0,-8.857285604E-3,-1.235285878E0,-1.001025915E0
3.292066197E0,3.258870244E-1,-2.127275616E-1,-1.190388560E0
3.301778853E0,9.208522439E-1,1.390288353E0,-1.176949978E0
3.311492395E0,1.254527569E0,1.771457076E0,-1.035233378E0
3.321206666E0,9.171871543E-1,-2.799207568E-1,-6.357392669E-1
3.330920155E0,4.700469673E-1,-1.907217860E0,-6.528429985E-1
3.340632812E0,4.065188468E-1,-1.783826709E0,-7.053758502E-1
3.350346301E0,9.599464536E-1,-1.451525807E0,-3.571929336E-1
3.360060572E0,1.496423125E0,-1.893779159E0,1.827960461E-1
3.369774062E0,1.829945683E0,-2.208976507E0,3.698680103E-1
3.379486718E0,1.710219622E0,-2.020835400E0,2.121167034E-1
3.389200259E0,1.315612316E0,-1.865680218E0,-9.009997360E-3
3.398914530E0,1.168856263E0,-1.744732499E0,-1.262926757E-1
3.408628020E0,1.432894945E0,-1.102121115E0,-1.714953631E-1
3.418340676E0,1.887365341E0,-1.650814712E-1,-2.252499312E-1
3.428054218E0,2.417580843E0,5.607577562E-1,-4.292729199E-1
3.437768489E0,3.030871391E0,1.048213840E0,-7.249229550E-1
3.447481978E0,3.534209490E0,1.360967636E0,-9.875873327E-1
3.457194634E0,3.656378984E0,1.434269309E0,-1.165954709E0
3.466908176E0,3.348511934E0,1.305991411E0,-1.300341129E0
3.476622447E0,2.826848507E0,1.032331824E0,-1.382194638E0
3.486335937E0,2.291746140E0,5.766398311E-1,-1.289345860E0
3.496048593E0,1.845827699E0,1.068982761E-3,-8.800781965E-1
3.505762134E0,1.498866439E0,-3.422271907E-1,-3.437542915E-1
3.515476405E0,1.267966151E0,-4.753918648E-1,7.040014863E-2
3.525189895E0,9.709417224E-1,-6.293253899E-1,3.747547865E-1
3.534902499E0,3.588727713E-1,-5.951179266E-1,5.714476109E-1
3.544616041E0,-4.779879749E-1,-4.582881629E-1,7.400414348E-1
3.554330364E0,-1.336839199E0,-3.629959822E-1,8.915315866E-1
3.564043853E0,-2.124832153E0,-1.931804419E-1,9.452861547E-1
3.573756457E0,-2.747896433E0,9.636115283E-2,8.976400495E-1
3.583469999E0,-3.122956514E0,3.445178568E-1,8.011261821E-1
3.593184270E0,-3.307432413E0,2.712161839E-1,6.826218367E-1
3.602897759E0,-3.440597296E0,-1.944021434E-1,5.543438792E-1
3.612610416E0,-3.618964672E0,-8.089144826E-1,4.639385045E-1
3.622323957E0,-3.847421408E0,-1.390441060E0,4.346178174E-1
3.632038228E0,-3.893845797E0,-1.879118919E0,4.504998624E-1
3.641751718E0,-3.594530582E0,-1.993958116E0,4.700469673E-1
3.651464374E0,-3.162050724E0,-1.468629479E0,6.105418205E-1
3.661177916E0,-3.041103125E0,-5.144860744E-1,8.976400495E-1
3.670892187E0,-3.278111696E0,2.137965411E-1,1.133427143E0
3.680605676E0,-3.601860762E0,4.556920528E-1,1.341115117E0
3.690318332E0,-3.755794287E0,6.047387719E-1,1.486496806E0
3.700031874E0,-3.655615330E0,6.975875497E-1,1.514595747E0
3.709746145E0,-3.493129969E0,3.665083647E-1,1.496270418E0
3.719459634E0,-3.344083309E0,-1.626380831E-1,1.415638566E0
3.729172239E0,-3.192593098E0,-6.305471063E-1,1.233605981E0
3.738885780E0,-3.045989752E0,-8.553388715E-1,1.073564053E0
3.748600051E0,-2.811424494E0,-7.026270628E-1,1.047908425E0
3.758313541E0,-2.441251040E0,-2.567085624E-1,1.139535546E0
3.768026197E0,-2.017323017E0,3.139754832E-1,1.187181592E0
3.777739739E0,-1.622715712E0,6.975875497E-1,1.061347127E0
3.787454009E0,-1.283084631E0,8.246437907E-1,8.817580342E-1
3.797167499E0,-9.520054460E-1,8.295305967E-1,7.192726731E-1
3.806880155E0,-5.488462448E-1,7.941014171E-1,5.250232220E-1
3.816593697E0,-6.139015034E-2,7.684458494E-1,3.148917556E-1
3.826307968E0,4.663818777E-1,7.403468490E-1,6.673506647E-2
3.836021457E0,9.782719016E-1,7.452336550E-1,-1.849340051E-1
3.845734062E0,1.474432588E0,7.989882231E-1,-3.791834414E-1
3.855447603E0,1.919129372E0,8.478559852E-1,-5.147915483E-1
3.865161874E0,2.281972647E0,8.258655071E-1,-6.076403260E-1
3.874875364E0,2.529976606E0,7.427902818E-1,-6.772769094E-1
3.884588020E0,2.637485743E0,6.181774139E-1,-7.139277458E-1
3.894301562E0,2.625268698E0,5.131117105E-1,-7.041541934E-1
3.904015832E0,2.586174488E0,5.179984570E-1,-7.065975666E-1
3.913729322E0,2.694905281E0,7.574505806E-1,-7.701256871E-1
3.923441926E0,2.977116823E0,1.134954214E0,-8.287670016E-1
3.933155468E0,3.184804916E0,1.265675545E0,-8.654178381E-1
3.942869739E0,3.040644884E0,1.402505279E0,-8.458707333E-1
3.952583228E0,2.501877546E0,1.740914702E0,-6.565080881E-1
3.962295884E0,1.793294787E0,1.573542595E0,-4.182776511E-1
3.972009426E0,8.157865405E-1,6.633801460E-1,-3.168770075E-1
3.981723697E0,-7.482878864E-2,-7.050704360E-1,-4.842491746E-1
3.991437187E0,-7.971556485E-2,-1.328134656E0,-7.395833135E-1
4.001149843E0,4.431696832E-1,-5.743491650E-1,-7.774558663E-1
4.010863384E0,9.611681700E-1,6.132906675E-1,-6.638382673E-1
4.020577655E0,1.414569497E0,7.696675658E-1,-7.884510756E-1
4.030291041E0,9.831586480E-1,-5.902311802E-1,-7.163711190E-1
4.040003749E0,1.597365588E-1,-2.100245476E0,-3.180987239E-1
4.049717291E0,4.978405312E-2,-2.141783237E0,-2.790044844E-1
4.059431562E0,6.642963886E-1,-1.406323075E0,-1.421747059E-1
4.069145051E0,1.498866439E0,-9.665130973E-1,1.718007922E-1
4.078857707E0,2.117043972E0,-1.012937427E0,1.730224788E-1
4.088571249E0,2.223331213E0,-1.269493341E0,-1.800472289E-1
4.098285520E0,1.849492788E0,-1.521162391E0,-5.551074743E-1
4.107999009E0,1.487871170E0,-1.668987393E0,-7.823426127E-1
4.117711614E0,1.462215662E0,-1.538266063E0,-8.153283596E-1
4.127425155E0,1.727323294E0,-9.897252917E-1,-6.565080881E-1
4.137139426E0,2.069397688E0,-1.882936656E-1,-4.537068009E-1
4.146852916E0,2.433462858E0,4.153761268E-1,-3.852919042E-1
4.156565572E0,2.898928404E0,7.476770282E-1,-4.256078303E-1
4.166279114E0,3.330186605E0,8.539644480E-1,-5.380037427E-1
4.175993384E0,3.504888773E0,8.038749695E-1,-6.357392669E-1
4.185706874E0,3.349733591E0,6.682668924E-1,-7.151494026E-1
4.195419478E0,2.979560137E0,4.239279926E-1,-8.263236284E-1
4.205133020E0,2.571514130E0,1.159082651E-1,-9.106205702E-1
4.214847291E0,2.200119019E0,-2.005106062E-1,-7.811209559E-1
4.224560780E0,1.871483326E0,-5.401417017E-1,-4.036173224E-1
4.234273437E0,1.498866439E0,-7.734853625E-1,3.008422814E-2
4.243986978E0,9.684983492E-1,-7.258392572E-1,4.333961308E-1
4.253701249E0,2.794626355E-1,-5.609105229E-1,7.449282408E-1
4.263414739E0,-5.121954083E-1,-5.706840754E-1,9.526162744E-1
4.273127343E0,-1.311183691E0,-7.038487792E-1,1.099219680E0
4.282840884E0,-2.025874853E0,-7.710419297E-1,1.179851532E0
4.292555155E0,-2.563420534E0,-6.647545099E-1,1.143200636E0
4.302268645E0,-2.906716585E0,-4.949389994E-1,1.038134933E0
4.311981301E0,-3.133951902E0,-4.851654470E-1,9.318475127E-1
4.321694791E0,-3.331866264E0,-7.062921524E-1,8.231166601E-1
4.331409114E0,-3.543219566E0,-1.054475069E0,7.375980616E-1
4.341122499E0,-3.768011332E0,-1.344016671E0,7.241594195E-1
4.350835207E0,-3.967147589E0,-1.508945465E0,7.876875401E-1
4.360548749E0,-3.857194901E0,-1.671430826E0,8.634325862E-1
4.370263020E0,-3.353856802E0,-1.445417285E0,8.670976758E-1
4.379976509E0,-2.977575064E0,-2.420482337E-1,9.232956171E-1
4.389689114E0,-3.243904352E0,1.305991411E0,1.123653531E0
4.399402655E0,-3.869411945E0,1.861862421E0,1.303242683E0
4.409116926E0,-4.161549568E0,1.478250384E0,1.372879267E0
4.418830416E0,-4.073434830E0,1.323095202E0,1.258039951E0
4.428543072E0,-4.003798485E0,1.363411069E0,1.129762053E0
4.438256614E0,-3.975699425E0,9.541434050E-1,1.205507040E0
4.447970884E0,-3.931718349E0,3.396310806E-1,1.397313118E0
4.457684270E0,-3.853529930E0,-8.811471611E-2,1.573237062E0
4.467396978E0,-3.634846687E0,-2.005106062E-1,1.722283840E0
4.477110520E0,-3.208475113E0,-1.198787764E-1,1.845674992E0
4.486824791E0,-2.662377834E0,1.134648770E-1,1.853005171E0
4.496538280E0,-2.141935825E0,4.459185004E-1,1.609887958E0
4.506250884E0,-1.689908981E0,6.694886088E-1,1.214058876E0
4.515964426E0,-1.247655511E0,7.207997441E-1,8.365553021E-1
4.525678697E0,-7.589777112E-1,7.036960125E-1,4.895940721E-1
4.535392187E0,-2.116585821E-1,7.134696245E-1,2.035648525E-1
4.545104843E0,3.698680103E-1,7.342383862E-1,-1.023169141E-2
4.554818332E0,9.465078115E-1,8.124268651E-1,-1.824906170E-1
4.564532603E0,1.464658976E0,9.859074950E-1,-3.229855001E-1
4.574246093E0,1.899582267E0,1.132510781E0,-4.573718905E-1
4.583958749E0,2.235548258E0,1.159388065E0,-5.587725043E-1
4.593672291E0,2.444458008E0,1.027445078E0,-6.271874309E-1
4.603386562E0,2.543415308E0,7.721109390E-1,-6.491779089E-1
4.613099947E0,2.598391533E0,5.021164417E-1,-6.223006248E-1
4.622812655E0,2.690018654E0,3.884988427E-1,-5.514423847E-1
4.632526197E0,2.876937866E0,5.485408306E-1,-5.013529062E-1
4.642240468E0,3.206795454E0,8.832851648E-1,-5.257867575E-1
4.651953957E0,3.630723476E0,1.082421303E0,-6.125270724E-1
4.661666562E0,3.892166138E0,1.511236072E0,-6.394043565E-1
4.671380103E0,3.671039343E0,2.372530699E0,-5.477772951E-1
4.681094374E0,2.972229958E0,2.721935272E0,-3.571929336E-1
4.690807864E0,1.792073131E0,1.960819721E0,-1.922641695E-1
4.700520468E0,3.222219348E-1,3.603998721E-1,-3.461976945E-1
4.710234009E0,-4.010212123E-1,-6.635328531E-1,-7.530219555E-1
4.719948280E0,-1.725643575E-1,-2.554868758E-1,-9.668185115E-1
4.729661770E0,5.653391480E-1,1.209477544E0,-8.202151656E-1
4.739374426E0,1.491536260E0,1.875301123E0,-7.456917763E-1
4.749087968E0,1.525743723E0,7.177455351E-3,-6.760551929E-1
4.758802187E0,5.360184908E-1,-2.478971004E0,-5.917583108E-1
4.768515676E0,-1.029277667E-1,-2.423994541E0,-6.015318632E-1
4.778228332E0,3.466558158E-1,-1.593242407E0,-2.179197669E-1
4.787941874E0,1.152974248E0,-1.466186166E0,4.883723855E-1
4.797656145E0,1.776191115E0,-1.904774427E0,8.487722874E-1
4.807369530E0,1.947228312E0,-2.334810972E0,7.009472251E-1
4.817082239E0,1.506196618E0,-2.659781694E0,3.234436214E-1
4.826795780E0,9.990406632E-1,-2.769734144E0,-3.222219273E-2
4.836510051E0,9.440644383E-1,-2.394674063E0,-2.899997234E-1
4.846223437E0,1.331494331E0,-1.555369854E0,-4.023956358E-1
4.855936145E0,1.935011387E0,-7.881456614E-1,-4.268295169E-1
4.865649687E0,2.638707399E0,-1.528645307E-1,-5.489989519E-1
4.875363957E0,3.304530859E0,4.605788291E-1,-7.627955079E-1
4.885077447E0,3.760222912E0,8.832851648E-1,-8.837432861E-1
4.894790051E0,3.890944242E0,1.166718245E0,-8.898517489E-1
4.904503593E0,3.689364672E0,1.335312128E0,-8.434273601E-1
4.914217864E0,3.233672619E0,1.297439575E0,-7.884510756E-1
4.923931353E0,2.699792147E0,1.045770526E0,-7.163711190E-1
4.933643957E0,2.217222929E0,6.719319820E-1,-5.514423847E-1
4.943357499E0,1.827502251E0,3.323009014E-1,-2.631224692E-1
4.953071770E0,1.555064440E0,7.314895838E-2,5.696150661E-2
4.962785259E0,1.243532300E0,3.161134571E-2,2.597627938E-1
4.972497864E0,7.522584200E-1,1.220167428E-1,3.271087110E-1
4.982211405E0,1.291942000E-1,9.147437662E-2,3.417690396E-1
4.991925676E0,-5.793886185E-1,-5.146388337E-2,3.710896969E-1
5.001639166E0,-1.328287363E0,-1.565296054E-1,4.443913698E-1
5.011351770E0,-2.036870241E0,-1.650814712E-1,5.384618640E-1
5.021065312E0,-2.637943983E0,-1.455343664E-1,6.019899845E-1
5.030779582E0,-3.122956514E0,-1.870719790E-1,5.848862529E-1
5.040493072E0,-3.487021685E0,-3.019112647E-1,5.225798488E-1
5.050205728E0,-3.738690615E0,-5.254813433E-1,5.054761171E-1
5.059919218E0,-3.974477768E0,-8.614473343E-1,5.702258945E-1
5.069633489E0,-4.163992882E0,-1.363563776E0,7.021689415E-1
5.079346978E0,-4.195756912E0,-1.802152157E0,8.341119289E-1
5.089059634E0,-3.918279648E0,-1.467407823E0,9.684983492E-1
5.098773124E0,-3.616521120E0,-2.078407854E-1,1.161526084E0
5.108487395E0,-3.708148241E0,1.170383334E0,1.378987670E0
5.118200884E0,-3.964704037E0,1.652952671E0,1.496270418E0
5.127913489E0,-3.987916231E0,1.215586066E0,1.475501537E0
5.137627030E0,-3.727695465E0,7.904363275E-1,1.245823026E0
5.147341301E0,-3.485799789E0,4.862344265E-1,8.451071978E-1
5.157054791E0,-3.499238491E0,-8.078455180E-2,5.702258945E-1
5.166767395E0,-3.620186329E0,-6.989619732E-1,5.189147592E-1
5.176480937E0,-3.636068344E0,-9.909469485E-1,5.812211633E-1
5.186195207E0,-3.469917774E0,-9.213103652E-1,7.070556879E-1
5.195908697E0,-3.125400066E0,-7.490514517E-1,8.658760190E-1
5.205621301E0,-2.691698551E0,-5.755708218E-1,1.001484036E0
5.215334843E0,-2.232341290E0,-3.361186981E-1,1.025918007E0
5.225049114E0,-1.769319057E0,-5.024218559E-2,9.074136019E-1
5.234762603E0,-1.287971497E0,2.186833173E-1,7.094991207E-1
5.244475207E0,-7.528692484E-1,4.618005157E-1,4.566083252E-1
5.254188749E0,-1.664558798E-1,6.633801460E-1,2.084516287E-1
5.263903020E0,4.040754735E-1,8.295305967E-1,-9.009997360E-3
5.273616509E0,9.147437811E-1,9.187142849E-1,-1.702736765E-1
5.283329114E0,1.381583810E0,9.187142849E-1,-2.765611112E-1
5.293042655E0,1.806733489E0,9.064973593E-1,-3.584146202E-1
5.302756926E0,2.143921137E0,9.358180165E-1,-3.877353072E-1
5.312470416E0,2.350387573E0,9.736905098E-1,-3.486410677E-1
5.322183020E0,2.443236351E0,9.419264793E-1,-2.851129472E-1
5.331896562E0,2.445679665E0,7.757760286E-1,-2.619007528E-1
5.341610832E0,2.417580843E0,4.996730685E-1,-2.606790662E-1
5.351324218E0,2.456675053E0,3.469612300E-1,-2.447970361E-1
5.361036926E0,2.658254623E0,5.143333673E-1,-2.765611112E-1
5.370750468E0,2.953904629E0,9.407047629E-1,-3.877353072E-1
5.380464739E0,3.182361603E0,1.425717473E0,-5.123481154E-1
5.390178124E0,3.230007648E0,1.747023106E0,-6.088619828E-1
5.399890832E0,3.013767719E0,1.733584523E0,-6.345176101E-1
5.409604374E0,2.411472321E0,1.308434844E0,-6.479562521E-1
5.419318593E0,1.442668557E0,3.799470067E-1,-7.762341499E-1
5.429032082E0,5.897729993E-1,-4.546230733E-1,-1.095096469E0
5.438744739E0,3.112266660E-1,-4.998257756E-1,-1.416402102E0
5.448458228E0,6.642963886E-1,-1.418692768E-1,-1.503142357E0
5.458172499E0,1.297286868E0,8.869501948E-1,-1.532463074E0
5.467885989E0,1.243532300E0,2.089097738E0,-1.533684731E0
5.477598645E0,3.307738006E-1,2.761029601E-1,-9.411629438E-1
5.487312134E0,-1.408002973E-1,-2.624352455E0,-2.899997234E-1
5.497026405E0,-2.250972092E-1,-3.734872818E0,-3.222219273E-2
5.506739895E0,8.765657991E-2,-3.367142916E0,3.930802047E-1
5.516452499E0,6.019899845E-1,-2.432546616E0,8.108997345E-1
5.526166041E0,9.794935584E-1,-1.852241635E0,9.159654379E-1
5.535880312E0,1.305838704E0,-1.695864677E0,7.424848676E-1
5.545593801E0,1.514748454E0,-1.521162391E0,4.138490260E-1
5.555306405E0,1.619814277E0,-1.291483760E0,1.498102844E-1
5.565019947E0,1.723658204E0,-1.107007980E0,3.130592033E-2
5.574734218E0,1.958223581E0,-7.563816309E-1,-9.575030953E-2
5.584447603E0,2.368712902E0,-2.041756958E-1,-3.962871730E-1
5.594160312E0,2.916032076E0,3.750602305E-1,-7.847860456E-1
5.603873853E0,3.512218952E0,8.710681796E-1,-1.150072694E0
5.613588124E0,3.933703661E0,1.176491857E0,-1.325996637E0
5.623301509E0,4.025330544E0,1.304769754E0,-1.329661727E0
5.633014218E0,3.796873808E0,1.257123709E0,-1.310114622E0
5.642727707E0,3.381497622E0,1.033553600E0,-1.271020412E0
5.652441978E0,2.887933016E0,7.171346545E-1,-1.134190679E0
5.662155468E0,2.433462858E0,4.385883212E-1,-8.715263009E-1
5.671868072E0,2.066954374E0,1.844758689E-1,-4.744756222E-1
5.681581614E0,1.756644011E0,-1.359135192E-2,-5.054761097E-2
5.691295884E0,1.413347840E0,4.871506989E-2,2.867927849E-1
5.701009374E0,9.807152748E-1,3.286358118E-1,4.895940721E-1
5.710721978E0,4.932591617E-1,4.850127101E-1,5.445703268E-1
5.720435520E0,-7.360709459E-2,3.432961702E-1,5.103628635E-1
5.730149791E0,-7.430956960E-1,-1.114796288E-2,4.847072959E-1
5.739863280E0,-1.450456858E0,-3.605526090E-1,5.066977739E-1
5.749575884E0,-2.096733332E0,-5.548020005E-1,5.555655956E-1
5.759289426E0,-2.628170252E0,-5.951179266E-1,5.763344169E-1
5.769003697E0,-3.056985140E0,-6.195518374E-1,5.531222224E-1
5.778717082E0,-3.411276579E0,-7.576032877E-1,4.920374751E-1
5.788429791E0,-3.733803988E0,-9.494093657E-1,4.700469673E-1
5.798143332E0,-4.039227486E0,-1.186418056E0,5.641174316E-1
5.807857551E0,-4.233629704E0,-1.548039675E0,7.473716140E-1
5.817571041E0,-4.233629704E0,-1.769166350E0,9.294040799E-1
5.827283697E0,-4.081986904E0,-1.480846524E0,1.099219680E0
5.836997187E0,-3.875520468E0,-6.525375843E-1,1.317902923E0
5.846711457E0,-3.892624140E0,1.159082651E-1,1.518260837E0
5.856424947E0,-3.996468306E0,4.898995161E-1,1.497492075E0
5.866137551E0,-3.964704037E0,8.185353279E-1,1.277587056E0
5.875851093E0,-3.897511005E0,1.130067468E0,1.029583097E0
5.885565364E0,-3.875520468E0,9.407047629E-1,9.342908859E-1
5.895278853E0,-3.842534781E0,3.481829464E-1,9.831586480E-1
5.904991457E0,-3.791223526E0,-1.931804419E-1,1.063790560E0
5.914704999E0,-3.697153091E0,-4.118637741E-1,1.140757203E0
5.924419270E0,-3.449149132E0,-3.019112647E-1,1.196955204E0
5.934132655E0,-3.054541826E0,5.955760833E-3,1.237271070E0
5.943845364E0,-2.604958057E0,4.227063060E-1,1.231162667E0
5.953558905E0,-2.150487661E0,7.537854910E-1,1.096776247E0
5.963273176E0,-1.694795728E0,8.674030900E-1,8.487722874E-1
5.972986562E0,-1.211004734E0,7.953231335E-1,5.824428797E-1
5.982699270E0,-6.930062175E-1,6.487197876E-1,3.283303976E-1
5.992412759E0,-1.640124917E-1,5.241069198E-1,1.021642014E-1
6.002127030E0,3.710896969E-1,4.679090083E-1,-8.108997345E-2
6.011840520E0,8.903098702E-1,5.241069198E-1,-2.179197669E-1
6.021553124E0,1.342489600E0,7.024743557E-1,-3.303156495E-1
6.031266666E0,1.712663054E0,8.930587173E-1,-4.182776511E-1
6.040980937E0,2.005869627E0,9.785773158E-1,-4.683671296E-1
6.050694426E0,2.189123869E0,9.016105533E-1,-4.708105326E-1
6.060407030E0,2.252651930E0,6.817055345E-1,-4.341596961E-1
6.070120572E0,2.256317139E0,4.007157981E-1,-3.901786804E-1
6.079834843E0,2.317401886E0,2.309002578E-1,-3.730749488E-1
6.089548228E0,2.554410458E0,4.300364852E-1,-4.292729199E-1
6.099260937E0,2.952682972E0,1.012784719E0,-5.929799676E-1
6.108974478E0,3.374167442E0,1.584537745E0,-7.273663878E-1
6.118688749E0,3.603846073E0,1.922947168E0,-6.784985662E-1
6.128402134E0,3.385162830E0,2.219818830E0,-5.037962794E-1
6.138114843E0,2.765763760E0,2.234479189E0,-3.962871730E-1
6.147828384E0,1.826280594E0,1.678608298E0,-4.427115619E-1
6.157542603E0,7.143858671E-1,5.485408306E-1,-6.846070886E-1
6.167256093E0,9.254335612E-2,-7.038487792E-1,-9.374978542E-1
6.176968697E0,1.450762302E-1,-9.689564705E-1,-1.046228647E0
6.186682239E0,5.360184908E-1,-5.879404768E-2,-1.004691005E0
6.196396509E0,1.023474574E0,7.171346545E-1,-1.046228647E0
6.206109999E0,6.325323582E-1,-3.104631305E-1,-9.778137207E-1
6.215822603E0,-1.298050433E-1,-2.822267056E0,-8.141067028E-1
6.225536145E0,-1.236965731E-1,-4.021971226E0,-9.509364963E-1
6.235250416E0,4.248442650E-1,-3.237643242E0,-7.481352091E-1
6.244963801E0,1.148087382E0,-2.259065866E0,-1.971509457E-1
6.254676509E0,1.661351800E0,-1.952420592E0,2.292204350E-1
6.264390051E0,1.737096906E0,-1.870566964E0,2.267770469E-1
6.274104270E0,1.564837933E0,-1.893779159E0,4.230117425E-2
6.283817759E0,1.399909258E0,-2.033052444E0,-1.055238619E-1
6.293530416E0,1.236202121E0,-1.998844981E0,-9.697200358E-2
6.303243905E0,1.227650285E0,-1.495506763E0,-3.466558084E-2
6.312958176E0,1.536738992E0,-7.282826304E-1,-5.665608495E-2
6.322671666E0,1.966775417E0,-1.039967462E-1,-1.959292591E-1
6.332384270E0,2.462783337E0,3.701734245E-1,-4.390464723E-1
6.342097812E0,2.942909479E0,6.548282504E-1,-7.322531343E-1
6.351812082E0,3.255663157E0,7.684458494E-1,-9.265025854E-1
6.361525572E0,3.299644232E0,7.317950130E-1,-1.014464617E0
6.371238176E0,3.074852467E0,5.265503526E-1,-1.046228647E0
6.380951718E0,2.666806459E0,2.480039895E-1,-1.029124975E0
6.390665989E0,2.194010735E0,-2.458660305E-2,-9.240592122E-1
6.400379374E0,1.782299638E0,-2.273878902E-1,-6.125270724E-1
6.410092082E0,1.496423125E0,-3.605526090E-1,-1.592784226E-1
6.419805572E0,1.252084136E0,-3.788780272E-1,1.889045089E-1
6.429519843E0,8.499939442E-1,-3.226800561E-1,3.930802047E-1
6.439233332E0,2.086043358E-1,-3.300102353E-1,5.030327439E-1
6.448945989E0,-5.464028716E-1,-4.204156399E-1,6.080984473E-1
6.458659478E0,-1.267202616E0,-4.216373265E-1,7.547017932E-1
6.468373749E0,-1.870719671E0,-2.237228155E-1,9.220739603E-1
6.478087239E0,-2.330076933E0,4.138490185E-2,1.052795291E0
6.487799843E0,-2.673372984E0,1.356080920E-1,1.102884769E0
6.497513384E0,-2.993457079E0,-8.933641016E-2,1.050351858E0
6.507227655E0,-3.368517160E0,-5.254813433E-1,9.880454540E-1
6.516941041E0,-3.766789675E0,-9.750649333E-1,9.868237376E-1
6.526653749E0,-3.904841185E0,-1.438087106E0,1.030804753E0
6.536367291E0,-3.616521120E0,-1.697086453E0,1.063790560E0
6.546081509E0,-3.225579023E0,-1.212073684E0,1.095554590E0
6.555794999E0,-3.259786367E0,2.565558553E-1,1.203063726E0
6.565507655E0,-3.697153091E0,1.434269309E0,1.369214177E0
6.575221145E0,-4.066104889E0,1.299883008E0,1.589119196E0
6.584935416E0,-4.045335770E0,8.661814332E-1,1.756491303E0
6.594648905E0,-3.768011332E0,8.331956863E-1,1.750382781E0
6.604361509E0,-3.539554358E0,9.028322697E-1,1.613553047E0
6.614075051E0,-3.449149132E0,6.462764144E-1,1.540251374E0
6.623789322E0,-3.363630533E0,1.207950488E-1,1.468171358E0
6.633502707E0,-3.192593098E0,-2.933593988E-1,1.341115117E0
6.643215416E0,-2.923820496E0,-3.312319219E-1,1.218945742E0
6.652928957E0,-2.542651653E0,-6.612421572E-2,1.161526084E0
6.662643176E0,-2.127275467E0,3.261924386E-1,1.139535546E0
6.672356666E0,-1.719229579E0,7.391251922E-1,1.039356589E0
6.682069322E0,-1.320957184E0,1.068982720E0,8.353336453E-1
6.691782812E0,-8.701519370E-1,1.237576604E0,6.105418205E-1
6.701497082E0,-3.399364948E-1,1.251015186E0,3.698680103E-1
6.711210572E0,2.342599183E-1,1.186265349E0,1.217113137E-1
6.720923176E0,8.206732869E-1,1.112963676E0,-1.299577504E-1
6.730636718E0,1.403574347E0,1.131289124E0,-3.608580232E-1
6.740350989E0,1.913020849E0,1.259567022E0,-5.025745630E-1
6.750064374E0,2.274642467E0,1.475806952E0,-5.599942207E-1
6.759777082E0,2.461561680E0,1.652952671E0,-5.893148780E-1
6.769490624E0,2.526311636E0,1.623632073E0,-6.076403260E-1
6.779204843E0,2.521424770E0,1.426939249E0,-6.125270724E-1
6.788918332E0,2.476222038E0,1.163053155E0,-5.819846988E-1
6.798630989E0,2.470113516E0,9.639169574E-1,-4.854708612E-1
6.808344478E0,2.696127176E0,1.067761064E0,-3.510844707E-1
6.818058749E0,3.206795454E0,1.408613801E0,-2.423536479E-1
6.827772239E0,3.646605492E0,1.751909971E0,-1.739387512E-1
6.837484843E0,3.651492119E0,2.041451454E0,-1.079672500E-1
6.847198384E0,3.227564096E0,2.101314545E0,-7.864658535E-2
6.856912655E0,2.520203114E0,1.976701736E0,-1.104106456E-1
6.866626041E0,1.654021621E0,1.590646267E0,-2.887780368E-1
6.876338749E0,8.964183331E-1,6.572716236E-1,-6.626165509E-1
6.886052291E0,5.323534012E-1,-4.607315361E-1,-1.107313395E0
6.895766509E0,8.451071978E-1,-9.970554113E-1,-1.374864459E0
6.905479999E0,1.449998736E0,-5.218162537E-1,-1.354095697E0
6.915192655E0,1.750535488E0,2.663294077E-1,-1.299119353E0
6.924906145E0,1.244753957E0,-1.455343664E-1,-1.365090966E0
6.934620416E0,-3.191677034E-1,-2.299381733E0,-1.187945247E0
6.944333801E0,-8.640434742E-1,-3.501529217E0,-9.472714067E-1
6.954046509E0,-2.458660156E-1,-2.671998739E0,-6.332958937E-1
6.963760051E0,3.674246371E-1,-2.141783237E0,2.231119573E-1
6.973474322E0,1.188403368E0,-1.449082375E0,8.243383765E-1
6.983187707E0,1.936233044E0,-1.076465607E0,7.608102560E-1
6.992900416E0,2.016865015E0,-1.504058719E0,3.258870244E-1
7.002613957E0,1.646691442E0,-1.980519533E0,-7.620319724E-2
7.012328176E0,1.509861708E0,-2.183320761E0,-3.119902313E-1
7.022041666E0,1.680898905E0,-1.766723037E0,-3.156553209E-1
7.031754270E0,1.958223581E0,-8.211314082E-1,-1.079672500E-1
7.041467812E0,2.247765303E0,-4.169032723E-2,4.230117425E-2
7.051182082E0,2.489660740E0,2.834331393E-1,-1.177408099E-1
7.060895572E0,2.732777834E0,5.399889946E-1,-4.219427407E-1
7.070608176E0,3.008880854E0,7.684458494E-1,-7.395833135E-1
7.080321718E0,3.234894276E0,8.393041492E-1,-8.984035850E-1
7.090035989E0,3.216568947E0,6.377245188E-1,-9.423846006E-1
7.099749374E0,2.922140598E0,3.469612300E-1,-9.692618847E-1
7.109462082E0,2.488439083E0,1.572931744E-2,-9.032903910E-1
7.119175572E0,2.054737568E0,-2.725905776E-1,-6.980457306E-1
7.128889843E0,1.623479247E0,-5.596888065E-1,-3.584146202E-1
7.138603332E0,1.095554590E0,-9.115368128E-1,6.795676053E-2
7.148315937E0,3.906368315E-1,-9.433009028E-1,4.272876680E-1
7.158029478E0,-3.839175105E-1,-7.576032877E-1,6.594096422E-1
7.167743749E0,-1.085170150E0,-6.146650314E-1,8.524373770E-1
7.177457239E0,-1.680135369E0,-4.876088202E-1,1.024696231E0
7.187169843E0,-2.179808378E0,-2.652604282E-1,1.088224411E0
7.196883384E0,-2.579302549E0,3.894151375E-2,1.003927469E0
7.206597655E0,-2.905494928E0,2.443388999E-1,8.670976758E-1
7.216311041E0,-3.182819605E0,2.504473627E-1,7.461498976E-1
7.226023749E0,-3.473582983E0,5.482354015E-2,6.557445526E-1
7.235737239E0,-3.787558317E0,-2.835858464E-1,6.398624778E-1
7.245451509E0,-4.097868919E0,-7.368345261E-1,7.314895988E-1
7.255164999E0,-4.256841660E0,-1.290262103E0,9.013051391E-1
7.264877603E0,-4.085651875E0,-1.681204319E0,1.066233873E0
7.274591145E0,-3.722808599E0,-1.236507535E0,1.236049414E0
7.284305416E0,-3.557879925E0,4.092676640E-1,1.414416790E0
7.294018905E0,-3.892624140E0,1.786117435E0,1.568350315E0
7.303731509E0,-4.363129139E0,1.902178407E0,1.669750929E0
7.313445051E0,-4.486520290E0,1.550330400E0,1.605001211E0
7.323159322E0,-4.234851360E0,1.490467310E0,1.389982939E0
7.332872707E0,-3.875520468E0,1.371962905E0,1.117545009E0
7.342585416E0,-3.638511658E0,8.747332692E-1,9.220739603E-1
7.352298957E0,-3.488243341E0,3.213056624E-1,8.475505710E-1
7.362013228E0,-3.340418339E0,-5.146388337E-2,8.732061386E-1
7.371726614E0,-3.126621723E0,-5.879404768E-2,9.697200060E-1
7.381439322E0,-2.768665314E0,1.783674061E-1,1.110214949E0
7.391152812E0,-2.310529709E0,4.740174711E-1,1.218945742E0
7.400867082E0,-1.815743446E0,8.063184023E-1,1.177408099E0
7.410580572E0,-1.325843930E0,1.042105436E0,9.538379908E-1
7.420293228E0,-8.347227573E-1,1.110520363E0,6.777350307E-1
7.430006718E0,-3.069507480E-1,1.086086392E0,4.199574888E-1
7.439720989E0,2.660239935E-1,1.014006495E0,1.986780763E-1
7.449434478E0,8.341119289E-1,8.955020905E-1,1.985253533E-3
7.459147082E0,1.309503794E0,7.611156702E-1,-1.433963925E-1
7.468860624E0,1.649134874E0,6.389462352E-1,-2.521272004E-1
7.478574895E0,1.898360610E0,5.387672782E-1,-3.584146202E-1
7.488288280E0,2.104826927E0,4.508052766E-1,-4.634803534E-1
7.498000989E0,2.295411348E0,3.310792148E-1,-5.392253995E-1
7.507714530E0,2.453009844E0,2.125748396E-1,-5.599942207E-1
7.517428749E0,2.576400995E0,1.734806150E-1,-5.331169367E-1
7.527142239E0,2.777980566E0,3.628432751E-1,-5.013529062E-1
7.536854895E0,3.184804916E0,8.893936276E-1,-4.598152637E-1
7.546568384E0,3.685699701E0,1.330425382E0,-4.097257853E-1
7.556282655E0,4.015557289E0,1.525896430E0,-3.571929336E-1
7.565996145E0,3.926373482E0,1.737249613E0,-3.071034551E-1
7.575708749E0,3.376610994E0,1.725032687E0,-2.728960216E-1
7.585422291E0,2.388260126E0,1.235133171E0,-2.582356930E-1
7.595136562E0,1.172521353E0,4.749337584E-2,-3.755183518E-1
7.604850051E0,2.794626355E-1,-1.431978703E0,-7.127060294E-1
7.614562655E0,5.711421743E-2,-2.149113417E0,-1.114643574E0
7.624276197E0,3.527642787E-1,-1.781383276E0,-1.245364904E0
7.633990468E0,8.793146014E-1,-8.993198872E-1,-1.224596024E0
7.643703853E0,1.017366052E0,-3.434488773E-1,-1.118308663E0
7.653416562E0,5.543438792E-1,-1.130220175E0,-7.750124335E-1
7.663130103E0,5.360184908E-1,-1.621341348E0,-7.334748507E-1
7.672844374E0,7.754706144E-1,-1.687312841E0,-6.320741773E-1
7.682557759E0,1.163969398E0,-1.772831440E0,-3.376458287E-1
7.692270468E0,1.666238666E0,-2.055042982E0,-3.588727489E-2
7.701984009E0,1.966775417E0,-2.128344536E0,8.994726092E-2
7.711698228E0,1.977770686E0,-1.993958116E0,1.412584335E-1
7.721411718E0,1.801846743E0,-1.870566964E0,1.351499557E-1
7.731124374E0,1.621035933E0,-1.952420592E0,3.206948051E-3
7.740837864E0,1.528187156E0,-2.135674715E0,-1.140757278E-1
7.750552134E0,1.555064440E0,-1.859571815E0,-8.108997345E-2
7.760265624E0,1.818950415E0,-1.150988936E0,-1.751604527E-1
7.769978228E0,2.262425423E0,-5.890094638E-1,-3.999522328E-1
7.779691770E0,2.791419268E0,-1.699682474E-1,-6.565080881E-1
7.789406041E0,3.293535709E0,3.518480062E-1,-9.216157794E-1
7.799119530E0,3.649048805E0,8.649597168E-1,-1.080436110E0
7.808832134E0,3.718685389E0,1.164274931E0,-1.119530320E0
7.818545676E0,3.492671967E0,1.213142633E0,-1.065775752E0
7.828259947E0,3.051640272E0,9.565867782E-1,-9.265025854E-1
7.837973437E0,2.464005232E0,3.982724249E-1,-6.870504618E-1
7.847686041E0,1.761530757E0,-2.860292196E-1,-3.071034551E-1
7.857399582E0,1.029583097E0,-1.036149621E0,1.107160673E-1
7.867113853E0,3.087832928E-1,-1.615232825E0,4.492781460E-1
7.876827239E0,-4.193466306E-1,-1.721520305E0,7.327113152E-1
7.886539947E0,-1.142589808E0,-1.419761777E0,9.208522439E-1
7.896253437E0,-1.794974685E0,-9.384140968E-1,1.003927469E0
7.905967707E0,-2.305643082E0,-3.373403847E-1,9.843803644E-1
7.915681197E0,-2.630613804E0,3.066453338E-1,8.316685557E-1
7.925393853E0,-2.843188524E0,7.403468490E-1,6.276455522E-1
7.935107343E0,-3.044768095E0,8.063184023E-1,4.663818777E-1
7.944821614E0,-3.275668383E0,4.581354558E-1,3.723114133E-1
7.954535103E0,-3.537111044E0,-1.650814712E-1,3.747547865E-1
7.964247707E0,-3.847421408E0,-7.905890942E-1,4.627167881E-1
7.973961249E0,-4.055109501E0,-1.325691223E0,5.897729993E-1
7.983675520E0,-3.815657377E0,-1.660435557E0,6.618530154E-1
7.993389009E0,-3.234130859E0,-1.418540001E0,6.948387623E-1
8.003101614E0,-2.978796721E0,-1.736333370E-1,9.061918855E-1
8.012815155E0,-3.436932087E0,1.497797489E0,1.212837219E0
8.022529426E0,-3.897511005E0,1.922947168E0,1.352110386E0
8.032242916E0,-3.975699425E0,1.689603567E0,1.272700310E0
8.041955520E0,-3.964704037E0,1.987697005E0,1.058903694E0
8.051669062E0,-3.925609827E0,2.084210873E0,9.941539168E-1
8.061383332E0,-3.822987556E0,1.595533013E0,1.159082651E0
8.071096718E0,-3.660502195E0,9.358180165E-1,1.315459609E0
8.080809426E0,-3.419828415E0,3.848337829E-1,1.370435834E0
8.090522968E0,-3.077754021E0,6.215370819E-2,1.381431103E0
8.100237239E0,-2.663599491E0,2.794626169E-2,1.403421521E0
8.109950624E0,-2.223789454E0,2.932066917E-1,1.367992401E0
8.119663332E0,-1.786422849E0,6.413896084E-1,1.199398637E0
8.129376874E0,-1.380820274E0,7.794411182E-1,9.587247968E-1
8.139091093E0,-9.666658044E-1,7.342383862E-1,7.290462255E-1
8.148804582E0,-5.121954083E-1,6.413896084E-1,5.066977739E-1
8.158517239E0,-2.229592577E-2,5.778614879E-1,2.770192325E-1
8.168230728E0,4.895940721E-1,5.534276366E-1,4.718795046E-2
8.177944999E0,9.904888272E-1,5.522059202E-1,-1.311794519E-1
8.187658489E0,1.408461094E0,5.387672782E-1,-2.912214398E-1
8.197371093E0,1.750535488E0,4.642439187E-1,-4.341596961E-1
8.207084634E0,2.014421463E0,3.286358118E-1,-5.380037427E-1
8.216798905E0,2.179350376E0,2.028012872E-1,-6.174138784E-1
8.226512395E0,2.273420811E0,1.612636745E-1,-6.540647149E-1
8.236224999E0,2.366269588E0,2.870981991E-1,-6.479562521E-1
8.245938541E0,2.578844309E0,6.927008033E-1,-6.394043565E-1
8.255652812E0,3.054083586E0,1.358524323E0,-6.601731777E-1
8.265366197E0,3.688143015E0,1.761683464E0,-6.467345357E-1
8.275078905E0,4.162160397E0,1.876522779E0,-5.709894896E-1
8.284792447E0,4.075420380E0,2.263799906E0,-4.976878166E-1
8.294506666E0,3.371724129E0,2.525242567E0,-4.219427407E-1
8.304220155E0,2.202562571E0,1.942494273E0,-2.802261710E-1
8.313932812E0,7.217160463E-1,5.216635466E-1,-2.814478874E-1
8.323646353E0,-2.250972092E-1,-8.113578558E-1,-5.783196688E-1
8.333360572E0,-6.383354217E-2,-1.103342891E0,-8.348754644E-1
8.343074062E0,5.128062963E-1,-2.701472044E-1,-7.334748507E-1
8.352786666E0,1.157860994E0,5.375455618E-1,-6.675033569E-1
8.362500207E0,1.669903636E0,-2.786990702E-1,-8.959602118E-1
8.372214478E0,6.752916574E-1,-2.745300293E0,-6.247440577E-1
8.381927968E0,-1.041494608E-1,-3.418453932E0,-7.689039707E-1
8.391640572E0,2.391466945E-1,-2.155221939E0,-8.959602118E-1
8.401354114E0,1.104106426E0,-1.518718958E0,-4.940227270E-1
8.411068384E0,1.759087443E0,-1.989071369E0,5.573981255E-2
8.420781874E0,2.110935450E0,-2.860139608E0,1.094943732E-1
8.430494478E0,1.924016118E0,-3.110586882E0,-1.336228400E-1
8.440208020E0,1.429229856E0,-2.828375578E0,-2.264716178E-1
8.449922291E0,1.289956689E0,-2.772177458E0,-1.849340051E-1
8.459635676E0,1.643026471E0,-2.273726225E0,-1.067455560E-1
8.469348384E0,2.117043972E0,-1.175422788E0,-1.030804738E-1
8.479061926E0,2.589839697E0,-3.935383558E-1,-3.962871730E-1
8.488776145E0,3.098064661E0,1.330119967E-1,-8.397622705E-1
8.498489634E0,3.512218952E0,6.047387719E-1,-1.212379098E0
8.508202291E0,3.707690239E0,1.077534556E0,-1.347987175E0
8.517915780E0,3.631945133E0,1.331647038E0,-1.315001488E0
8.527630051E0,3.295979023E0,1.243685007E0,-1.238034725E0
8.537343541E0,2.773093939E0,9.553651214E-1,-1.103648305E0
8.547056145E0,2.216001034E0,6.927008033E-1,-8.214368224E-1
8.556769687E0,1.713884711E0,4.715740979E-1,-3.962871730E-1
8.566483957E0,1.252084136E0,1.942494214E-1,6.062658876E-2
8.576197447E0,7.412631512E-1,-2.139492482E-1,4.370612204E-1
8.585910051E0,6.688777357E-2,-6.659762263E-1,7.559235096E-1
8.595623593E0,-7.675296068E-1,-1.049588323E0,1.028361320E0
8.605337864E0,-1.584843159E0,-1.218182087E0,1.229941010E0
8.615051353E0,-2.243336678E0,-1.031262875E0,1.316681266E0
8.624763957E0,-2.727127552E0,-5.389199853E-1,1.293469071E0
8.634477499E0,-3.078975677E0,-2.214321308E-2,1.209172130E0
8.644191770E0,-3.369738817E0,2.137965411E-1,1.115101695E0
8.653905155E0,-3.665389061E0,7.925742865E-2,1.036913276E0
8.663617864E0,-4.024567127E0,-3.532224298E-1,1.023474574E0
8.673331353E0,-4.316704750E0,-1.078908920E0,1.076007485E0
8.683045624E0,-4.183540344E0,-1.583468795E0,1.080894232E0
8.692759114E0,-3.480913162E0,-1.139993668E0,1.032026410E0
8.702471770E0,-2.799207449E0,1.368297935E-1,1.010035992E0
8.712185259E0,-2.812646151E0,1.776343822E0,1.025918007E0
8.721899530E0,-3.308654070E0,2.613204479E0,1.021031141E0
8.731613020E0,-3.752129316E0,2.290677309E0,1.060125470E0
8.741325624E0,-3.910949469E0,1.838650227E0,1.256818295E0
8.751039166E0,-3.800997019E0,1.545443535E0,1.427855492E0
8.760753437E0,-3.611634493E0,1.061652541E0,1.347223639E0
8.770466822E0,-3.495573521E0,4.349232614E-1,1.045465112E0
8.780179530E0,-3.401502848E0,5.482354015E-2,7.522584200E-1
8.789893072E0,-3.245126009E0,-4.535540938E-2,6.459710002E-1
8.799607343E0,-3.006895542E0,-1.725643501E-2,7.204943299E-1
8.809320728E0,-2.718575716E0,-2.092151903E-2,8.707627654E-1
8.819033437E0,-2.452246428E0,-9.666658193E-2,9.917105436E-1
8.828746926E0,-2.205464125E0,-1.284306347E-1,9.623898268E-1
8.838461197E0,-1.942799687E0,-1.418692768E-1,8.267817497E-1
8.848174687E0,-1.592173338E0,-1.101052165E-1,6.618530154E-1
8.857887343E0,-1.108382344E0,5.971032009E-2,4.688252807E-1
8.867600832E0,-5.219689608E-1,2.809897363E-1,2.292204350E-1
8.877315103E0,9.987352788E-2,4.165978432E-1,-7.864658535E-2
8.887028593E0,7.241594195E-1,5.314370990E-1,-3.962871730E-1
8.896741197E0,1.324164152E0,6.755970716E-1,-6.235223413E-1
8.906454739E0,1.864153147E0,7.782194018E-1,-7.591304183E-1
8.916169009E0,2.294189692E0,7.916580439E-1,-8.397622705E-1
8.925882395E0,2.569070816E0,7.134696245E-1,-8.532009125E-1
8.935595103E0,2.692461967E0,6.279509664E-1,-8.006680608E-1
8.945308645E0,2.751103401E0,5.570927262E-1,-6.931589246E-1
8.955022864E0,2.867164373E0,6.438329816E-1,-5.783196688E-1
8.964736353E0,3.134715319E0,9.614735842E-1,-5.587725043E-1
8.974449009E0,3.452356100E0,1.332868695E0,-6.235223413E-1
8.984162499E0,3.672261000E0,1.567434072E0,-6.406260729E-1
8.993876770E0,3.620949745E0,1.595533013E0,-5.832064152E-1
9.003590259E0,3.230007648E0,1.479472041E0,-4.695888162E-1
9.013302864E0,2.521424770E0,1.127624035E0,-3.290939629E-1
9.023016405E0,1.487871170E0,3.335226178E-1,-3.926220834E-1
9.032730676E0,5.311316848E-1,-5.963396430E-1,-7.860077024E-1
9.042444166E0,3.454341292E-1,-7.478297353E-1,-1.296676040E0
9.052156770E0,8.780929446E-1,-7.345438004E-2,-1.481151938E0
9.061870312E0,1.595380306E0,9.773555994E-1,-1.465269804E0
9.071584582E0,1.426786542E0,1.524674773E0,-1.357760787E0
9.081297968E0,-1.872246861E-1,-3.495573401E-1,-5.978667736E-1
9.091010676E0,-5.012001991E-1,-2.737970114E0,-6.642963737E-2
9.100724166E0,-6.505523622E-2,-3.521076202E0,1.681357026E-1
9.110438437E0,5.616740584E-1,-2.332367659E0,3.246653080E-1
9.120151926E0,1.313168883E0,-1.698308110E0,3.796415627E-1
9.129864582E0,1.601488829E0,-1.809482336E0,3.008422814E-2
9.139578072E0,1.501309872E0,-2.001288414E0,-4.109475017E-1
9.149292343E0,1.434116602E0,-2.004953384E0,-5.807630420E-1
9.159005832E0,1.439003468E0,-1.744732499E0,-4.158342779E-1
9.168718437E0,1.503753185E0,-1.486954927E0,-1.030804738E-1
9.178431978E0,1.712663054E0,-1.099677801E0,4.428642802E-3
9.188146249E0,2.087723255E0,-4.778352678E-1,-1.030804738E-1
9.197859634E0,2.624047041E0,5.726693198E-2,-3.217637837E-1
9.207572343E0,3.230007648E0,3.530697227E-1,-6.003101468E-1
9.217285832E0,3.620949745E0,3.836120665E-1,-8.263236284E-1
9.227000103E0,3.611176252E0,2.785463631E-1,-9.802571535E-1
9.236713593E0,3.288648844E0,8.170082420E-2,-1.128082156E0
9.246426197E0,2.878159523E0,-1.236965694E-2,-1.236812949E0
9.256139739E0,2.521424770E0,-4.413371533E-2,-1.120751977E0
9.265854009E0,2.168354988E0,-1.394258887E-1,-6.565080881E-1
9.275567499E0,1.770082593E0,-3.165715933E-1,-6.520794332E-2
9.285280103E0,1.289956689E0,-4.949389994E-1,3.478775024E-1
9.294993645E0,6.814001203E-1,-6.256603003E-1,5.897729993E-1
9.304707916E0,-2.473931387E-2,-7.062921524E-1,7.974610925E-1
9.314421301E0,-7.540909648E-1,-6.403206587E-1,1.039356589E0
9.324134009E0,-1.446791768E0,-4.595098495E-1,1.227497578E0
9.333847499E0,-2.049087048E0,-1.601946950E-1,1.258039951E0
9.343561770E0,-2.523104668E0,2.113531530E-1,1.143200636E0
9.353275259E0,-2.845631838E0,4.752391577E-1,9.440644383E-1
9.362987864E0,-3.103409529E0,5.118899941E-1,7.180509567E-1
9.372701405E0,-3.410054922E0,2.394521236E-1,5.641174316E-1
9.382415676E0,-3.775341511E0,-2.530434728E-1,5.494571328E-1
9.392129166E0,-4.016015530E0,-8.223531246E-1,6.410841942E-1
9.401841770E0,-4.011128426E0,-1.128998399E0,8.194515705E-1
9.411555312E0,-3.651950359E0,-7.820371985E-1,1.066233873E0
9.421269582E0,-3.252456188E0,3.787252903E-1,1.267813444E0
9.430982968E0,-3.293993950E0,1.737249613E0,1.404643297E0
9.440695676E0,-3.697153091E0,2.144073963E0,1.462062955E0
9.450409166E0,-4.039227486E0,1.630962133E0,1.402199864E0
9.460123437E0,-4.059996128E0,1.247350097E0,1.341115117E0
9.469836926E0,-3.819322586E0,1.235133171E0,1.227497578E0
9.479549530E0,-3.554214716E0,8.881719112E-1,1.034469843E0
9.489263072E0,-3.428380251E0,2.492256761E-1,9.013051391E-1
9.498977343E0,-3.400281191E0,-1.467560530E-1,8.658760190E-1
9.508690832E0,-3.372182369E0,-2.249445021E-1,9.147437811E-1
9.518403437E0,-3.241461039E0,-1.504211426E-1,1.010035992E0
9.528116978E0,-2.962914705E0,-5.512896553E-2,1.089446068E0
9.537831249E0,-2.552425385E0,3.283303976E-2,1.112658262E0
9.547544634E0,-2.049087048E0,2.309002578E-1,1.000262380E0
9.557257343E0,-1.531088710E0,4.190412164E-1,7.669187188E-1
9.566970832E0,-1.020420313E0,5.289937258E-1,5.286883116E-1
9.576685103E0,-4.902049303E-1,6.047387719E-1,3.210002482E-1
9.586398593E0,4.611896724E-2,6.572716236E-1,1.473668963E-1
9.596111197E0,5.653391480E-1,6.841489077E-1,-5.344913341E-3
9.605824739E0,1.062568784E0,7.562289238E-1,-1.201841980E-1
9.615539009E0,1.547734261E0,9.663603902E-1,-1.873773932E-1
9.625252395E0,1.959445238E0,1.275449038E0,-2.325800955E-1
9.634965103E0,2.224553108E0,1.541778445E0,-2.460187376E-1
9.644678645E0,2.390703440E0,1.583316088E0,-2.411319613E-1
9.654392864E0,2.490882397E0,1.369519591E0,-2.350234836E-1
9.664106353E0,2.523868084E0,1.000567794E0,-2.179197669E-1
9.673819009E0,2.528754950E0,6.389462352E-1,-1.910424829E-1
9.683532499E0,2.578844309E0,4.911212027E-1,-1.629435122E-1
9.693246770E0,2.719339371E0,6.487197876E-1,-1.995943487E-1
9.702960259E0,2.924583912E0,1.003011227E0,-2.741177082E-1
9.712672864E0,3.121276855E0,1.290109396E0,-3.425326049E-1
9.722386405E0,3.156705856E0,1.488023877E0,-3.327590525E-1
9.732100676E0,2.839065313E0,1.512457848E0,-2.362451702E-1
9.741814062E0,2.107270241E0,1.075091124E0,-2.423536479E-1
9.751526770E0,1.198176861E0,1.600419879E-1,-5.172349215E-1
9.761240259E0,6.752916574E-1,-3.385621011E-1,-9.436063170E-1
9.770954530E0,7.437065244E-1,-5.039489828E-3,-1.239256382E0
9.780668020E0,1.239867210E0,7.941014171E-1,-1.258803487E0
9.790380624E0,1.561172843E0,8.955020905E-1,-1.295454383E0
9.800094166E0,4.920374751E-1,-1.012937427E0,-1.112200141E0
9.809808437E0,-8.163973689E-1,-3.376916409E0,-5.355603099E-1
9.819521822E0,-6.844543815E-1,-2.966427088E0,-9.941539168E-2
9.829234530E0,3.503209054E-1,-1.074022174E0,7.192726731E-1
9.838948072E0,1.621035933E0,-3.802524135E-2,1.215280652E0
9.848662291E0,2.671693087E0,-3.544441164E-1,8.536590338E-1
9.858375780E0,2.861055851E0,-8.736643195E-1,-2.733541466E-2
9.868088384E0,2.378486633E0,-1.210852027E0,-7.249229550E-1
9.877801926E0,2.060845852E0,-1.362342119E0,-1.034011722E0
9.887516197E0,2.192788839E0,-1.067913771E0,-9.949174523E-1
9.897229687E0,2.583731174E0,-2.652604282E-1,-7.261446714E-1
9.906942291E0,3.012546062E0,4.801259339E-1,-5.160132051E-1
9.916655832E0,3.304530859E0,6.426113248E-1,-5.783196688E-1
9.926370051E0,3.429143906E0,2.651077211E-1,-7.945595980E-1
9.936083541E0,3.446247578E0,-1.003316641E-1,-8.727480173E-1
9.945796197E0,3.366837263E0,-1.601946950E-1,-7.786775231E-1
9.955509687E0,3.172587872E0,-7.101099193E-2,-6.491779089E-1
9.965223957E0,2.869607687E0,-1.980672181E-1,-5.709894896E-1
9.974937447E0,2.531198263E0,-5.425850749E-1,-5.306735635E-1
9.984650051E0,2.290524483E0,-9.604045749E-1,-4.158342779E-1
9.994363593E0,2.097496748E0,-1.337908268E0,-2.069245130E-1
1.000407786E1,1.673568726E0,-1.422205091E0,6.673506647E-2
1.001379125E1,8.964183331E-1,-1.281710267E0,3.637595475E-1
1.002350396E1,-3.329117596E-2,-1.226734042E0,6.789567471E-1
1.003321745E1,-9.434536099E-1,-1.291483760E0,1.014922738E0
1.004293172E1,-1.782757759E0,-1.302479029E0,1.352110386E0
1.005264521E1,-2.498670816E0,-1.107007980E0,1.592784286E0
1.006235786E1,-3.059428453E0,-8.321266770E-1,1.619661450E0
1.007207135E1,-3.432045221E0,-6.781931520E-1,1.421746969E0
1.008178562E1,-3.655615330E0,-6.733064055E-1,1.100441337E0
1.009149901E1,-3.760681152E0,-6.781931520E-1,7.779139876E-1
1.010121172E1,-3.804662228E0,-5.853443742E-1,6.435275674E-1
1.011092526E1,-3.741133928E0,-4.191939235E-1,7.498149872E-1
1.012063948E1,-3.567653418E0,1.206423342E-2,9.623898268E-1
1.013035297E1,-3.353856802E0,8.991671801E-1,1.123653531E0
1.014006557E1,-3.295215607E0,2.031677961E0,1.220167398E0
1.014977911E1,-3.604304314E0,2.706053257E0,1.297134161E0
1.015949338E1,-3.981807947E0,2.527685881E0,1.335006714E0
1.016920687E1,-4.031897545E0,2.103757858E0,1.317902923E0
1.017891948E1,-3.831539392E0,2.060998678E0,1.251931429E0
1.018863302E1,-3.618964672E0,2.118418217E0,1.011257648E0
1.019834724E1,-3.523672342E0,1.803221107E0,6.691831946E-1
1.020806073E1,-3.599417448E0,1.192373872E0,4.871506989E-1
1.021777338E1,-3.699596405E0,5.864133835E-1,5.115845799E-1
1.022748687E1,-3.643398523E0,1.649287641E-1,6.569662094E-1
1.023720114E1,-3.429601908E0,-4.046862945E-2,8.377770185E-1
1.024691463E1,-3.148612261E0,-1.711899489E-1,9.733850956E-1
1.025662724E1,-2.822419643E0,-2.811424434E-1,9.794935584E-1
1.026634078E1,-2.444916248E0,-3.629959822E-1,8.622109294E-1
1.027605505E1,-2.014879704E0,-4.631749392E-1,7.033905983E-1
1.028576844E1,-1.540862203E0,-5.071559548E-1,5.238015056E-1
1.029548114E1,-1.013090134E0,-4.411844313E-1,3.063398898E-1
1.030519463E1,-4.022429287E-1,-2.677038014E-1,4.840964451E-2
1.031490891E1,2.904578745E-1,5.604523420E-2,-2.081461996E-1
1.032462240E1,1.012479305E0,5.253286362E-1,-3.987305462E-1
1.033433500E1,1.655243397E0,9.639169574E-1,-5.306735635E-1
1.034404854E1,2.119487286E0,1.156944752E0,-6.174138784E-1
1.035376281E1,2.390703440E0,1.081199646E0,-6.565080881E-1
1.036347620E1,2.496990919E0,8.515210748E-1,-6.418477297E-1
1.037318891E1,2.504321098E0,6.193991303E-1,-5.441122055E-1
1.038290240E1,2.442014694E0,4.153761268E-1,-3.767400384E-1
1.039261667E1,2.332062006E0,2.015796006E-1,-2.240282297E-1
1.040233016E1,2.305184841E0,3.283303976E-2,-1.727170646E-1
1.041204276E1,2.482330561E0,4.260659590E-2,-2.215848416E-1
1.042175630E1,2.840286970E0,2.614426315E-1,-3.449759781E-1
1.043147057E1,3.164036036E0,6.694886088E-1,-4.317162931E-1
1.044118396E1,3.137158871E0,1.186265349E0,-4.573718905E-1
1.045089667E1,2.527533293E0,1.521009684E0,-5.453338623E-1
1.046061016E1,1.592936993E0,1.380514860E0,-7.481352091E-1
1.047032443E1,1.185959935E0,7.684458494E-1,-1.034011722E0
1.048003792E1,1.373031974E0,4.593571424E-1,-1.257581830E0
1.048975052E1,1.580719948E0,1.115407109E0,-1.329661727E0
1.049946406E1,1.404796004E0,8.331956863E-1,-1.412737012E0
1.050917833E1,5.457920432E-1,-1.781383276E0,-1.322331548E0
1.051889172E1,-3.329117596E-2,-3.726320982E0,-8.287670016E-1
1.052860443E1,-6.413896102E-3,-3.539401770E0,-4.085040987E-1
1.053831792E1,8.316685557E-1,-2.132009745E0,3.741439432E-2
1.054803219E1,1.748092175E0,-1.103342891E0,4.639385045E-1
1.055774568E1,2.344279051E0,-8.956547976E-1,4.101839364E-1
1.056745828E1,2.521424770E0,-1.031262875E0,-9.819369763E-2
1.057717182E1,2.335727215E0,-1.368450522E0,-4.329380095E-1
1.058688609E1,2.077949762E0,-1.601794243E0,-4.695888162E-1
1.059659948E1,1.933789730E0,-1.530935884E0,-3.009949923E-1
1.060631219E1,1.884921908E0,-1.094791055E0,-9.086353332E-2
1.061602568E1,1.974105597E0,-4.619532526E-1,-2.977880463E-2
1.062573995E1,2.283194304E0,1.600419879E-1,-1.360662282E-1
1.063545344E1,2.776758909E0,6.499415040E-1,-2.948864996E-1
1.064516604E1,3.294757366E0,8.955020905E-1,-4.671454430E-1
1.065487958E1,3.623393297E0,8.014315963E-1,-5.856497884E-1
1.066459385E1,3.638053656E0,6.010736823E-1,-6.516213417E-1
1.067430724E1,3.391271353E0,3.689517379E-1,-7.078192830E-1
1.068401995E1,3.033314705E0,1.527118087E-1,-7.469134927E-1
1.069373344E1,2.658254623E0,-1.125486046E-1,-6.748335361E-1
1.070344771E1,2.264868975E0,-4.485146105E-1,-4.537068009E-1
1.071316120E1,1.815285325E0,-6.720846891E-1,-1.592784226E-1
1.072287380E1,1.276518106E0,-6.855233312E-1,1.705790907E-1
1.073258734E1,6.948387623E-1,-5.645755529E-1,4.981459379E-1
1.074230161E1,1.389677525E-1,-3.764346242E-1,7.852441669E-1
1.075201500E1,-3.851391971E-1,-1.834068894E-1,9.770501852E-1
1.076172771E1,-9.324583411E-1,-7.956285775E-2,1.028361320E0
1.077144120E1,-1.491994381E0,-9.666658193E-2,9.489512444E-1
1.078115547E1,-1.994110823E0,-2.652604282E-1,7.828007340E-1
1.079086896E1,-2.405822039E0,-5.938962698E-1,6.166502833E-1
1.080058156E1,-2.754004955E0,-9.347490072E-1,5.005893111E-1
1.081029510E1,-3.036216259E0,-1.153432369E0,4.260659516E-1
1.082000937E1,-3.239017487E0,-1.229177356E0,3.955236077E-1
1.082972276E1,-3.352635145E0,-1.242616057E0,4.272876680E-1
1.083943547E1,-3.304989100E0,-1.274380088E0,4.309527278E-1
1.084914896E1,-3.054541826E0,-1.309809208E0,3.784198761E-1
1.085886323E1,-2.818754673E0,-1.099677801E0,3.173351586E-1
1.086857672E1,-2.911603451E0,-7.258392572E-1,4.346178174E-1
1.087828932E1,-3.452814102E0,-2.848075330E-1,7.974610925E-1
1.088800286E1,-3.945157051E0,1.600419879E-1,1.058903694E0
1.089771713E1,-4.195756912E0,6.084038615E-1,9.843803644E-1
1.090743052E1,-4.364350796E0,1.023779988E0,9.526162744E-1
1.091714323E1,-4.265393734E0,1.176491857E0,1.178629756E0
1.092685672E1,-4.014793396E0,1.034775257E0,1.521925926E0
1.093657099E1,-3.885293961E0,8.527427912E-1,1.762599707E0
1.094628448E1,-3.838869572E0,6.707102656E-1,1.769929886E0
1.095599708E1,-3.687379360E0,5.241069198E-1,1.612331390E0
1.096571062E1,-3.348970175E0,5.570927262E-1,1.407086611E0
1.097542490E1,-2.815089703E0,8.173136115E-1,1.172521353E0
1.098513828E1,-2.201798916E0,1.046992183E0,9.135220647E-1
1.099485099E1,-1.654479742E0,1.068982720E0,6.691831946E-1
1.100456448E1,-1.232995152E0,9.663603902E-1,4.773771465E-1
1.101427875E1,-8.640434742E-1,8.380824327E-1,3.173351586E-1
1.102399224E1,-4.669927359E-1,6.902574301E-1,1.461452097E-1
1.103370484E1,-2.840439789E-2,5.644228458E-1,-3.466558084E-2
1.104341838E1,4.517215490E-1,5.253286362E-1,-1.861557066E-1
1.105313266E1,9.367342591E-1,5.876350403E-1,-2.912214398E-1
1.106284604E1,1.387692213E0,7.012526393E-1,-3.339807391E-1
1.107255875E1,1.772526026E0,7.794411182E-1,-3.339807391E-1
1.108227224E1,2.068176031E0,7.305732965E-1,-3.095468581E-1
1.109198651E1,2.226996422E0,5.558710098E-1,-2.753393948E-1
1.110170000E1,2.247765303E0,3.445178568E-1,-2.570139766E-1
1.111141260E1,2.197675705E0,1.478250325E-1,-2.777827978E-1
1.112112614E1,2.195232391E0,5.848862603E-2,-3.290939629E-1
1.113084042E1,2.383373260E0,1.453816444E-1,-3.779617548E-1
1.114055380E1,2.746216536E0,3.066453338E-1,-4.231644273E-1
1.115026651E1,3.094399452E0,5.375455618E-1,-4.439332485E-1
1.115998000E1,3.199465275E0,1.095860004E0,-3.755183518E-1
1.116969427E1,2.852504015E0,1.662726283E0,-2.301367074E-1
1.117940776E1,1.827502251E0,1.513679504E0,-1.495048702E-1
1.118912036E1,3.148917556E-1,6.071822047E-1,-3.730749488E-1
1.119883390E1,-4.987567961E-1,-1.357607991E-1,-7.725690603E-1
1.120854812E1,-1.798945218E-1,1.979145110E-1,-9.399412274E-1
1.121826161E1,4.480564594E-1,1.185043693E0,-8.727480173E-1
1.122797427E1,1.085780978E0,9.223793745E-1,-8.690829277E-1
1.123768776E1,1.297286868E0,-1.213295341E0,-9.509364963E-1
1.124740203E1,9.208522439E-1,-3.285289288E0,-7.823426127E-1
1.125711552E1,5.848862529E-1,-2.367796659E0,-7.053758502E-1
1.126682812E1,9.538379908E-1,-1.089904189E0,-5.270084739E-1
1.127654167E1,1.533073902E0,-1.155875683E0,-8.964183182E-2
1.128625594E1,2.002204657E0,-1.648218632E0,1.400367320E-1
1.129596932E1,2.202562571E0,-2.015948772E0,8.872556686E-2
1.130568203E1,1.989987612E0,-2.227301836E0,-1.067455560E-1
1.131539552E1,1.553842664E0,-2.415442705E0,-2.179197669E-1
1.132510979E1,1.385248899E0,-2.321372271E0,-2.875563502E-1
1.133482318E1,1.679677248E0,-1.477181435E0,-3.510844707E-1
1.134453588E1,2.239213228E0,-4.277457893E-1,-4.170559645E-1
1.135424943E1,2.868386030E0,2.577775419E-1,-5.123481154E-1
1.136396364E1,3.441360712E0,6.279509664E-1,-6.442911625E-1
1.137367713E1,3.734567404E0,7.660024762E-1,-7.224795818E-1
1.138338974E1,3.606289387E0,7.806627750E-1,-7.065975666E-1
1.139310328E1,3.178696394E0,6.658235192E-1,-7.114843726E-1
1.140281755E1,2.672914982E0,4.581354558E-1,-7.518002391E-1
1.141253104E1,2.286859512E0,2.333436459E-1,-7.420266867E-1
1.142224364E1,2.120708942E0,9.758284688E-2,-6.259657145E-1
1.143195719E1,2.103605270E0,1.012479365E-1,-4.463766217E-1
1.144167141E1,2.058402538E0,1.771457046E-1,-2.643441558E-1
1.145138490E1,1.729766726E0,3.555130959E-1,-5.054761097E-2
1.146109750E1,9.623898268E-1,4.850127101E-1,1.546970755E-1
1.147081104E1,-1.163664013E-1,2.907632887E-1,3.576510847E-1
1.148052531E1,-1.220778227E0,-1.504211426E-1,5.909947157E-1
1.149023870E1,-2.127275467E0,-5.034908652E-1,8.072346449E-1
1.149995141E1,-2.772330284E0,-5.890094638E-1,9.403993487E-1
1.150966490E1,-3.231687307E0,-4.521796703E-1,9.294040799E-1
1.151937917E1,-3.583535433E0,-3.385621011E-1,7.534800768E-1
1.152909266E1,-3.855973244E0,-4.204156399E-1,4.944808483E-1
1.153880526E1,-4.092982292E0,-6.757497787E-1,3.161134422E-1
1.154851880E1,-4.363129139E0,-1.016602516E0,2.548760176E-1
1.155823307E1,-4.553713799E0,-1.438087106E0,1.913478971E-1
1.156794646E1,-4.377789497E0,-1.637223363E0,3.252761811E-2
1.157765917E1,-3.910949469E0,-1.216960430E0,2.886253223E-2
1.158737266E1,-3.353856802E0,-3.910949528E-1,4.077405334E-1
1.159708693E1,-3.042324781E0,3.603998721E-1,1.005149126E0
1.160680042E1,-3.067980289E0,6.120689511E-1,1.532921195E0
1.161651302E1,-3.315984249E0,6.633801460E-1,1.590340853E0
1.162622656E1,-3.735025644E0,8.173136115E-1,1.249488115E0
1.163594083E1,-4.072213173E0,6.218425035E-1,1.099219680E0
1.164565422E1,-4.028232098E0,1.942494214E-1,1.218945742E0
1.165536693E1,-3.664167166E0,-1.455343664E-1,1.303242683E0
1.166508042E1,-3.228022337E0,-3.324536085E-1,1.258039951E0
1.167479469E1,-2.841966867E0,-4.057552814E-1,1.172521353E0
1.168450818E1,-2.475458622E0,-3.434488773E-1,1.095554590E0
1.169422078E1,-2.067412615E0,-8.689302206E-2,1.040578246E0
1.170393432E1,-1.654479742E0,2.174616307E-1,9.868237376E-1
1.171364859E1,-1.245212078E0,3.909422457E-1,8.793146014E-1
1.172336198E1,-8.298360109E-1,4.825693369E-1,7.217160463E-1
1.173307469E1,-3.826957941E-1,5.473191738E-1,5.347967744E-1
1.174278823E1,1.316375881E-1,5.925218463E-1,3.063398898E-1
1.175250245E1,6.728482842E-1,6.401679516E-1,5.451811850E-2
1.176221594E1,1.179851532E0,7.574505806E-1,-1.507265568E-1
1.177192854E1,1.605153918E0,9.064973593E-1,-2.582356930E-1
1.178164208E1,1.925237894E0,1.046992183E0,-2.924431264E-1
1.179135635E1,2.148808002E0,1.109298587E0,-2.936648130E-1
1.180106974E1,2.295411348E0,1.022558331E0,-2.765611112E-1
1.181078245E1,2.385816574E0,8.820634484E-1,-2.435753495E-1
1.182049594E1,2.455453157E0,7.379034758E-1,-1.910424829E-1
1.183021021E1,2.549523830E0,6.120689511E-1,-1.152974218E-1
1.183992370E1,2.726669550E0,6.267293096E-1,-8.231166750E-2
1.184963630E1,2.995442152E0,9.126058221E-1,-1.177408099E-1
1.185934984E1,3.178696394E0,1.458703279E0,-1.849340051E-1
1.186906411E1,3.105394840E0,2.039008141E0,-2.118112892E-1
1.187877750E1,2.687575340E0,2.436058760E0,-1.495048702E-1
1.188849021E1,1.838497519E0,2.352983713E0,-8.353336155E-2
1.189820370E1,6.704048514E-1,1.891183138E0,-2.338017821E-1
1.190791797E1,-5.161659420E-2,1.305991411E0,-5.819846988E-1
1.191763146E1,2.037175596E-1,8.893936276E-1,-7.676823139E-1
1.192734406E1,9.147437811E-1,1.224137902E0,-7.798992395E-1
1.193705760E1,1.462215662E0,2.685284615E0,-8.922951221E-1
1.194677187E1,9.978190064E-1,3.347442865E0,-1.109756708E0
1.195648526E1,7.666133344E-2,-4.448495209E-1,-7.970029712E-1
1.196619797E1,-3.008422852E-1,-3.121582270E0,-6.772769094E-1
1.197591146E1,-5.488462448E-1,-3.023846626E0,-5.636593103E-1
1.198562573E1,9.376505762E-2,-2.810050011E0,-4.932591692E-2
1.199533922E1,7.754706144E-1,-2.305490255E0,5.946598053E-1
1.200505182E1,9.147437811E-1,-1.656770468E0,7.510367036E-1
1.201476536E1,8.548807502E-1,-1.708081603E0,5.018110275E-1
1.202447963E1,9.074136019E-1,-2.327480793E0,1.644706279E-1
1.203419302E1,1.182294846E0,-2.268839359E0,-1.433963925E-1
1.204390573E1,1.649134874E0,-1.278045177E0,-1.385096163E-1
1.205361922E1,2.176906824E0,-2.628170252E-1,9.849911928E-2
1.206333349E1,2.718117476E0,3.884988427E-1,2.764083818E-2
1.207304698E1,3.241002798E0,6.145123243E-1,-4.414898455E-1
1.208275958E1,3.625836611E0,5.473191738E-1,-9.827005267E-1
1.209247312E1,3.811534166E0,5.216635466E-1,-1.280794024E0
1.210218740E1,3.831081390E0,6.279509664E-1,-1.360204101E0
1.211190078E1,3.693029881E0,8.160919547E-1,-1.323553324E0
1.212161349E1,3.404709816E0,9.223793745E-1,-1.255138397E0
1.213132698E1,3.003994226E0,7.965448499E-1,-1.150072694E0
1.214104125E1,2.572736025E0,4.837910235E-1,-9.155073166E-1
1.215075474E1,2.164690018E0,1.220167428E-1,-5.306735635E-1
1.216046734E1,1.801846743E0,-2.542651594E-1,-5.665608495E-2
1.217018088E1,1.470767498E0,-4.253024161E-1,3.356605768E-1
1.217989516E1,1.068677306E0,-2.212794125E-1,5.531222224E-1
1.218960854E1,5.299099684E-1,4.504998401E-2,6.203153729E-1
1.219932125E1,-1.359135211E-1,1.698155403E-1,6.142069101E-1
1.220903474E1,-8.542698622E-1,1.795890927E-1,5.922164321E-1
1.221874901E1,-1.539640546E0,1.856975704E-1,5.421269536E-1
1.222846250E1,-2.141935825E0,1.991362125E-1,4.504998624E-1
1.223817510E1,-2.642830610E0,1.073564067E-1,3.478775024E-1
1.224788865E1,-3.059428453E0,-1.614163816E-1,2.426590770E-1
1.225760292E1,-3.414941549E0,-5.291464329E-1,1.583621502E-1
1.226731630E1,-3.749686003E0,-9.115368128E-1,1.876828223E-1
1.227702901E1,-4.105198860E0,-1.330578089E0,3.588727713E-1
1.228674250E1,-4.361907482E0,-1.998844981E0,5.641174316E-1
1.229645677E1,-4.305709839E0,-2.610913992E0,6.459710002E-1
1.230617026E1,-4.063661575E0,-2.449650288E0,6.655181050E-1
1.231588286E1,-3.915836334E0,-1.164427638E0,7.681404352E-1
1.232559640E1,-3.881628990E0,4.227063060E-1,1.025918007E0
1.233531068E1,-3.862081766E0,9.712471366E-1,1.342336893E0
1.234502406E1,-3.687379360E0,1.049435616E0,1.431520581E0
1.235473677E1,-3.571318388E0,1.392731786E0,1.233605981E0
1.236445026E1,-3.647063494E0,1.392731786E0,1.080894232E0
1.237416453E1,-3.715478420E0,8.344173431E-1,1.099219680E0
1.238387802E1,-3.692266226E0,1.588202864E-1,1.176186442E0
1.239359062E1,-3.538332701E0,-1.809635013E-1,1.233605981E0
1.240330417E1,-3.195036650E0,-1.638597846E-1,1.205507040E0
1.241301844E1,-2.696585178E0,7.070557028E-2,1.133427143E0
1.242273182E1,-2.135827541E0,4.495835900E-1,1.056460381E0
1.243244453E1,-1.608055353E0,8.539644480E-1,9.159654379E-1
1.244215802E1,-1.146254897E0,1.060430884E0,7.253811359E-1
1.245187229E1,-7.101099491E-1,1.025001645E0,5.201364160E-1
1.246158578E1,-2.422009408E-1,8.857285380E-1,2.733541429E-1
1.247129838E1,2.929012477E-1,7.427902818E-1,-1.679830020E-3
1.248101193E1,8.609892130E-1,6.670452356E-1,-2.667875290E-1
1.249072620E1,1.419456363E0,6.804838181E-1,-4.903576374E-1
1.250043958E1,1.910577536E0,7.745543122E-1,-6.235223413E-1
1.251015229E1,2.266090631E0,8.698465228E-1,-6.650599241E-1
1.251986578E1,2.448123217E0,8.918370008E-1,-6.381826997E-1
1.252958005E1,2.459118366E0,8.515210748E-1,-5.502206683E-1
1.253929354E1,2.355274200E0,8.050966859E-1,-4.182776511E-1
1.254900615E1,2.234326601E0,7.403468490E-1,-2.973299026E-1
1.255871969E1,2.207449198E0,6.792621613E-1,-1.995943487E-1
1.256843396E1,2.394368649E0,7.293516397E-1,-1.714953631E-1
1.257814734E1,2.749881744E0,8.356390595E-1,-2.338017821E-1
1.258786005E1,3.094399452E0,8.832851648E-1,-2.753393948E-1
1.259757359E1,3.255663157E0,1.087308168E0,-2.191414535E-1
1.260728781E1,3.036979914E0,1.478250384E0,-9.208522737E-2
1.261700130E1,2.324732065E0,1.488023877E0,1.985253533E-3
1.262671390E1,1.355928183E0,8.307522535E-1,-2.032594234E-1
1.263642745E1,8.133431077E-1,2.932066917E-1,-7.505785823E-1
1.264614172E1,8.597674966E-1,2.589992285E-1,-1.233147860E0
1.265585510E1,1.298508525E0,6.817055345E-1,-1.404185176E0
1.266556781E1,1.506196618E0,1.525896430E0,-1.531241417E0
1.267528130E1,8.805363178E-1,7.427902818E-1,-1.437170863E0
1.268499557E1,3.808632791E-1,-1.985406280E0,-9.582666159E-1
1.269470906E1,4.333961308E-1,-3.578495979E0,-5.184566379E-1
1.270442167E1,5.971031785E-1,-2.906563997E0,-7.498150319E-2
1.271413521E1,1.135870457E0,-1.796043634E0,4.443913698E-1
1.272384948E1,1.551399350E0,-1.719076872E0,7.058340311E-1
1.273356286E1,1.708997965E0,-2.033052444E0,4.871506989E-1
1.274327557E1,1.723658204E0,-2.239518881E0,8.506047726E-2
1.275298911E1,1.652799964E0,-2.118571043E0,-1.800472289E-1
1.276270333E1,1.592936993E0,-1.842468023E0,-1.201841980E-1
1.277241682E1,1.701667786E0,-1.438087106E0,8.017370105E-2
1.278212948E1,2.008313179E0,-8.199097514E-1,1.559187621E-1
1.279184297E1,2.398033619E0,-2.286095917E-1,4.352286831E-2
1.280155724E1,2.828070164E0,2.345653474E-1,-1.788255423E-1
1.281127073E1,3.260550022E0,6.010736823E-1,-4.231644273E-1
1.282098333E1,3.554978371E0,8.551861644E-1,-6.394043565E-1
1.283069687E1,3.545204878E0,9.016105533E-1,-8.483141065E-1
1.284041115E1,3.241002798E0,8.576295376E-1,-1.027903199E0
1.285012453E1,2.890376568E0,6.523848772E-1,-1.060889006E0
1.285983724E1,2.551967144E0,2.406738251E-1,-8.092198968E-1
1.286955073E1,2.123152256E0,-2.518217862E-1,-3.058817685E-1
1.287926500E1,1.583163381E0,-7.466080785E-1,1.522536725E-1
1.288897849E1,9.196305275E-1,-9.933903813E-1,4.688252807E-1
1.289869109E1,1.829487532E-1,-9.579612017E-1,6.777350307E-1
1.290840463E1,-5.219689608E-1,-7.881456614E-1,8.573241234E-1
1.291811890E1,-1.169467092E0,-6.195518374E-1,9.965972900E-1
1.292783229E1,-1.776649237E0,-4.497362971E-1,1.043021679E0
1.293754500E1,-2.312973261E0,-2.176143378E-1,9.550597072E-1
1.294725849E1,-2.745453119E0,-1.969982497E-2,7.754706144E-1
1.295697276E1,-3.071645498E0,-1.481304597E-2,5.763344169E-1
1.296668625E1,-3.334309816E0,-1.907370538E-1,3.955236077E-1
1.297639885E1,-3.629959822E0,-4.790569544E-1,3.063398898E-1
1.298611240E1,-3.989138126E0,-8.284615874E-1,3.539859951E-1
1.299582667E1,-4.278832436E0,-1.449082375E0,4.920374751E-1
1.300554005E1,-4.273945332E0,-2.197981119E0,6.203153729E-1
1.301525276E1,-4.030675411E0,-2.423994541E0,7.412631512E-1
1.302496625E1,-3.919501543E0,-1.289040446E0,9.575030804E-1
1.303468052E1,-4.052666187E0,1.104411840E0,1.359440565E0
1.304439401E1,-4.327700138E0,2.144073963E0,1.859113574E0
1.305410661E1,-4.199422359E0,2.122083426E0,2.017933846E0
1.306382016E1,-3.628738165E0,2.144073963E0,1.663642526E0
1.307353443E1,-3.226800680E0,2.125748396E0,1.108993173E0
1.308324792E1,-3.221913815E0,1.662726283E0,7.229377031E-1
1.309296052E1,-3.306210756E0,8.686248064E-1,6.227588058E-1
1.310267406E1,-3.300102234E0,2.589992285E-1,7.290462255E-1
1.311238833E1,-3.184041262E0,-1.236965694E-2,9.135220647E-1
1.312210172E1,-2.921376944E0,-8.933641016E-2,1.047908425E0
1.313181443E1,-2.537765026E0,-3.191677108E-2,1.076007485E0
1.314152792E1,-2.121167183E0,1.673721522E-1,1.013701081E0
1.315124219E1,-1.702125907E0,4.056025743E-1,8.683193922E-1
1.316095568E1,-1.248877168E0,5.192201734E-1,6.728482842E-1
1.317066828E1,-7.479824424E-1,6.291726828E-1,4.651601911E-1
1.318038182E1,-2.031067163E-1,7.928797603E-1,2.475458533E-1
1.319009609E1,3.600944579E-1,9.333745837E-1,6.551336497E-2
1.319980948E1,8.768712282E-1,1.011563063E0,-8.353336155E-2
1.320952219E1,1.307060480E0,1.004232883E0,-2.081461996E-1
1.321923568E1,1.679677248E0,9.101623893E-1,-3.046600819E-1
1.322894995E1,2.014421463E0,7.574505806E-1,-3.486410677E-1
1.323866344E1,2.262425423E0,5.925218463E-1,-3.352024257E-1
1.324837604E1,2.407807112E0,4.703523815E-1,-2.716743052E-1
1.325808958E1,2.500655890E0,4.178195298E-1,-1.617218107E-1
1.326780385E1,2.603278399E0,5.021164417E-1,-5.543438718E-2
1.327751724E1,2.814631462E0,7.073611021E-1,-4.199574888E-2
1.328722995E1,3.122498512E0,9.064973593E-1,-1.226275861E-1
1.329694349E1,3.338738441E0,1.087308168E0,-1.641651988E-1
1.330665771E1,3.308196068E0,1.343863964E0,-1.177408099E-1
1.331637120E1,2.962456465E0,1.665169597E0,-4.199574888E-2
1.332608385E1,2.358939409E0,1.792225838E0,-7.788302377E-3
1.333579734E1,1.491536260E0,1.532004952E0,-1.385096163E-1
1.334551161E1,5.042544007E-1,5.008947253E-1,-5.355603099E-1
1.335522510E1,4.245388508E-2,-1.699682474E-1,-1.023016453E0
1.336493771E1,3.918585181E-1,3.432961702E-1,-1.275907159E0
1.337465125E1,1.096776247E0,1.281557560E0,-1.231926203E0
1.338436552E1,1.362036705E0,3.713951409E-1,-1.014464617E0
1.339407890E1,7.913526297E-1,-2.759960651E0,-5.392253995E-1
1.340379161E1,1.743968874E-1,-4.229659081E0,-1.873773932E-1
1.341350510E1,2.244863659E-1,-3.064162493E0,6.551336497E-2
1.342321937E1,9.306257963E-1,-1.743510842E0,3.857500553E-1
1.343293286E1,1.364480019E0,-1.357455373E0,6.752916574E-1
1.344264547E1,1.403574347E0,-1.335464835E0,5.421269536E-1
1.345235901E1,1.228871942E0,-1.679982662E0,1.803526580E-1
1.346207328E1,9.868237376E-1,-2.244405508E0,2.886253223E-2
1.347178667E1,9.342908859E-1,-2.531503677E0,1.131594554E-1
1.348149937E1,1.245975733E0,-2.044047594E0,1.094943732E-1
1.349121292E1,1.864153147E0,-1.124111652E0,-7.864658535E-2
1.350092713E1,2.582509518E0,-2.628170252E-1,-3.608580232E-1
1.351064062E1,3.248332977E0,1.368297935E-1,-7.090409398E-1
1.352035323E1,3.745562792E0,1.893626451E-1,-9.692618847E-1
1.353006677E1,3.994788408E0,1.930277348E-1,-1.073105931E0
1.353978104E1,3.987458229E0,2.712161839E-1,-1.077992678E0
1.354949453E1,3.724793911E0,3.261924386E-1,-1.001025915E0
1.355920713E1,3.276432037E0,1.195733473E-1,-8.434273601E-1
1.356892068E1,2.781645775E0,-2.970244884E-1,-6.455128193E-1
1.357863495E1,2.371156454E0,-6.916317940E-1,-3.584146202E-1
1.358834833E1,2.093831778E0,-8.235748410E-1,4.230117425E-2
1.359806104E1,1.915464282E0,-6.134433746E-1,4.004103839E-1
1.360777453E1,1.655243397E0,-1.944021434E-1,6.203153729E-1
1.361748880E1,1.214211583E0,2.260134816E-1,6.862868667E-1
1.362720229E1,6.239804626E-1,4.727957845E-1,6.398624778E-1
1.363691490E1,-1.041494608E-1,5.179984570E-1,5.103628635E-1
1.364662844E1,-8.823688626E-1,4.947862923E-1,2.977880239E-1
1.365634271E1,-1.584843159E0,4.923428893E-1,8.017370105E-2
1.366605609E1,-2.181030035E0,4.324798584E-1,-3.710897267E-2
1.367576880E1,-2.714910746E0,2.663294077E-1,-3.344388679E-2
1.368548234E1,-3.221913815E0,5.971032009E-2,3.619270027E-2
1.369519656E1,-3.749686003E0,-2.139492482E-1,1.424801201E-1
1.370491005E1,-4.328921795E0,-7.014053464E-1,2.892361879E-1
1.371462271E1,-4.768732071E0,-1.504058719E0,4.272876680E-1
1.372433620E1,-4.899453163E0,-2.075811625E0,5.176930428E-1
1.373405047E1,-4.784614086E0,-1.971967697E0,7.119424939E-1
1.374376396E1,-4.471859932E0,-1.285375357E0,1.045465112E0
1.375347656E1,-4.144445896E0,-5.022691488E-1,1.341115117E0
1.376319010E1,-3.873077154E0,6.581879407E-2,1.400978208E0
1.377290437E1,-3.693487883E0,7.684458494E-1,1.057682037E0
1.378261776E1,-3.697153091E0,1.442821264E0,5.494571328E-1
1.379233047E1,-3.910949469E0,1.555217147E0,3.454341292E-1
1.380204401E1,-4.117415905E0,1.141062737E0,4.480564594E-1
1.381175823E1,-4.118637562E0,5.583143830E-1,6.789567471E-1
1.382147172E1,-3.930496693E0,1.905843467E-1,9.746068120E-1
1.383118437E1,-3.609190941E0,1.012479365E-1,1.190846682E0
1.384089786E1,-3.192593098E0,1.146865711E-1,1.281252146E0
1.385061213E1,-2.738122940E0,2.675510943E-1,1.249488115E0
1.386032562E1,-2.268992186E0,5.876350403E-1,1.113879919E0
1.387003823E1,-1.799861431E0,8.710681796E-1,9.232956171E-1
1.387975177E1,-1.328287363E0,9.871291518E-1,6.972821355E-1
1.388946604E1,-8.151756525E-1,1.026223421E0,4.602734149E-1
1.389917943E1,-2.531961799E-1,1.070204377E0,2.597627938E-1
1.390889213E1,3.405473530E-1,1.152057886E0,1.009425074E-1
1.391860562E1,9.159654379E-1,1.291331053E0,1.053711493E-2
1.392831990E1,1.458550572E0,1.450151443E0,-3.588727489E-2
1.393803338E1,1.906912446E0,1.534448266E0,-2.855710872E-2
1.394774604E1,2.184237003E0,1.446486354E0,2.641914412E-2
1.395745953E1,2.302741528E0,1.188708782E0,9.727742523E-2
1.396717380E1,2.307628155E0,8.698465228E-1,2.035648525E-1
1.397688719E1,2.245321751E0,5.729747415E-1,3.161134422E-1
1.398659990E1,2.157359838E0,3.481829464E-1,3.552076817E-1
1.399631344E1,2.161024809E0,2.785463631E-1,2.451024652E-1
1.400602771E1,2.394368649E0,4.556920528E-1,-2.977880463E-2
1.401574109E1,2.813409805E0,7.598940134E-1,-3.254288733E-1
1.402545380E1,3.149375677E0,1.172826767E0,-4.585935771E-1
1.403516729E1,3.160371065E0,1.586981177E0,-4.060607255E-1
1.404488156E1,2.776758909E0,1.679829955E0,-2.985515893E-1
1.405459505E1,1.989987612E0,1.227802992E0,-3.901786804E-1
1.406430766E1,1.165191174E0,4.214846194E-1,-7.322531343E-1
1.407402120E1,7.840224504E-1,-1.101052165E-1,-1.071884274E0
1.408373547E1,9.819369912E-1,-1.626380831E-1,-1.159846187E0
1.409344896E1,1.299730301E0,4.361449480E-1,-1.200162172E0
1.410316156E1,1.045465112E0,6.914790869E-1,-1.404185176E0
1.411287510E1,6.444438547E-2,-8.858812451E-1,-1.439614296E0
1.412258937E1,-2.409792393E-1,-2.681772232E0,-1.200162172E0
1.413230276E1,8.154810965E-2,-3.284067631E0,-5.929799676E-1
1.414201547E1,4.688252807E-1,-2.595031977E0,1.265980899E-1
1.415172896E1,1.096776247E0,-1.557813168E0,5.592306852E-1
1.416144323E1,1.630809426E0,-1.471072912E0,6.374191046E-1
1.417115672E1,1.865374804E0,-1.793600321E0,3.820849657E-1
1.418086932E1,1.716328144E0,-1.973189354E0,1.033858955E-1
1.419058286E1,1.487871170E0,-2.057486296E0,-3.833066672E-2
1.420029713E1,1.515970230E0,-1.786270142E0,-7.788302377E-3
1.421001062E1,1.789629698E0,-1.072800517E0,1.461452097E-1
1.421972323E1,2.279529333E0,-1.455343664E-1,2.414373755E-1
1.422943677E1,2.812188148E0,5.204418898E-1,9.972081333E-2
1.423915104E1,3.197021723E0,6.670452356E-1,-2.545706034E-1
1.424886443E1,3.442582369E0,5.803049207E-1,-6.748335361E-1
1.425857713E1,3.589185715E0,6.010736823E-1,-9.448279738E-1
1.426829062E1,3.655157328E0,7.488987446E-1,-1.036455035E0
1.427800490E1,3.567195177E0,8.319739699E-1,-1.037676811E0
1.428771838E1,3.228785992E0,7.647807598E-1,-9.509364963E-1
1.429743104E1,2.733999729E0,5.228852630E-1,-7.004891038E-1
1.430714453E1,2.194010735E0,2.357870489E-1,-2.741177082E-1
1.431685880E1,1.748092175E0,5.604523420E-2,1.815743446E-1
1.432657229E1,1.452442050E0,1.305686086E-1,5.005893111E-1
1.433628490E1,1.145644069E0,3.994941115E-1,6.105418205E-1
1.434599844E1,7.168292403E-1,6.780404449E-1,5.555655956E-1
1.435571271E1,1.194206402E-1,8.906152844E-1,4.529432356E-1
1.436542609E1,-6.306998134E-1,1.018893242E0,3.552076817E-1
1.437513880E1,-1.460230350E0,1.044548869E0,2.684673667E-1
1.438485229E1,-2.257996798E0,9.284878373E-1,1.925695986E-1
1.439456656E1,-2.914046764E0,6.462764144E-1,1.327065676E-1
1.440428005E1,-3.399059534E0,2.589992285E-1,9.483403713E-2
1.441399271E1,-3.724030256E0,-1.418692768E-1,9.849911928E-2
1.442370620E1,-4.033119202E0,-6.024481058E-1,1.974563748E-1
1.443342047E1,-4.429100990E0,-1.260941505E0,3.845283389E-1
1.444313396E1,-4.680769920E0,-2.019613743E0,5.433486104E-1
1.445284656E1,-4.506067753E0,-2.196759462E0,6.618530154E-1
1.446256010E1,-4.014793396E0,-1.032484531E0,8.988617659E-1
1.447227437E1,-3.669054031E0,6.609367132E-1,1.205507040E0
1.448198776E1,-3.552993059E0,1.524674773E0,1.356997132E0
1.449170047E1,-3.556658268E0,1.572320819E0,1.194511771E0
1.450141401E1,-3.554214716E0,1.486802220E0,7.840224504E-1
1.451112823E1,-3.555436373E0,1.412278891E0,3.686463237E-1
1.452084172E1,-3.572540283E0,1.148392797E0,1.998997629E-1
1.453055437E1,-3.570096731E0,6.193991303E-1,3.234436214E-1
1.454026786E1,-3.531002522E0,-3.802524135E-2,5.238015056E-1
1.454998213E1,-3.395394564E0,-5.499152541E-1,6.227588058E-1
1.455969562E1,-3.119291544E0,-6.562026739E-1,5.971031785E-1
1.456940823E1,-2.701472044E0,-4.399627447E-1,4.932591617E-1
1.457912177E1,-2.209129095E0,-7.223268598E-2,3.527642787E-1
1.458883604E1,-1.722894669E0,2.773246467E-1,1.962346882E-1
1.459854943E1,-1.284306407E0,5.167768002E-1,2.153236605E-2
1.460826213E1,-8.945857882E-1,5.680879354E-1,-1.409530044E-1
1.461797568E1,-4.926483035E-1,4.654656053E-1,-2.276933193E-1
1.462768995E1,-5.894676223E-2,3.445178568E-1,-2.716743052E-1
1.463740333E1,3.930802047E-1,2.968717813E-1,-3.119902313E-1
1.464711604E1,8.426637650E-1,3.225273490E-1,-3.486410677E-1
1.465682958E1,1.285069942E0,3.640649617E-1,-4.048390090E-1
1.466654380E1,1.690672517E0,3.726168275E-1,-4.756973088E-1
1.467625729E1,2.024195194E0,3.432961702E-1,-5.514423847E-1
1.468596990E1,2.263647318E0,3.384093940E-1,-5.880932212E-1
1.469568344E1,2.413915634E0,4.251496792E-1,-5.306735635E-1
1.470539771E1,2.492104053E0,5.607577562E-1,-3.461976945E-1
1.471511120E1,2.527533293E0,6.878139973E-1,-7.131642103E-2
1.472482380E1,2.551967144E0,7.293516397E-1,1.644706279E-1
1.473453734E1,2.584952831E0,7.391251922E-1,3.173351586E-1
1.474425161E1,2.575179338E0,9.565867782E-1,4.492781460E-1
1.475396500E1,2.443236351E0,1.408613801E0,5.409052372E-1
1.476367771E1,1.974105597E0,1.415943980E0,5.213581324E-1
1.477339125E1,9.526162744E-1,5.094466209E-1,1.803526580E-1
1.478310547E1,1.023169160E-1,-4.497362971E-1,-4.598152637E-1
1.479281896E1,2.171562016E-1,-7.930324674E-1,-9.387195110E-1
1.480253161E1,1.185959935E0,-4.204156399E-1,-1.002247691E0
1.481224510E1,2.123152256E0,7.073611021E-1,-1.090209603E0
1.482195937E1,2.143921137E0,1.022558331E0,-1.400520086E0
1.483167286E1,1.487413049E-1,-5.034908652E-1,-1.443279386E0
1.484138547E1,-8.188407421E-1,-1.924321532E0,-1.313779712E0
1.485109901E1,-3.362714052E-1,-2.168660402E0,-8.434273601E-1
1.486081328E1,3.637595475E-1,-1.577360392E0,1.180462316E-1
1.487052677E1,1.424343109E0,-5.682406425E-1,9.220739603E-1
1.488023937E1,2.173241854E0,-3.080197275E-1,9.648332596E-1
1.488995292E1,2.058402538E0,-6.415423155E-1,3.710896969E-1
1.489966719E1,1.468324065E0,-1.400214672E0,-1.421747059E-1
1.490938057E1,1.206881523E0,-2.092915535E0,-3.962871730E-1
1.491909328E1,1.319277406E0,-2.110019207E0,-3.083251417E-1
1.492880682E1,1.591715217E0,-1.826586008E0,-4.932591692E-2
1.493852109E1,1.965553761E0,-1.535822749E0,1.053711493E-2
1.494823448E1,2.345500708E0,-1.182752967E0,-2.509055138E-1
1.495794719E1,2.738886356E0,-8.834378719E-1,-6.357392669E-1
1.496766068E1,3.123720169E0,-6.195518374E-1,-8.959602118E-1
1.497737495E1,3.387606144E0,-2.628170252E-1,-9.387195110E-1
1.498708844E1,3.449912548E0,-9.926267900E-3,-8.690829277E-1
1.499680104E1,3.244668007E0,2.550287358E-2,-7.750124335E-1
1.500651458E1,2.853725672E0,-6.245913357E-2,-6.503996253E-1
1.501622885E1,2.479887247E0,-2.139492482E-1,-4.402681589E-1
1.502594234E1,2.192788839E0,-3.397837877E-1,-9.697200358E-2
1.503565495E1,1.977770686E0,-3.935383558E-1,2.524326444E-1
1.504536849E1,1.751757264E0,-3.251234591E-1,4.639385045E-1
1.505508276E1,1.340046167E0,-1.259872466E-1,5.531222224E-1
1.506479614E1,7.266027927E-1,1.110214889E-1,5.787777901E-1
1.507450885E1,1.557660475E-2,2.272351831E-1,6.093201637E-1
