"Time (s)","Acceleration x (m/s^2)","Acceleration y (m/s^2)","Acceleration z (m/s^2)"
4.891053100E-2,5.359922647E-1,-5.599204898E-1,-9.896415710E0
5.862402100E-2,5.168496966E-1,-5.862415433E-1,-9.843772888E0
6.833829200E-2,5.264210105E-1,-5.982056856E-1,-9.855737686E0
7.805167700E-2,5.072783828E-1,-5.647061467E-1,-9.831809044E0
8.776438500E-2,5.431707501E-1,-5.383850932E-1,-9.831809044E0
9.747787500E-2,5.742774606E-1,-5.312066078E-1,-9.812666893E0
1.071921460E-1,6.364908218E-1,-5.335994363E-1,-9.858130455E0
1.169055830E-1,6.508477330E-1,-5.216353536E-1,-9.932606697E0
1.266182400E-1,6.197410822E-1,-5.240281820E-1,-9.961320877E0
1.363317810E-1,5.575276613E-1,-5.455635786E-1,-9.930213928E0
1.460460000E-1,5.144568682E-1,-5.455635786E-1,-9.898808479E0
1.557594380E-1,5.288137794E-1,-5.359922647E-1,-9.898808479E0
1.654720940E-1,5.982056856E-1,-5.312066078E-1,-9.848558426E0
1.751856350E-1,6.364908218E-1,-5.407779217E-1,-9.788738251E0
1.848999060E-1,6.532405615E-1,-5.455635786E-1,-9.819845200E0
1.946132920E-1,6.412764788E-1,-5.168496966E-1,-9.903594017E0
2.043260000E-1,6.077769399E-1,-5.096712112E-1,-9.901201248E0
2.140394380E-1,6.125625968E-1,-5.048855543E-1,-9.858130455E0
2.237537600E-1,6.173482537E-1,-5.312066078E-1,-9.853344917E0
2.334671460E-1,6.436693072E-1,-5.623133183E-1,-9.628418922E0
2.431798540E-1,6.771687865E-1,-5.862415433E-1,-9.838987350E0
2.528932920E-1,6.867401004E-1,-5.982056856E-1,-1.010728264E1
2.626076150E-1,5.958128572E-1,-5.599204898E-1,-1.000199890E1
2.723210520E-1,5.192425251E-1,-4.929214716E-1,-9.946963310E0
2.820337080E-1,5.335994363E-1,-4.689932466E-1,-1.008814049E1
2.917471460E-1,5.934200287E-1,-4.474578202E-1,-9.915857315E0
3.014614690E-1,6.293123364E-1,-4.402793646E-1,-9.671489716E0
3.111749060E-1,6.077769399E-1,-4.498506486E-1,-9.824630737E0
3.208875630E-1,6.053841114E-1,-5.024927258E-1,-9.961320877E0
3.306011040E-1,5.814558864E-1,-5.551348329E-1,-9.803094864E0
3.403153230E-1,5.335994363E-1,-5.766702294E-1,-9.841380119E0
3.500287600E-1,5.407779217E-1,-5.934200287E-1,-1.005942631E1
3.597414170E-1,6.101697683E-1,-6.173482537E-1,-9.874879837E0
3.694549580E-1,6.436693072E-1,-5.838487148E-1,-9.709774971E0
3.791691770E-1,5.886343718E-1,-5.407779217E-1,-9.946963310E0
3.888826150E-1,5.838487148E-1,-5.096712112E-1,-1.005464077E1
3.985952710E-1,6.149554253E-1,-4.618147612E-1,-9.838987350E0
4.083088130E-1,6.077769399E-1,-4.426721931E-1,-9.850952148E0
4.180230310E-1,5.670989752E-1,-4.737788737E-1,-1.006899738E1
4.277364690E-1,5.527420044E-1,-4.857429862E-1,-9.949356079E0
4.374491250E-1,5.766702294E-1,-5.072783828E-1,-9.798309326E0
4.471626670E-1,5.694918036E-1,-5.288137794E-1,-9.939785004E0
4.568768850E-1,5.551348329E-1,-5.503492355E-1,-9.978070259E0
4.665903230E-1,5.694918036E-1,-5.407779217E-1,-9.724132538E0
4.763029790E-1,6.101697683E-1,-5.407779217E-1,-9.719346046E0
4.860165210E-1,6.412764788E-1,-5.599204898E-1,-1.001396275E1
4.957307400E-1,6.819544435E-1,-5.694918036E-1,-1.002831936E1
5.054441770E-1,6.388836503E-1,-5.335994363E-1,-9.898808479E0
5.151568330E-1,5.838487148E-1,-5.120640397E-1,-1.000199890E1
5.248703750E-1,5.455635786E-1,-5.000999570E-1,-1.000439167E1
5.345845940E-1,4.833501875E-1,-4.857429862E-1,-9.745667458E0
5.442980310E-1,5.096712112E-1,-5.072783828E-1,-9.721739769E0
5.540106880E-1,6.197410822E-1,-5.455635786E-1,-9.980463028E0
5.637241250E-1,7.106683254E-1,-5.886343718E-1,-9.992427826E0
5.734384480E-1,7.154539824E-1,-5.838487148E-1,-9.944570541E0
5.831518850E-1,6.005984545E-1,-5.503492355E-1,-1.009531879E1
5.928645420E-1,5.694918036E-1,-5.335994363E-1,-1.002831936E1
6.025779790E-1,5.551348329E-1,-4.833501875E-1,-9.724132538E0
6.122923020E-1,5.599204898E-1,-4.833501875E-1,-9.762416840E0
6.220056880E-1,6.125625968E-1,-5.096712112E-1,-1.007139015E1
6.317183960E-1,7.106683254E-1,-5.431707501E-1,-1.002114105E1
6.414318330E-1,7.441678643E-1,-5.479564071E-1,-9.891630173E0
6.511461560E-1,6.699903607E-1,-5.288137794E-1,-1.002353382E1
6.608595420E-1,5.910272002E-1,-5.024927258E-1,-1.000678444E1
6.705722500E-1,5.886343718E-1,-4.953143001E-1,-9.803094864E0
6.802856880E-1,5.814558864E-1,-5.144568682E-1,-9.812666893E0
6.900000100E-1,6.197410822E-1,-5.383850932E-1,-9.932606697E0
6.997133960E-1,7.417750359E-1,-5.455635786E-1,-9.704989433E0
7.094261040E-1,7.633104324E-1,-5.192425251E-1,-9.566205978E0
7.191395420E-1,6.891329288E-1,-5.000999570E-1,-9.891630173E0
7.288538650E-1,6.317051649E-1,-5.288137794E-1,-1.003310490E1
7.385672500E-1,5.455635786E-1,-5.359922647E-1,-1.008574772E1
7.482799580E-1,4.761717021E-1,-5.359922647E-1,-1.002353382E1
7.579933960E-1,4.136592150E-1,-5.407779217E-1,-9.930213928E0
7.677077190E-1,4.016951025E-1,-5.096712112E-1,-9.865308762E0
7.774211040E-1,4.570291340E-1,-4.929214716E-1,-9.886843681E0
7.871338130E-1,5.359922647E-1,-4.713860750E-1,-9.942177773E0
7.968472500E-1,5.694918036E-1,-4.546363056E-1,-9.978070259E0
8.065615730E-1,5.910272002E-1,-4.570291340E-1,-9.954142570E0
8.162749580E-1,5.838487148E-1,-4.737788737E-1,-9.858130455E0
8.259876150E-1,5.144568682E-1,-5.024927258E-1,-9.774381638E0
8.357011560E-1,4.689932466E-1,-5.216353536E-1,-9.760024071E0
8.454154270E-1,5.407779217E-1,-5.599204898E-1,-9.910772324E0
8.551288130E-1,6.412764788E-1,-5.958128572E-1,-1.002353382E1
8.648415210E-1,7.345965505E-1,-5.982056856E-1,-1.004746246E1
8.745549580E-1,7.657032609E-1,-5.982056856E-1,-9.975677490E0
8.842692810E-1,6.987041831E-1,-5.575276613E-1,-9.879665375E0
8.939826670E-1,5.694918036E-1,-4.881358147E-1,-9.805487633E0
9.036953750E-1,4.594219327E-1,-4.259224236E-1,-9.819845200E0
9.134088130E-1,4.689932466E-1,-4.259224236E-1,-9.939785004E0
9.231231350E-1,5.575276613E-1,-4.666004181E-1,-1.004028416E1
9.328365210E-1,6.293123364E-1,-4.905286431E-1,-1.004985523E1
9.425492290E-1,6.556333899E-1,-5.048855543E-1,-9.925428391E0
9.522626670E-1,6.747759581E-1,-5.048855543E-1,-9.795916557E0
9.619769900E-1,6.604190469E-1,-5.264210105E-1,-9.791131020E0
9.716903750E-1,5.742774606E-1,-5.168496966E-1,-9.853344917E0
9.814030830E-1,5.958128572E-1,-5.264210105E-1,-9.891630173E0
9.911165210E-1,6.412764788E-1,-5.455635786E-1,-9.997213364E0
1.000830844E0,6.173482537E-1,-5.575276613E-1,-1.002592659E1
1.010544281E0,5.790630579E-1,-5.312066078E-1,-9.978070259E0
1.020256938E0,5.742774606E-1,-5.000999570E-1,-9.882058144E0
1.029970479E0,5.623133183E-1,-4.833501875E-1,-9.822237968E0
1.039684698E0,5.623133183E-1,-4.737788737E-1,-9.800702095E0
1.049398135E0,5.982056856E-1,-5.024927258E-1,-9.836594582E0
1.059110792E0,6.340979934E-1,-5.623133183E-1,-9.894022942E0
1.068824333E0,6.340979934E-1,-5.670989752E-1,-9.994820595E0
1.078538552E0,5.790630579E-1,-5.503492355E-1,-1.002592659E1
1.088251990E0,5.551348329E-1,-5.407779217E-1,-9.987641335E0
1.097964646E0,5.718846321E-1,-5.240281820E-1,-9.908379555E0
1.107678188E0,6.221339107E-1,-5.240281820E-1,-9.827023506E0
1.117392458E0,6.795616150E-1,-5.024927258E-1,-9.803094864E0
1.127105844E0,6.891329288E-1,-5.216353536E-1,-9.870094299E0
1.136818552E0,6.364908218E-1,-5.383850932E-1,-9.954142570E0
1.146531990E0,5.934200287E-1,-5.407779217E-1,-9.970891953E0
1.156246313E0,5.599204898E-1,-5.264210105E-1,-9.968499184E0
1.165959750E0,5.240281820E-1,-5.048855543E-1,-9.954142570E0
1.175672406E0,5.718846321E-1,-4.833501875E-1,-9.886843681E0
1.185385948E0,6.460621357E-1,-4.450650215E-1,-9.810274124E0
1.195100219E0,6.556333899E-1,-4.642075896E-1,-9.877272606E0
1.204813604E0,6.340979934E-1,-4.905286431E-1,-9.999606133E0
1.214526313E0,6.029912829E-1,-5.216353536E-1,-1.002592659E1
1.224239750E0,6.053841114E-1,-5.551348329E-1,-9.925428391E0
1.233954073E0,5.647061467E-1,-5.575276613E-1,-9.788738251E0
1.243667510E0,5.216353536E-1,-5.096712112E-1,-9.745667458E0
1.253380167E0,5.144568682E-1,-4.881358147E-1,-9.855737686E0
1.263093708E0,5.503492355E-1,-4.761717021E-1,-9.961320877E0
1.272807979E0,6.029912829E-1,-4.570291340E-1,-9.968499184E0
1.282521365E0,6.029912829E-1,-4.689932466E-1,-9.956535339E0
1.292234073E0,5.623133183E-1,-4.642075896E-1,-9.951749802E0
1.301947510E0,5.503492355E-1,-4.881358147E-1,-9.886843681E0
1.311661833E0,5.288137794E-1,-5.264210105E-1,-9.846165657E0
1.321375271E0,5.192425251E-1,-5.455635786E-1,-9.867701530E0
1.331087927E0,5.862415433E-1,-5.742774606E-1,-9.942177773E0
1.340801469E0,6.580262184E-1,-5.958128572E-1,-9.925428391E0
1.350515740E0,7.274180651E-1,-5.814558864E-1,-9.865308762E0
1.360229125E0,7.537391186E-1,-5.527420044E-1,-9.838987350E0
1.369941833E0,6.867401004E-1,-5.144568682E-1,-9.884450912E0
1.379655271E0,6.197410822E-1,-4.785645306E-1,-9.966106415E0
1.389369594E0,5.790630579E-1,-4.546363056E-1,-1.001635551E1
1.399083031E0,5.718846321E-1,-4.570291340E-1,-9.985248566E0
1.408795688E0,5.862415433E-1,-4.689932466E-1,-9.886843681E0
1.418509229E0,6.197410822E-1,-5.144568682E-1,-9.817452431E0
1.428223500E0,6.628118753E-1,-5.312066078E-1,-9.807881355E0
1.437936938E0,6.723831892E-1,-5.431707501E-1,-9.846165657E0
1.447649594E0,6.173482537E-1,-5.335994363E-1,-9.903594017E0
1.457363135E0,5.814558864E-1,-4.929214716E-1,-9.927821159E0
1.467077406E0,5.766702294E-1,-4.570291340E-1,-9.930213928E0
1.476790792E0,5.599204898E-1,-4.498506486E-1,-9.894022942E0
1.486503500E0,5.479564071E-1,-4.737788737E-1,-9.858130455E0
1.496216938E0,5.359922647E-1,-4.785645306E-1,-9.877272606E0
1.505931260E0,5.670989752E-1,-5.096712112E-1,-9.886843681E0
1.515644698E0,6.125625968E-1,-5.312066078E-1,-9.874879837E0
1.525357354E0,6.197410822E-1,-5.359922647E-1,-9.884450912E0
1.535070896E0,6.197410822E-1,-5.383850932E-1,-9.942177773E0
1.544785167E0,5.862415433E-1,-5.359922647E-1,-9.992427826E0
1.554498552E0,5.766702294E-1,-5.335994363E-1,-9.980463028E0
1.564211260E0,5.575276613E-1,-5.264210105E-1,-9.901201248E0
1.573924802E0,5.264210105E-1,-5.335994363E-1,-9.803094864E0
1.583639073E0,5.575276613E-1,-5.216353536E-1,-9.752845764E0
1.593352458E0,6.173482537E-1,-5.120640397E-1,-9.822237968E0
1.603065167E0,6.987041831E-1,-5.240281820E-1,-9.903594017E0
1.612778604E0,7.345965505E-1,-5.120640397E-1,-9.910772324E0
1.622492927E0,7.058826685E-1,-5.096712112E-1,-9.877272606E0
1.632206365E0,6.149554253E-1,-5.168496966E-1,-9.874879837E0
1.641919021E0,5.288137794E-1,-5.144568682E-1,-9.882058144E0
1.651632563E0,5.000999570E-1,-5.024927258E-1,-9.923035622E0
1.661346833E0,5.120640397E-1,-4.905286431E-1,-9.994820595E0
1.671060271E0,5.910272002E-1,-4.929214716E-1,-1.002831936E1
1.680772927E0,6.675975323E-1,-4.857429862E-1,-9.982855797E0
1.690486469E0,7.154539824E-1,-4.642075896E-1,-9.815059662E0
1.700200740E0,6.963114142E-1,-4.809573591E-1,-9.657133102E0
1.709914125E0,6.173482537E-1,-5.048855543E-1,-9.661918640E0
1.719626833E0,5.647061467E-1,-5.216353536E-1,-9.810274124E0
1.729340375E0,5.718846321E-1,-5.383850932E-1,-9.980463028E0
1.739054594E0,5.838487148E-1,-5.359922647E-1,-1.002114105E1
1.748768031E0,5.814558864E-1,-5.144568682E-1,-9.903594017E0
1.758480740E0,5.934200287E-1,-5.048855543E-1,-9.783952713E0
1.768194177E0,6.173482537E-1,-4.881358147E-1,-9.750452995E0
1.777908500E0,6.053841114E-1,-4.881358147E-1,-9.815059662E0
1.787621938E0,6.317051649E-1,-4.402793646E-1,-9.894022942E0
1.797334594E0,6.364908218E-1,-4.354937077E-1,-9.903594017E0
1.807048135E0,6.580262184E-1,-4.642075896E-1,-9.930213928E0
1.816762406E0,6.269195080E-1,-5.120640397E-1,-9.942177773E0
1.826475844E0,5.527420044E-1,-5.479564071E-1,-9.834201813E0
1.836188500E0,4.809573591E-1,-5.647061467E-1,-9.716953278E0
1.845902042E0,4.618147612E-1,-5.551348329E-1,-9.693025589E0
1.855616313E0,5.024927258E-1,-5.766702294E-1,-9.736096382E0
1.865329750E0,5.934200287E-1,-5.814558864E-1,-9.882058144E0
1.875042406E0,6.867401004E-1,-6.101697683E-1,-1.006421185E1
1.884755948E0,6.723831892E-1,-6.029912829E-1,-1.019581699E1
1.894470219E0,6.364908218E-1,-5.958128572E-1,-1.016949654E1
1.904183604E0,6.245267391E-1,-5.862415433E-1,-1.009531879E1
1.913896313E0,5.886343718E-1,-5.503492355E-1,-1.004985523E1
1.923609750E0,5.335994363E-1,-5.048855543E-1,-9.999606133E0
1.933324073E0,5.000999570E-1,-4.761717021E-1,-9.934999466E0
1.943037510E0,4.618147612E-1,-4.713860750E-1,-9.918250084E0
1.952750219E0,4.785645306E-1,-4.737788737E-1,-9.903594017E0
1.962463656E0,5.048855543E-1,-4.953143001E-1,-9.853344917E0
1.972177979E0,5.479564071E-1,-5.048855543E-1,-9.774381638E0
1.981891417E0,5.934200287E-1,-5.383850932E-1,-9.767203331E0
1.991604073E0,5.838487148E-1,-5.527420044E-1,-9.815059662E0
2.001317615E0,5.766702294E-1,-5.742774606E-1,-9.882058144E0
2.011031885E0,5.455635786E-1,-5.503492355E-1,-9.973284721E0
2.020745323E0,4.809573591E-1,-5.359922647E-1,-9.958928108E0
2.030457979E0,4.474578202E-1,-5.407779217E-1,-9.872487068E0
2.040171521E0,5.000999570E-1,-5.431707501E-1,-9.822237968E0
2.049885792E0,5.551348329E-1,-5.503492355E-1,-9.879665375E0
2.059599177E0,5.862415433E-1,-5.575276613E-1,-9.937392235E0
2.069311885E0,6.340979934E-1,-5.527420044E-1,-9.898808479E0
2.079025427E0,6.173482537E-1,-5.479564071E-1,-9.827023506E0
2.088739646E0,5.886343718E-1,-5.288137794E-1,-9.819845200E0
2.098453083E0,5.718846321E-1,-5.479564071E-1,-9.853344917E0
2.108165792E0,5.838487148E-1,-5.503492355E-1,-9.877272606E0
2.117879229E0,5.814558864E-1,-5.527420044E-1,-9.905986786E0
2.127593552E0,5.455635786E-1,-5.335994363E-1,-9.918250084E0
2.137306990E0,5.335994363E-1,-5.216353536E-1,-9.894022942E0
2.147019646E0,5.670989752E-1,-5.168496966E-1,-9.848558426E0
2.156733188E0,6.173482537E-1,-5.048855543E-1,-9.850952148E0
2.166447458E0,6.101697683E-1,-4.881358147E-1,-9.846165657E0
2.176160896E0,5.766702294E-1,-5.048855543E-1,-9.889236450E0
2.185873552E0,5.814558864E-1,-5.168496966E-1,-9.956535339E0
2.195587094E0,5.694918036E-1,-5.264210105E-1,-9.990034103E0
2.205301365E0,5.359922647E-1,-5.168496966E-1,-9.939785004E0
2.215014750E0,5.288137794E-1,-5.048855543E-1,-9.788738251E0
2.224727458E0,5.694918036E-1,-5.240281820E-1,-9.704989433E0
2.234440896E0,5.599204898E-1,-5.288137794E-1,-9.731310844E0
2.244155219E0,6.125625968E-1,-5.359922647E-1,-9.805487633E0
2.253868656E0,6.412764788E-1,-5.312066078E-1,-9.889236450E0
2.263581313E0,6.005984545E-1,-5.312066078E-1,-9.920642853E0
2.273294854E0,6.101697683E-1,-5.216353536E-1,-9.908379555E0
2.283009125E0,6.340979934E-1,-5.264210105E-1,-9.908379555E0
2.292722563E0,6.412764788E-1,-5.455635786E-1,-9.949356079E0
2.302435219E0,6.628118753E-1,-5.455635786E-1,-9.978070259E0
2.312148760E0,6.340979934E-1,-5.527420044E-1,-9.978070259E0
2.321863031E0,5.479564071E-1,-5.383850932E-1,-9.889236450E0
2.331576417E0,4.857429862E-1,-5.120640397E-1,-9.822237968E0
2.341289125E0,4.809573591E-1,-5.120640397E-1,-9.884450912E0
2.351002563E0,5.072783828E-1,-5.383850932E-1,-9.951749802E0
2.360716885E0,5.790630579E-1,-5.623133183E-1,-9.903594017E0
2.370430323E0,6.125625968E-1,-5.766702294E-1,-9.805487633E0
2.380142979E0,6.077769399E-1,-5.838487148E-1,-9.769596100E0
2.389856521E0,5.335994363E-1,-5.670989752E-1,-9.786345482E0
2.399570792E0,5.383850932E-1,-5.503492355E-1,-9.879665375E0
2.409284177E0,5.479564071E-1,-5.455635786E-1,-9.968499184E0
2.418996885E0,5.359922647E-1,-5.312066078E-1,-1.000678444E1
2.428710427E0,5.694918036E-1,-5.144568682E-1,-9.968499184E0
2.438424646E0,5.814558864E-1,-4.929214716E-1,-9.853344917E0
2.448138083E0,5.455635786E-1,-4.809573591E-1,-9.752845764E0
2.457850792E0,5.503492355E-1,-4.785645306E-1,-9.819845200E0
2.467564229E0,5.527420044E-1,-4.857429862E-1,-9.918250084E0
2.477278552E0,5.623133183E-1,-5.120640397E-1,-1.000678444E1
2.486991990E0,6.221339107E-1,-5.144568682E-1,-9.975677490E0
2.496704646E0,6.317051649E-1,-5.288137794E-1,-9.889236450E0
2.506418188E0,6.149554253E-1,-5.431707501E-1,-9.810274124E0
2.516132458E0,6.149554253E-1,-5.407779217E-1,-9.803094864E0
2.525845844E0,6.173482537E-1,-5.431707501E-1,-9.860523224E0
2.535558552E0,5.910272002E-1,-5.479564071E-1,-9.927821159E0
2.545271990E0,5.718846321E-1,-5.383850932E-1,-9.862915993E0
2.554986313E0,5.551348329E-1,-5.096712112E-1,-9.709774971E0
2.564699750E0,5.407779217E-1,-5.264210105E-1,-9.681061745E0
2.574412406E0,5.575276613E-1,-5.216353536E-1,-9.838987350E0
2.584125948E0,5.599204898E-1,-5.479564071E-1,-9.985248566E0
2.593840219E0,5.647061467E-1,-5.455635786E-1,-1.002831936E1
2.603553604E0,5.742774606E-1,-5.455635786E-1,-9.987641335E0
2.613266313E0,5.694918036E-1,-5.670989752E-1,-9.889236450E0
2.622979750E0,6.053841114E-1,-5.742774606E-1,-9.815059662E0
2.632694073E0,6.245267391E-1,-5.718846321E-1,-9.819845200E0
2.642407510E0,5.742774606E-1,-5.503492355E-1,-9.795916557E0
2.652120167E0,5.790630579E-1,-5.335994363E-1,-9.858130455E0
2.661833708E0,5.647061467E-1,-5.288137794E-1,-9.980463028E0
2.671547927E0,5.910272002E-1,-5.407779217E-1,-1.000917721E1
2.681261365E0,6.053841114E-1,-5.312066078E-1,-9.973284721E0
2.690974021E0,5.575276613E-1,-5.120640397E-1,-9.882058144E0
2.700687563E0,5.383850932E-1,-5.024927258E-1,-9.817452431E0
2.710401833E0,5.312066078E-1,-4.857429862E-1,-9.764810562E0
2.720115271E0,5.575276613E-1,-4.905286431E-1,-9.740881920E0
2.729827927E0,6.053841114E-1,-4.905286431E-1,-9.807881355E0
2.739541365E0,6.293123364E-1,-5.335994363E-1,-9.855737686E0
2.749255688E0,6.412764788E-1,-5.407779217E-1,-9.872487068E0
2.758969125E0,6.125625968E-1,-5.694918036E-1,-9.944570541E0
2.768681781E0,5.670989752E-1,-5.742774606E-1,-9.973284721E0
2.778395323E0,5.455635786E-1,-5.623133183E-1,-9.923035622E0
2.788109594E0,5.527420044E-1,-5.479564071E-1,-9.862915993E0
2.797822979E0,5.527420044E-1,-5.335994363E-1,-9.865308762E0
2.807535688E0,5.910272002E-1,-5.168496966E-1,-9.858130455E0
2.817249125E0,6.053841114E-1,-5.335994363E-1,-9.788738251E0
2.826963448E0,5.551348329E-1,-5.455635786E-1,-9.793523788E0
2.836676833E0,5.216353536E-1,-5.407779217E-1,-9.879665375E0
2.846389542E0,5.383850932E-1,-5.288137794E-1,-9.954142570E0
2.856102979E0,5.862415433E-1,-5.000999570E-1,-9.992427826E0
2.865817302E0,5.670989752E-1,-4.785645306E-1,-9.958928108E0
2.875530740E0,5.670989752E-1,-4.809573591E-1,-9.858130455E0
2.885243396E0,5.264210105E-1,-5.383850932E-1,-9.807881355E0
2.894956938E0,5.024927258E-1,-5.886343718E-1,-9.810274124E0
2.904671156E0,5.288137794E-1,-6.364908218E-1,-9.877272606E0
2.914384594E0,6.269195080E-1,-6.631109715E-1,-9.925428391E0
2.924097250E0,6.915257573E-1,-6.607181430E-1,-9.982855797E0
2.933810792E0,6.819544435E-1,-6.197410822E-1,-9.975677490E0
2.943525063E0,6.699903607E-1,-5.623133183E-1,-9.889236450E0
2.953238448E0,6.364908218E-1,-5.072783828E-1,-9.760024071E0
2.962951156E0,5.623133183E-1,-4.546363056E-1,-9.762416840E0
2.972664594E0,5.407779217E-1,-4.354937077E-1,-9.836594582E0
2.982378917E0,5.670989752E-1,-4.546363056E-1,-9.901201248E0
2.992092302E0,6.388836503E-1,-5.024927258E-1,-9.920642853E0
3.001805010E0,6.604190469E-1,-5.359922647E-1,-9.915857315E0
3.011518448E0,5.958128572E-1,-5.407779217E-1,-9.872487068E0
3.021232771E0,5.431707501E-1,-5.240281820E-1,-9.817452431E0
3.030946156E0,5.431707501E-1,-5.264210105E-1,-9.810274124E0
3.040658865E0,5.647061467E-1,-5.551348329E-1,-9.829416275E0
3.050372302E0,5.623133183E-1,-5.527420044E-1,-9.913165092E0
3.060086625E0,5.766702294E-1,-5.694918036E-1,-9.939785004E0
3.069800010E0,5.982056856E-1,-5.527420044E-1,-9.915857315E0
3.079512719E0,5.575276613E-1,-5.407779217E-1,-9.867701530E0
3.089226156E0,5.383850932E-1,-5.288137794E-1,-9.829416275E0
3.098940479E0,5.527420044E-1,-5.312066078E-1,-9.872487068E0
3.108653865E0,5.623133183E-1,-5.431707501E-1,-9.882058144E0
3.118366573E0,6.101697683E-1,-5.575276613E-1,-9.891630173E0
3.128080010E0,6.149554253E-1,-5.599204898E-1,-9.896415710E0
3.137794333E0,6.101697683E-1,-5.647061467E-1,-9.850952148E0
3.147507771E0,6.005984545E-1,-5.551348329E-1,-9.829416275E0
3.157220427E0,6.077769399E-1,-5.527420044E-1,-9.788738251E0
3.166933865E0,5.958128572E-1,-5.479564071E-1,-9.819845200E0
3.176648188E0,5.982056856E-1,-5.383850932E-1,-9.901201248E0
3.186361573E0,6.508477330E-1,-5.503492355E-1,-9.923035622E0
3.196074281E0,7.010970116E-1,-5.623133183E-1,-9.934999466E0
3.205787719E0,6.939185858E-1,-5.647061467E-1,-9.927821159E0
3.215502042E0,6.197410822E-1,-5.575276613E-1,-9.934999466E0
3.225215427E0,5.431707501E-1,-5.407779217E-1,-9.903594017E0
3.234928135E0,5.000999570E-1,-5.096712112E-1,-9.860523224E0
3.244641573E0,4.953143001E-1,-4.785645306E-1,-9.824630737E0
3.254355896E0,5.144568682E-1,-4.905286431E-1,-9.781559944E0
3.264069281E0,5.599204898E-1,-5.264210105E-1,-9.795916557E0
3.273781990E0,5.527420044E-1,-5.407779217E-1,-9.831809044E0
3.283495427E0,5.455635786E-1,-5.407779217E-1,-9.910772324E0
3.293209750E0,5.240281820E-1,-5.383850932E-1,-9.970891953E0
3.302923135E0,5.120640397E-1,-5.335994363E-1,-9.942177773E0
3.312635792E0,5.527420044E-1,-5.383850932E-1,-9.874879837E0
3.322349333E0,5.982056856E-1,-5.312066078E-1,-9.819845200E0
3.332063552E0,6.293123364E-1,-5.479564071E-1,-9.786345482E0
3.341776990E0,6.460621357E-1,-5.551348329E-1,-9.817452431E0
3.351489646E0,6.532405615E-1,-5.742774606E-1,-9.882058144E0
3.361203188E0,6.508477330E-1,-5.742774606E-1,-9.884450912E0
3.370917406E0,6.245267391E-1,-5.766702294E-1,-9.860523224E0
3.380630844E0,5.479564071E-1,-5.599204898E-1,-9.862915993E0
3.390343500E0,4.977070987E-1,-5.383850932E-1,-9.872487068E0
3.400056938E0,5.335994363E-1,-5.144568682E-1,-9.905986786E0
3.409771260E0,5.766702294E-1,-5.048855543E-1,-9.877272606E0
3.419484698E0,6.508477330E-1,-5.096712112E-1,-9.891630173E0
3.429197354E0,7.082754970E-1,-5.072783828E-1,-9.860523224E0
3.438910792E0,7.393822074E-1,-5.264210105E-1,-9.862915993E0
3.448625115E0,7.106683254E-1,-6.005984545E-1,-9.905986786E0
3.458338500E0,6.197410822E-1,-6.463612318E-1,-9.978070259E0
3.468051156E0,5.503492355E-1,-6.487540603E-1,-1.003310490E1
3.477764698E0,5.383850932E-1,-6.245267391E-1,-1.001874828E1
3.487478917E0,5.551348329E-1,-5.886343718E-1,-9.942177773E0
3.497192354E0,5.982056856E-1,-5.575276613E-1,-9.877272606E0
3.506905010E0,5.862415433E-1,-5.359922647E-1,-9.824630737E0
3.516618448E0,5.766702294E-1,-5.072783828E-1,-9.760024071E0
3.526332771E0,5.527420044E-1,-4.785645306E-1,-9.748060226E0
3.536046156E0,5.192425251E-1,-4.666004181E-1,-9.774381638E0
3.545758865E0,5.000999570E-1,-4.570291340E-1,-9.788738251E0
3.555472302E0,4.929214716E-1,-4.498506486E-1,-9.807881355E0
3.565186625E0,5.096712112E-1,-4.666004181E-1,-9.812666893E0
3.574900010E0,5.407779217E-1,-4.833501875E-1,-9.822237968E0
3.584612667E0,5.862415433E-1,-4.953143001E-1,-9.815059662E0
3.594326208E0,6.173482537E-1,-5.048855543E-1,-9.858130455E0
3.604040427E0,6.795616150E-1,-5.479564071E-1,-9.937392235E0
3.613753813E0,7.202396393E-1,-6.053841114E-1,-9.997213364E0
3.623466521E0,7.202396393E-1,-6.340979934E-1,-9.994820595E0
3.633179958E0,6.580262184E-1,-6.149554253E-1,-9.927821159E0
3.642894281E0,6.101697683E-1,-5.551348329E-1,-9.829416275E0
3.652607667E0,5.575276613E-1,-5.216353536E-1,-9.829416275E0
3.662320323E0,5.718846321E-1,-5.072783828E-1,-9.865308762E0
3.672033760E0,6.125625968E-1,-5.216353536E-1,-9.908379555E0
3.681748083E0,6.580262184E-1,-5.407779217E-1,-9.918250084E0
3.691461469E0,6.699903607E-1,-5.694918036E-1,-9.886843681E0
3.701174177E0,6.628118753E-1,-5.718846321E-1,-9.848558426E0
3.710887615E0,6.484549642E-1,-5.790630579E-1,-9.774381638E0
3.720601885E0,6.197410822E-1,-5.670989752E-1,-9.738489151E0
3.730315323E0,6.005984545E-1,-5.623133183E-1,-9.776774406E0
3.740027979E0,5.910272002E-1,-5.623133183E-1,-9.817452431E0
3.749741417E0,5.527420044E-1,-5.575276613E-1,-9.886843681E0
3.759455740E0,5.431707501E-1,-5.599204898E-1,-1.000199890E1
3.769169125E0,5.431707501E-1,-5.551348329E-1,-1.009771156E1
3.778881781E0,5.168496966E-1,-5.431707501E-1,-1.004506969E1
3.788595323E0,4.881358147E-1,-5.000999570E-1,-9.882058144E0
3.798309542E0,5.024927258E-1,-4.642075896E-1,-9.743274689E0
3.808022927E0,5.288137794E-1,-4.642075896E-1,-9.645169258E0
3.817735635E0,5.694918036E-1,-4.977070987E-1,-9.719346046E0
3.827449073E0,6.245267391E-1,-5.335994363E-1,-9.848558426E0
3.837163344E0,6.819544435E-1,-5.503492355E-1,-9.966106415E0
3.846876781E0,7.154539824E-1,-5.479564071E-1,-1.004746246E1
3.856589438E0,6.819544435E-1,-5.312066078E-1,-1.002114105E1
3.866302875E0,5.886343718E-1,-5.048855543E-1,-9.927821159E0
3.876017198E0,5.312066078E-1,-4.881358147E-1,-9.788738251E0
3.885730583E0,5.647061467E-1,-4.905286431E-1,-9.712167740E0
3.895443240E0,6.173482537E-1,-5.120640397E-1,-9.755238533E0
3.905156677E0,6.532405615E-1,-5.407779217E-1,-9.836594582E0
3.914871000E0,6.819544435E-1,-5.599204898E-1,-9.884450912E0
3.924584385E0,6.197410822E-1,-5.647061467E-1,-9.867701530E0
3.934297042E0,5.288137794E-1,-5.503492355E-1,-9.867701530E0
3.944010479E0,4.905286431E-1,-5.479564071E-1,-9.889236450E0
3.953724802E0,5.216353536E-1,-5.312066078E-1,-9.923035622E0
3.963438188E0,5.694918036E-1,-5.192425251E-1,-9.951749802E0
3.973150844E0,6.221339107E-1,-5.288137794E-1,-9.970891953E0
3.982864385E0,6.197410822E-1,-5.216353536E-1,-9.915857315E0
3.992578604E0,6.029912829E-1,-5.288137794E-1,-9.824630737E0
4.002291990E0,5.647061467E-1,-5.168496966E-1,-9.774381638E0
4.012004646E0,5.072783828E-1,-5.192425251E-1,-9.793523788E0
4.021718188E0,4.929214716E-1,-5.431707501E-1,-9.877272606E0
4.031432406E0,5.383850932E-1,-5.862415433E-1,-9.956535339E0
4.041145792E0,5.934200287E-1,-6.173482537E-1,-9.970891953E0
4.050858448E0,6.436693072E-1,-6.101697683E-1,-9.937392235E0
4.060571990E0,6.628118753E-1,-5.766702294E-1,-9.858130455E0
4.070286208E0,6.436693072E-1,-5.527420044E-1,-9.757631302E0
4.079999594E0,6.484549642E-1,-5.407779217E-1,-9.769596100E0
4.089712302E0,6.508477330E-1,-5.312066078E-1,-9.860523224E0
4.099425740E0,6.723831892E-1,-4.929214716E-1,-9.961320877E0
4.109140010E0,6.723831892E-1,-4.857429862E-1,-9.999606133E0
4.118853396E0,6.197410822E-1,-4.977070987E-1,-9.930213928E0
4.128566104E0,5.240281820E-1,-4.857429862E-1,-9.860523224E0
4.138279542E0,4.474578202E-1,-4.689932466E-1,-9.812666893E0
4.147993813E0,4.666004181E-1,-4.833501875E-1,-9.819845200E0
4.157707198E0,5.599204898E-1,-4.977070987E-1,-9.879665375E0
4.167419854E0,6.436693072E-1,-5.216353536E-1,-9.901201248E0
4.177133396E0,6.939185858E-1,-5.312066078E-1,-9.867701530E0
4.186847615E0,6.915257573E-1,-5.359922647E-1,-9.870094299E0
4.196561000E0,6.460621357E-1,-5.455635786E-1,-9.838987350E0
4.206273656E0,5.862415433E-1,-5.575276613E-1,-9.822237968E0
4.215987198E0,5.335994363E-1,-5.718846321E-1,-9.848558426E0
4.225701417E0,5.048855543E-1,-5.575276613E-1,-9.894022942E0
4.235414802E0,5.766702294E-1,-5.455635786E-1,-9.946963310E0
4.245127458E0,6.221339107E-1,-5.335994363E-1,-9.920642853E0
4.254840896E0,6.197410822E-1,-5.335994363E-1,-9.865308762E0
4.264555219E0,5.910272002E-1,-5.312066078E-1,-9.831809044E0
4.274268604E0,5.647061467E-1,-5.264210105E-1,-9.819845200E0
4.283981260E0,5.431707501E-1,-5.359922647E-1,-9.850952148E0
4.293694698E0,5.216353536E-1,-5.479564071E-1,-9.930213928E0
4.303408969E0,5.288137794E-1,-5.527420044E-1,-9.920642853E0
4.313122406E0,5.838487148E-1,-5.431707501E-1,-9.862915993E0
4.322835063E0,6.197410822E-1,-5.455635786E-1,-9.824630737E0
4.332548500E0,6.245267391E-1,-5.312066078E-1,-9.848558426E0
4.342262771E0,6.053841114E-1,-5.192425251E-1,-9.872487068E0
4.351976156E0,5.958128572E-1,-5.192425251E-1,-9.874879837E0
4.361688813E0,5.790630579E-1,-5.216353536E-1,-9.850952148E0
4.371402354E0,5.718846321E-1,-5.120640397E-1,-9.894022942E0
4.381116573E0,5.551348329E-1,-5.240281820E-1,-9.905986786E0
4.390829958E0,5.647061467E-1,-5.192425251E-1,-9.872487068E0
4.400542615E0,6.053841114E-1,-5.216353536E-1,-9.862915993E0
4.410256052E0,6.364908218E-1,-5.216353536E-1,-9.858130455E0
4.419970375E0,6.508477330E-1,-5.335994363E-1,-9.896415710E0
4.429683760E0,6.460621357E-1,-5.216353536E-1,-9.898808479E0
4.439396417E0,6.532405615E-1,-5.335994363E-1,-9.896415710E0
4.449109854E0,6.604190469E-1,-5.335994363E-1,-9.896415710E0
4.458824125E0,6.436693072E-1,-5.431707501E-1,-9.882058144E0
4.468537510E0,5.958128572E-1,-5.192425251E-1,-9.838987350E0
4.478250167E0,5.766702294E-1,-5.216353536E-1,-9.860523224E0
4.487963604E0,5.742774606E-1,-5.168496966E-1,-9.903594017E0
4.497677927E0,5.431707501E-1,-5.048855543E-1,-9.920642853E0
4.507391313E0,5.455635786E-1,-5.072783828E-1,-9.901201248E0
4.517103969E0,5.623133183E-1,-5.144568682E-1,-9.910772324E0
4.526817406E0,5.910272002E-1,-5.359922647E-1,-9.905986786E0
4.536531677E0,6.077769399E-1,-5.670989752E-1,-9.872487068E0
4.546245115E0,5.694918036E-1,-5.718846321E-1,-9.831809044E0
4.555957771E0,5.288137794E-1,-5.814558864E-1,-9.791131020E0
4.565671208E0,5.431707501E-1,-5.647061467E-1,-9.846165657E0
4.575385479E0,5.694918036E-1,-5.479564071E-1,-9.896415710E0
4.585098865E0,5.958128572E-1,-5.120640397E-1,-9.939785004E0
4.594811521E0,6.173482537E-1,-4.594219327E-1,-9.923035622E0
4.604524958E0,6.293123364E-1,-4.498506486E-1,-9.865308762E0
4.614239229E0,6.149554253E-1,-4.546363056E-1,-9.822237968E0
4.623952667E0,6.053841114E-1,-4.761717021E-1,-9.800702095E0
4.633665271E0,5.982056856E-1,-5.312066078E-1,-9.812666893E0
4.643378813E0,5.838487148E-1,-5.575276613E-1,-9.786345482E0
4.653093031E0,5.264210105E-1,-5.742774606E-1,-9.760024071E0
4.662806417E0,4.642075896E-1,-5.694918036E-1,-9.805487633E0
4.672519073E0,4.184448719E-1,-5.575276613E-1,-9.882058144E0
4.682232510E0,4.570291340E-1,-5.312066078E-1,-1.000678444E1
4.691946781E0,5.862415433E-1,-5.264210105E-1,-1.002592659E1
4.701660167E0,6.963114142E-1,-5.024927258E-1,-9.946963310E0
4.711372823E0,6.963114142E-1,-4.689932466E-1,-9.877272606E0
4.721086260E0,6.412764788E-1,-4.618147612E-1,-9.838987350E0
4.730800583E0,6.269195080E-1,-4.666004181E-1,-9.891630173E0
4.740513969E0,6.460621357E-1,-4.905286431E-1,-9.925428391E0
4.750226625E0,6.460621357E-1,-5.144568682E-1,-9.894022942E0
4.759940063E0,6.580262184E-1,-5.072783828E-1,-9.867701530E0
4.769654333E0,6.508477330E-1,-4.929214716E-1,-9.836594582E0
4.779367719E0,7.106683254E-1,-5.000999570E-1,-9.846165657E0
4.789080375E0,7.585247755E-1,-5.048855543E-1,-9.894022942E0
4.798793813E0,7.657032609E-1,-5.120640397E-1,-9.915857315E0
4.808508083E0,7.537391186E-1,-5.288137794E-1,-9.913165092E0
4.818221469E0,6.795616150E-1,-5.072783828E-1,-9.913165092E0
4.827934125E0,6.436693072E-1,-4.905286431E-1,-9.867701530E0
4.837647563E0,6.747759581E-1,-5.000999570E-1,-9.841380119E0
4.847361833E0,7.226324677E-1,-5.407779217E-1,-9.834201813E0
4.857075271E0,7.058826685E-1,-5.359922647E-1,-9.795916557E0
4.866787927E0,6.819544435E-1,-5.479564071E-1,-9.752845764E0
4.876501313E0,6.412764788E-1,-5.288137794E-1,-9.783952713E0
4.886215635E0,5.958128572E-1,-5.288137794E-1,-9.870094299E0
4.895929021E0,5.670989752E-1,-5.335994363E-1,-9.980463028E0
4.905641677E0,5.599204898E-1,-5.407779217E-1,-1.005942631E1
4.915355115E0,5.910272002E-1,-5.168496966E-1,-9.985248566E0
4.925069385E0,6.245267391E-1,-5.335994363E-1,-9.817452431E0
4.934782771E0,6.077769399E-1,-5.288137794E-1,-9.740881920E0
4.944495427E0,5.718846321E-1,-5.312066078E-1,-9.738489151E0
4.954208865E0,5.814558864E-1,-5.216353536E-1,-9.815059662E0
4.963923135E0,6.029912829E-1,-5.168496966E-1,-9.910772324E0
4.973636521E0,5.742774606E-1,-5.024927258E-1,-9.944570541E0
4.983349177E0,5.886343718E-1,-4.689932466E-1,-9.889236450E0
4.993062615E0,6.125625968E-1,-4.570291340E-1,-9.836594582E0
5.002776885E0,6.149554253E-1,-4.426721931E-1,-9.850952148E0
5.012490271E0,6.604190469E-1,-4.618147612E-1,-9.882058144E0
5.022202927E0,6.795616150E-1,-5.024927258E-1,-9.905986786E0
5.031916365E0,6.723831892E-1,-5.192425251E-1,-9.884450912E0
5.041630635E0,6.532405615E-1,-5.455635786E-1,-9.896415710E0
5.051344021E0,6.556333899E-1,-5.407779217E-1,-9.913165092E0
5.061056677E0,6.556333899E-1,-5.383850932E-1,-9.908379555E0
5.070770115E0,6.317051649E-1,-5.216353536E-1,-9.889236450E0
5.080484385E0,5.718846321E-1,-4.905286431E-1,-9.853344917E0
5.090197771E0,5.479564071E-1,-4.953143001E-1,-9.846165657E0
5.099910427E0,6.077769399E-1,-4.977070987E-1,-9.862915993E0
5.109623865E0,6.364908218E-1,-5.072783828E-1,-9.932606697E0
5.119338135E0,6.532405615E-1,-4.929214716E-1,-9.932606697E0
5.129051521E0,6.604190469E-1,-4.929214716E-1,-9.884450912E0
5.138764177E0,6.652047038E-1,-5.072783828E-1,-9.817452431E0
5.148477615E0,6.508477330E-1,-4.977070987E-1,-9.812666893E0
5.158191885E0,6.149554253E-1,-5.312066078E-1,-9.846165657E0
5.167905271E0,5.886343718E-1,-5.575276613E-1,-9.894022942E0
5.177617927E0,5.503492355E-1,-5.575276613E-1,-9.920642853E0
5.187331365E0,5.479564071E-1,-5.670989752E-1,-9.913165092E0
5.197045635E0,5.934200287E-1,-5.742774606E-1,-9.898808479E0
5.206759021E0,6.293123364E-1,-5.240281820E-1,-9.834201813E0
5.216471677E0,6.436693072E-1,-4.785645306E-1,-9.827023506E0
5.226185115E0,6.029912829E-1,-4.546363056E-1,-9.853344917E0
5.235899385E0,5.982056856E-1,-4.402793646E-1,-9.901201248E0
5.245612771E0,6.029912829E-1,-4.546363056E-1,-9.958928108E0
5.255325427E0,6.340979934E-1,-4.857429862E-1,-9.973284721E0
5.265038865E0,6.245267391E-1,-5.264210105E-1,-9.978070259E0
5.274753135E0,5.814558864E-1,-5.551348329E-1,-9.920642853E0
5.284466521E0,5.934200287E-1,-5.862415433E-1,-9.879665375E0
5.294179177E0,6.293123364E-1,-6.077769399E-1,-9.903594017E0
5.303892615E0,6.293123364E-1,-5.862415433E-1,-9.937392235E0
5.313606885E0,6.340979934E-1,-5.694918036E-1,-9.968499184E0
5.323320271E0,6.173482537E-1,-5.407779217E-1,-9.987641335E0
5.333032927E0,6.125625968E-1,-5.168496966E-1,-9.946963310E0
5.342746365E0,6.460621357E-1,-4.570291340E-1,-9.829416275E0
5.352460635E0,6.723831892E-1,-4.211367965E-1,-9.781559944E0
5.362174021E0,7.058826685E-1,-4.187439680E-1,-9.788738251E0
5.371886677E0,7.322037220E-1,-4.331009090E-1,-9.764810562E0
5.381600115E0,7.609176040E-1,-4.235295951E-1,-9.771988869E0
5.391314385E0,7.704889178E-1,-4.546363056E-1,-9.810274124E0
5.401027771E0,7.776673436E-1,-4.953143001E-1,-9.932606697E0
5.410740427E0,7.728816867E-1,-5.288137794E-1,-1.002592659E1
5.420453865E0,7.680960894E-1,-5.168496966E-1,-9.978070259E0
5.430168135E0,7.345965505E-1,-5.144568682E-1,-9.867701530E0
5.439881521E0,6.484549642E-1,-5.072783828E-1,-9.755238533E0
5.449594177E0,5.742774606E-1,-4.929214716E-1,-9.690632820E0
5.459307615E0,5.359922647E-1,-4.737788737E-1,-9.731310844E0
5.469021885E0,5.312066078E-1,-4.737788737E-1,-9.858130455E0
5.478735271E0,5.407779217E-1,-4.929214716E-1,-9.982855797E0
5.488447927E0,6.053841114E-1,-5.048855543E-1,-1.009053326E1
5.498161365E0,6.364908218E-1,-5.024927258E-1,-1.006899738E1
5.507875635E0,6.245267391E-1,-4.809573591E-1,-9.932606697E0
5.517589021E0,6.221339107E-1,-4.689932466E-1,-9.810274124E0
5.527301625E0,6.221339107E-1,-4.737788737E-1,-9.760024071E0
5.537015063E0,6.317051649E-1,-4.929214716E-1,-9.702596664E0
5.546729333E0,6.508477330E-1,-5.216353536E-1,-9.736096382E0
5.556442771E0,6.269195080E-1,-5.288137794E-1,-9.779167175E0
5.566155375E0,6.197410822E-1,-5.359922647E-1,-9.850952148E0
5.575868813E0,6.149554253E-1,-5.359922647E-1,-9.946963310E0
5.585583083E0,6.173482537E-1,-5.072783828E-1,-1.004267693E1
5.595296469E0,6.412764788E-1,-4.953143001E-1,-1.000917721E1
5.605009125E0,6.628118753E-1,-4.761717021E-1,-9.920642853E0
5.614722563E0,6.915257573E-1,-4.666004181E-1,-9.798309326E0
5.624436833E0,7.465606928E-1,-4.666004181E-1,-9.795916557E0
5.634150219E0,7.465606928E-1,-4.953143001E-1,-9.827023506E0
5.643862875E0,7.130611539E-1,-5.120640397E-1,-9.855737686E0
5.653576313E0,6.963114142E-1,-4.953143001E-1,-9.843772888E0
5.663290583E0,7.106683254E-1,-5.000999570E-1,-9.862915993E0
5.673003969E0,6.819544435E-1,-4.881358147E-1,-9.903594017E0
5.682716625E0,6.317051649E-1,-4.737788737E-1,-9.973284721E0
5.692430063E0,6.317051649E-1,-4.881358147E-1,-1.003310490E1
5.702144333E0,6.604190469E-1,-5.192425251E-1,-1.001396275E1
5.711857719E0,6.652047038E-1,-5.144568682E-1,-9.913165092E0
5.721570375E0,6.556333899E-1,-5.000999570E-1,-9.819845200E0
5.731283760E0,6.317051649E-1,-4.953143001E-1,-9.757631302E0
5.740998083E0,6.245267391E-1,-4.642075896E-1,-9.736096382E0
5.750711469E0,6.484549642E-1,-4.618147612E-1,-9.862915993E0
5.760424073E0,6.915257573E-1,-4.809573591E-1,-9.985248566E0
5.770137510E0,6.747759581E-1,-5.024927258E-1,-9.951749802E0
5.779851781E0,6.245267391E-1,-5.048855543E-1,-9.867701530E0
5.789565167E0,5.982056856E-1,-5.168496966E-1,-9.860523224E0
5.799277823E0,5.718846321E-1,-5.024927258E-1,-9.925428391E0
5.808991260E0,5.742774606E-1,-5.048855543E-1,-9.954142570E0
5.818705531E0,6.436693072E-1,-5.000999570E-1,-9.908379555E0
5.828418917E0,6.723831892E-1,-4.881358147E-1,-9.827023506E0
5.838131573E0,6.125625968E-1,-4.977070987E-1,-9.817452431E0
5.847845010E0,5.790630579E-1,-5.024927258E-1,-9.865308762E0
5.857559281E0,6.101697683E-1,-5.503492355E-1,-9.934999466E0
5.867272667E0,6.125625968E-1,-5.503492355E-1,-9.961320877E0
5.876985323E0,6.317051649E-1,-5.288137794E-1,-9.949356079E0
5.886698708E0,6.508477330E-1,-4.977070987E-1,-9.946963310E0
5.896413031E0,6.987041831E-1,-4.498506486E-1,-9.920642853E0
5.906126417E0,7.393822074E-1,-4.283152521E-1,-9.865308762E0
5.915839021E0,7.345965505E-1,-4.187439680E-1,-9.774381638E0
5.925552458E0,6.580262184E-1,-4.570291340E-1,-9.743274689E0
5.935266729E0,5.862415433E-1,-4.833501875E-1,-9.786345482E0
5.944980115E0,5.958128572E-1,-5.264210105E-1,-9.836594582E0
5.954692771E0,6.652047038E-1,-5.694918036E-1,-9.894022942E0
5.964406208E0,7.393822074E-1,-6.005984545E-1,-9.946963310E0
5.974120479E0,8.183453679E-1,-5.982056856E-1,-1.001156998E1
5.983833865E0,8.255237937E-1,-5.431707501E-1,-1.004267693E1
5.993546521E0,7.441678643E-1,-4.785645306E-1,-9.923035622E0
6.003259958E0,6.388836503E-1,-4.163511395E-1,-9.783952713E0
6.012974229E0,5.312066078E-1,-3.996013701E-1,-9.750452995E0
6.022687615E0,5.264210105E-1,-4.283152521E-1,-9.805487633E0
6.032400219E0,5.958128572E-1,-4.594219327E-1,-9.889236450E0
6.042113656E0,6.771687865E-1,-4.761717021E-1,-9.934999466E0
6.051827927E0,7.322037220E-1,-4.857429862E-1,-9.879665375E0
6.061541313E0,7.298108935E-1,-4.761717021E-1,-9.831809044E0
6.071253969E0,7.154539824E-1,-4.570291340E-1,-9.836594582E0
6.080967406E0,6.460621357E-1,-4.402793646E-1,-9.872487068E0
6.090681677E0,5.982056856E-1,-4.546363056E-1,-9.862915993E0
6.100395063E0,5.575276613E-1,-4.713860750E-1,-9.838987350E0
6.110107719E0,5.383850932E-1,-5.000999570E-1,-9.841380119E0
6.119821156E0,5.742774606E-1,-5.168496966E-1,-9.903594017E0
6.129535427E0,6.077769399E-1,-5.407779217E-1,-9.949356079E0
6.139248760E0,6.412764788E-1,-5.216353536E-1,-9.925428391E0
6.148961417E0,6.891329288E-1,-5.000999570E-1,-9.860523224E0
6.158674854E0,7.154539824E-1,-5.024927258E-1,-9.834201813E0
6.168389125E0,6.867401004E-1,-4.977070987E-1,-9.865308762E0
6.178102510E0,6.460621357E-1,-5.120640397E-1,-9.901201248E0
6.187815167E0,6.245267391E-1,-5.168496966E-1,-9.903594017E0
6.197528604E0,6.077769399E-1,-5.168496966E-1,-9.877272606E0
6.207242875E0,6.508477330E-1,-5.072783828E-1,-9.843772888E0
6.216956260E0,7.154539824E-1,-5.120640397E-1,-9.860523224E0
6.226668865E0,7.752745152E-1,-5.072783828E-1,-9.896415710E0
6.236382302E0,8.063812256E-1,-5.144568682E-1,-9.927821159E0
6.246096573E0,7.824530005E-1,-5.359922647E-1,-9.932606697E0
6.255809958E0,7.130611539E-1,-5.168496966E-1,-9.853344917E0
6.265522615E0,6.532405615E-1,-4.953143001E-1,-9.829416275E0
6.275236052E0,5.790630579E-1,-4.713860750E-1,-9.865308762E0
6.284950323E0,5.312066078E-1,-4.905286431E-1,-9.937392235E0
6.294663708E0,6.101697683E-1,-5.072783828E-1,-9.963713646E0
6.304376313E0,7.226324677E-1,-4.546363056E-1,-9.872487068E0
6.314089750E0,7.657032609E-1,-4.402793646E-1,-9.755238533E0
6.323804021E0,7.513462901E-1,-4.498506486E-1,-9.736096382E0
6.333517406E0,6.987041831E-1,-4.689932466E-1,-9.829416275E0
6.343230063E0,6.436693072E-1,-5.024927258E-1,-9.961320877E0
6.352943500E0,6.005984545E-1,-5.168496966E-1,-1.000678444E1
6.362657771E0,5.455635786E-1,-5.120640397E-1,-9.946963310E0
6.372371156E0,5.072783828E-1,-4.809573591E-1,-9.848558426E0
6.382083760E0,5.335994363E-1,-4.737788737E-1,-9.800702095E0
6.391797198E0,6.245267391E-1,-4.713860750E-1,-9.843772888E0
6.401511469E0,6.891329288E-1,-4.857429862E-1,-9.932606697E0
6.411224854E0,7.465606928E-1,-4.809573591E-1,-9.982855797E0
6.420937510E0,7.537391186E-1,-4.881358147E-1,-9.937392235E0
6.430650948E0,7.202396393E-1,-4.905286431E-1,-9.848558426E0
6.440365219E0,7.010970116E-1,-4.905286431E-1,-9.800702095E0
6.450078604E0,6.580262184E-1,-5.048855543E-1,-9.841380119E0
6.459791208E0,6.508477330E-1,-5.144568682E-1,-9.867701530E0
6.469504646E0,6.699903607E-1,-5.120640397E-1,-9.829416275E0
6.479218917E0,6.891329288E-1,-5.288137794E-1,-9.800702095E0
6.488932302E0,7.082754970E-1,-5.168496966E-1,-9.827023506E0
6.498644958E0,7.154539824E-1,-5.144568682E-1,-9.884450912E0
6.508358396E0,6.699903607E-1,-5.144568682E-1,-9.905986786E0
6.518072667E0,5.982056856E-1,-4.977070987E-1,-9.870094299E0
6.527786000E0,5.790630579E-1,-4.785645306E-1,-9.870094299E0
6.537498656E0,5.910272002E-1,-4.618147612E-1,-9.939785004E0
6.547212094E0,6.388836503E-1,-4.378865361E-1,-9.934999466E0
6.556926365E0,6.604190469E-1,-4.402793646E-1,-9.831809044E0
6.566639750E0,6.580262184E-1,-4.498506486E-1,-9.733703613E0
6.576352406E0,6.484549642E-1,-4.833501875E-1,-9.755238533E0
6.586065792E0,6.173482537E-1,-5.216353536E-1,-9.889236450E0
6.595780063E0,5.910272002E-1,-5.479564071E-1,-1.000678444E1
6.605493448E0,6.269195080E-1,-5.742774606E-1,-1.003310490E1
6.615206104E0,6.843472719E-1,-5.718846321E-1,-1.001874828E1
6.624919542E0,7.322037220E-1,-5.790630579E-1,-9.982855797E0
6.634633813E0,7.298108935E-1,-5.790630579E-1,-9.932606697E0
6.644347146E0,7.154539824E-1,-5.312066078E-1,-9.855737686E0
6.654059802E0,6.771687865E-1,-4.713860750E-1,-9.829416275E0
6.663773240E0,6.652047038E-1,-4.307080805E-1,-9.860523224E0
6.673487510E0,7.082754970E-1,-4.091726840E-1,-9.901201248E0
6.683200896E0,7.154539824E-1,-4.378865361E-1,-9.858130455E0
6.692913552E0,7.010970116E-1,-4.546363056E-1,-9.822237968E0
6.702626938E0,6.628118753E-1,-4.546363056E-1,-9.843772888E0
6.712341208E0,6.340979934E-1,-4.809573591E-1,-9.872487068E0
6.722054594E0,6.771687865E-1,-5.048855543E-1,-9.920642853E0
6.731767250E0,7.417750359E-1,-5.312066078E-1,-9.927821159E0
6.741480688E0,7.848458290E-1,-5.551348329E-1,-9.846165657E0
6.751194958E0,7.609176040E-1,-5.503492355E-1,-9.776774406E0
6.760908344E0,7.178468108E-1,-5.551348329E-1,-9.786345482E0
6.770620948E0,6.699903607E-1,-5.455635786E-1,-9.879665375E0
6.780334385E0,6.125625968E-1,-5.096712112E-1,-9.951749802E0
6.790048656E0,5.934200287E-1,-4.977070987E-1,-1.000199890E1
6.799762042E0,6.340979934E-1,-4.833501875E-1,-1.004746246E1
6.809474698E0,6.843472719E-1,-5.024927258E-1,-9.990034103E0
6.819188083E0,7.010970116E-1,-4.905286431E-1,-9.800702095E0
6.828902354E0,6.484549642E-1,-4.929214716E-1,-9.647562027E0
6.838615740E0,6.197410822E-1,-4.857429862E-1,-9.654740334E0
6.848328396E0,6.125625968E-1,-5.168496966E-1,-9.767203331E0
6.858041833E0,6.556333899E-1,-5.312066078E-1,-9.958928108E0
6.867756104E0,6.436693072E-1,-5.455635786E-1,-1.006181908E1
6.877469438E0,6.412764788E-1,-5.144568682E-1,-1.004506969E1
6.887182094E0,6.723831892E-1,-4.833501875E-1,-9.951749802E0
6.896895531E0,6.795616150E-1,-4.905286431E-1,-9.865308762E0
6.906609802E0,6.077769399E-1,-4.833501875E-1,-9.805487633E0
6.916323188E0,5.814558864E-1,-4.713860750E-1,-9.774381638E0
6.926035844E0,6.317051649E-1,-4.737788737E-1,-9.834201813E0
6.935749229E0,6.843472719E-1,-4.977070987E-1,-9.908379555E0
6.945463500E0,7.130611539E-1,-5.240281820E-1,-9.980463028E0
6.955176885E0,6.987041831E-1,-5.264210105E-1,-9.994820595E0
6.964889542E0,6.580262184E-1,-5.240281820E-1,-9.946963310E0
6.974602979E0,6.532405615E-1,-5.048855543E-1,-9.855737686E0
6.984317250E0,6.364908218E-1,-4.833501875E-1,-9.774381638E0
6.994030583E0,6.221339107E-1,-4.929214716E-1,-9.738489151E0
7.003743240E0,6.317051649E-1,-4.857429862E-1,-9.781559944E0
7.013456677E0,6.723831892E-1,-4.905286431E-1,-9.867701530E0
7.023170948E0,6.987041831E-1,-5.216353536E-1,-9.898808479E0
7.032884333E0,7.250252366E-1,-5.096712112E-1,-9.932606697E0
7.042596938E0,6.939185858E-1,-5.000999570E-1,-1.003310490E1
7.052310375E0,6.245267391E-1,-4.785645306E-1,-1.004267693E1
7.062024646E0,6.484549642E-1,-4.618147612E-1,-9.980463028E0
7.071738031E0,6.652047038E-1,-4.737788737E-1,-9.848558426E0
7.081450688E0,6.699903607E-1,-5.144568682E-1,-9.803094864E0
7.091164073E0,6.891329288E-1,-5.551348329E-1,-9.855737686E0
7.100878344E0,6.939185858E-1,-5.814558864E-1,-9.970891953E0
7.110591729E0,7.202396393E-1,-5.599204898E-1,-9.958928108E0
7.120304385E0,7.106683254E-1,-5.168496966E-1,-9.829416275E0
7.130017823E0,6.675975323E-1,-4.977070987E-1,-9.743274689E0
7.139732042E0,5.958128572E-1,-4.833501875E-1,-9.721739769E0
7.149445427E0,6.197410822E-1,-4.713860750E-1,-9.884450912E0
7.159158083E0,6.604190469E-1,-4.761717021E-1,-1.003789139E1
7.168871521E0,6.843472719E-1,-4.570291340E-1,-9.975677490E0
7.178585792E0,7.130611539E-1,-4.546363056E-1,-9.838987350E0
7.188299177E0,6.795616150E-1,-4.618147612E-1,-9.824630737E0
7.198011781E0,5.958128572E-1,-4.666004181E-1,-9.829416275E0
7.207725219E0,5.623133183E-1,-4.953143001E-1,-9.800702095E0
7.217439490E0,5.575276613E-1,-5.288137794E-1,-9.798309326E0
7.227152875E0,5.479564071E-1,-5.623133183E-1,-9.846165657E0
7.236865479E0,6.053841114E-1,-5.718846321E-1,-9.978070259E0
7.246578917E0,6.771687865E-1,-5.814558864E-1,-1.004506969E1
7.256293188E0,7.345965505E-1,-5.551348329E-1,-1.002114105E1
7.266006573E0,7.298108935E-1,-4.785645306E-1,-9.927821159E0
7.275719229E0,6.699903607E-1,-4.426721931E-1,-9.855737686E0
7.285432667E0,6.125625968E-1,-4.450650215E-1,-9.855737686E0
7.295146885E0,6.340979934E-1,-4.570291340E-1,-9.891630173E0
7.304860271E0,7.250252366E-1,-4.857429862E-1,-9.951749802E0
7.314572927E0,7.513462901E-1,-5.144568682E-1,-9.944570541E0
7.324286365E0,7.561319470E-1,-5.120640397E-1,-9.836594582E0
7.334000635E0,7.202396393E-1,-4.881358147E-1,-9.738489151E0
7.343713969E0,6.412764788E-1,-4.498506486E-1,-9.755238533E0
7.353426625E0,5.886343718E-1,-4.426721931E-1,-9.853344917E0
7.363140063E0,5.623133183E-1,-4.666004181E-1,-9.944570541E0
7.372854333E0,6.053841114E-1,-5.144568682E-1,-9.994820595E0
7.382567719E0,6.939185858E-1,-5.455635786E-1,-9.975677490E0
7.392280323E0,7.130611539E-1,-5.551348329E-1,-9.877272606E0
7.401993760E0,6.556333899E-1,-5.288137794E-1,-9.771988869E0
7.411708031E0,5.958128572E-1,-5.096712112E-1,-9.791131020E0
7.421421417E0,5.886343718E-1,-5.048855543E-1,-9.855737686E0
7.431134021E0,6.269195080E-1,-4.977070987E-1,-9.932606697E0
7.440847458E0,6.293123364E-1,-5.024927258E-1,-9.951749802E0
7.450561729E0,6.197410822E-1,-5.072783828E-1,-9.901201248E0
7.460275115E0,6.053841114E-1,-5.024927258E-1,-9.834201813E0
7.469987771E0,6.101697683E-1,-5.048855543E-1,-9.803094864E0
7.479701156E0,6.532405615E-1,-5.096712112E-1,-9.819845200E0
7.489415427E0,6.699903607E-1,-5.216353536E-1,-9.882058144E0
7.499128813E0,7.106683254E-1,-5.718846321E-1,-9.934999466E0
7.508841469E0,6.987041831E-1,-5.647061467E-1,-9.973284721E0
7.518554906E0,6.771687865E-1,-5.407779217E-1,-9.954142570E0
7.528269177E0,6.293123364E-1,-5.072783828E-1,-9.855737686E0
7.537982510E0,6.053841114E-1,-4.666004181E-1,-9.776774406E0
7.547695167E0,6.628118753E-1,-4.689932466E-1,-9.803094864E0
7.557408604E0,7.106683254E-1,-4.737788737E-1,-9.934999466E0
7.567122875E0,7.034898400E-1,-4.570291340E-1,-9.973284721E0
7.576836208E0,6.915257573E-1,-4.689932466E-1,-9.882058144E0
7.586548865E0,6.699903607E-1,-4.929214716E-1,-9.769596100E0
7.596262302E0,6.484549642E-1,-5.240281820E-1,-9.738489151E0
7.605976573E0,6.293123364E-1,-5.312066078E-1,-9.812666893E0
7.615689958E0,6.460621357E-1,-5.240281820E-1,-9.934999466E0
7.625402563E0,6.652047038E-1,-5.120640397E-1,-1.006421185E1
7.635116000E0,6.867401004E-1,-5.096712112E-1,-1.008814049E1
7.644830271E0,6.604190469E-1,-4.785645306E-1,-9.961320877E0
7.654543656E0,6.029912829E-1,-4.713860750E-1,-9.767203331E0
7.664256260E0,5.479564071E-1,-4.929214716E-1,-9.695418358E0
7.673969698E0,5.718846321E-1,-5.288137794E-1,-9.762416840E0
7.683683969E0,6.317051649E-1,-5.455635786E-1,-9.898808479E0
7.693397354E0,6.747759581E-1,-5.359922647E-1,-1.008096218E1
7.703110010E0,6.747759581E-1,-5.192425251E-1,-1.013599682E1
7.712823396E0,6.580262184E-1,-4.905286431E-1,-9.985248566E0
7.722537667E0,5.742774606E-1,-4.881358147E-1,-9.791131020E0
7.732251052E0,5.168496966E-1,-4.689932466E-1,-9.704989433E0
7.741963708E0,5.192425251E-1,-4.881358147E-1,-9.738489151E0
7.751677094E0,6.029912829E-1,-5.072783828E-1,-9.848558426E0
7.761391365E0,6.771687865E-1,-5.264210105E-1,-9.923035622E0
7.771104750E0,7.034898400E-1,-5.527420044E-1,-9.944570541E0
7.780817406E0,6.723831892E-1,-5.264210105E-1,-9.937392235E0
7.790530792E0,6.364908218E-1,-4.929214716E-1,-9.939785004E0
7.800245063E0,6.197410822E-1,-4.905286431E-1,-9.860523224E0
7.809958448E0,5.694918036E-1,-4.713860750E-1,-9.803094864E0
7.819671104E0,5.264210105E-1,-4.594219327E-1,-9.812666893E0
7.829384490E0,5.527420044E-1,-4.689932466E-1,-9.889236450E0
7.839098760E0,6.556333899E-1,-5.216353536E-1,-9.934999466E0
7.848812146E0,7.226324677E-1,-5.312066078E-1,-9.927821159E0
7.858524802E0,7.537391186E-1,-5.407779217E-1,-9.894022942E0
7.868238188E0,7.441678643E-1,-5.431707501E-1,-9.786345482E0
7.877952458E0,6.939185858E-1,-5.240281820E-1,-9.728918076E0
7.887665844E0,6.604190469E-1,-5.120640397E-1,-9.805487633E0
7.897378500E0,6.317051649E-1,-4.977070987E-1,-9.884450912E0
7.907091885E0,6.029912829E-1,-4.833501875E-1,-9.944570541E0
7.916806156E0,6.149554253E-1,-4.905286431E-1,-1.004267693E1
7.926519542E0,6.532405615E-1,-4.785645306E-1,-1.008096218E1
7.936232198E0,6.939185858E-1,-4.857429862E-1,-9.978070259E0
7.945945583E0,7.034898400E-1,-4.689932466E-1,-9.800702095E0
7.955659854E0,6.317051649E-1,-4.905286431E-1,-9.637990952E0
7.965373240E0,6.053841114E-1,-4.737788737E-1,-9.649954796E0
7.975085896E0,5.790630579E-1,-5.000999570E-1,-9.862915993E0
7.984799281E0,5.982056856E-1,-5.264210105E-1,-1.003310490E1
7.994513552E0,6.460621357E-1,-5.335994363E-1,-1.007856941E1
8.004226938E0,6.604190469E-1,-5.072783828E-1,-9.987641335E0
8.013939594E0,6.293123364E-1,-4.833501875E-1,-9.855737686E0
8.023652979E0,5.694918036E-1,-4.833501875E-1,-9.714560509E0
8.033367250E0,5.527420044E-1,-4.905286431E-1,-9.716953278E0
8.043080635E0,5.694918036E-1,-5.144568682E-1,-9.891630173E0
8.052793292E0,6.077769399E-1,-4.929214716E-1,-1.000917721E1
8.062506677E0,6.412764788E-1,-5.048855543E-1,-9.999606133E0
8.072220948E0,6.699903607E-1,-5.096712112E-1,-9.884450912E0
8.081934333E0,6.508477330E-1,-5.264210105E-1,-9.795916557E0
8.091646938E0,5.862415433E-1,-5.288137794E-1,-9.805487633E0
8.101360375E0,5.359922647E-1,-5.144568682E-1,-9.855737686E0
8.111074646E0,5.264210105E-1,-5.096712112E-1,-9.853344917E0
8.120788031E0,5.575276613E-1,-5.168496966E-1,-9.903594017E0
8.130500635E0,5.958128572E-1,-5.216353536E-1,-9.958928108E0
8.140214073E0,6.484549642E-1,-4.977070987E-1,-9.954142570E0
8.149928344E0,6.891329288E-1,-4.785645306E-1,-9.882058144E0
8.159641729E0,7.417750359E-1,-4.713860750E-1,-9.762416840E0
8.169354333E0,7.441678643E-1,-4.666004181E-1,-9.695418358E0
8.179067771E0,6.891329288E-1,-4.833501875E-1,-9.738489151E0
8.188782042E0,6.317051649E-1,-5.096712112E-1,-9.930213928E0
8.198495427E0,5.766702294E-1,-5.096712112E-1,-1.010010433E1
8.208208031E0,5.024927258E-1,-4.881358147E-1,-1.012881851E1
8.217921469E0,5.072783828E-1,-4.666004181E-1,-9.982855797E0
8.227635740E0,5.503492355E-1,-4.546363056E-1,-9.860523224E0
8.237349073E0,5.934200287E-1,-4.546363056E-1,-9.800702095E0
8.247061729E0,6.364908218E-1,-4.642075896E-1,-9.788738251E0
8.256775167E0,7.010970116E-1,-4.977070987E-1,-9.838987350E0
8.266489438E0,7.728816867E-1,-5.120640397E-1,-9.872487068E0
8.276202771E0,7.680960894E-1,-5.000999570E-1,-9.886843681E0
8.285915427E0,7.010970116E-1,-4.857429862E-1,-9.853344917E0
8.295628865E0,6.675975323E-1,-4.689932466E-1,-9.817452431E0
8.305343083E0,6.221339107E-1,-4.642075896E-1,-9.860523224E0
8.315056469E0,5.623133183E-1,-4.546363056E-1,-9.910772324E0
8.324769125E0,5.479564071E-1,-4.713860750E-1,-9.918250084E0
8.334482510E0,5.551348329E-1,-4.953143001E-1,-9.918250084E0
8.344196781E0,5.862415433E-1,-5.503492355E-1,-9.903594017E0
8.353910167E0,6.101697683E-1,-5.647061467E-1,-9.908379555E0
8.363622771E0,6.652047038E-1,-5.742774606E-1,-9.927821159E0
8.373336208E0,6.987041831E-1,-5.479564071E-1,-9.923035622E0
8.383050479E0,6.843472719E-1,-5.312066078E-1,-9.910772324E0
8.392763865E0,6.197410822E-1,-4.809573591E-1,-9.877272606E0
8.402476469E0,5.694918036E-1,-4.546363056E-1,-9.822237968E0
8.412189906E0,5.670989752E-1,-4.187439680E-1,-9.748060226E0
8.421904177E0,5.575276613E-1,-4.091726840E-1,-9.767203331E0
8.431617510E0,5.407779217E-1,-4.354937077E-1,-9.850952148E0
8.441330167E0,5.383850932E-1,-4.689932466E-1,-9.949356079E0
8.451043604E0,5.718846321E-1,-5.072783828E-1,-9.963713646E0
8.460757823E0,6.269195080E-1,-5.264210105E-1,-9.910772324E0
8.470471208E0,6.221339107E-1,-5.503492355E-1,-9.879665375E0
8.480183865E0,6.029912829E-1,-5.503492355E-1,-9.858130455E0
8.489897250E0,5.838487148E-1,-5.312066078E-1,-9.901201248E0
8.499611521E0,5.982056856E-1,-5.288137794E-1,-9.925428391E0
8.509324906E0,6.436693072E-1,-5.024927258E-1,-9.891630173E0
8.519037510E0,6.580262184E-1,-4.689932466E-1,-9.862915993E0
8.528750948E0,6.963114142E-1,-4.450650215E-1,-9.930213928E0
8.538465219E0,6.963114142E-1,-4.235295951E-1,-9.944570541E0
8.548178552E0,6.867401004E-1,-4.163511395E-1,-9.905986786E0
8.557891208E0,6.364908218E-1,-4.331009090E-1,-9.838987350E0
8.567604646E0,5.934200287E-1,-4.522434771E-1,-9.771988869E0
8.577318865E0,5.479564071E-1,-4.570291340E-1,-9.767203331E0
8.587032250E0,5.192425251E-1,-4.546363056E-1,-9.829416275E0
8.596744854E0,5.647061467E-1,-4.809573591E-1,-9.891630173E0
8.606458292E0,6.747759581E-1,-5.216353536E-1,-9.966106415E0
8.616172563E0,7.752745152E-1,-5.527420044E-1,-9.990034103E0
8.625885948E0,7.513462901E-1,-5.527420044E-1,-1.000917721E1
8.635598552E0,6.675975323E-1,-5.431707501E-1,-9.975677490E0
8.645311990E0,5.814558864E-1,-5.216353536E-1,-9.855737686E0
8.655026260E0,5.288137794E-1,-4.881358147E-1,-9.752845764E0
8.664739594E0,4.929214716E-1,-4.498506486E-1,-9.697811127E0
8.674452250E0,5.144568682E-1,-4.426721931E-1,-9.728918076E0
8.684165635E0,6.005984545E-1,-4.713860750E-1,-9.810274124E0
8.693879906E0,6.436693072E-1,-4.977070987E-1,-9.925428391E0
8.703593292E0,6.771687865E-1,-5.431707501E-1,-9.982855797E0
8.713305896E0,6.580262184E-1,-5.312066078E-1,-9.999606133E0
8.723019333E0,5.958128572E-1,-5.168496966E-1,-9.978070259E0
8.732733604E0,5.670989752E-1,-4.929214716E-1,-9.841380119E0
8.742446938E0,5.527420044E-1,-4.618147612E-1,-9.788738251E0
8.752159594E0,5.790630579E-1,-4.737788737E-1,-9.822237968E0
8.761872979E0,6.436693072E-1,-4.881358147E-1,-9.882058144E0
8.771587250E0,6.987041831E-1,-5.024927258E-1,-9.939785004E0
8.781300635E0,6.987041831E-1,-4.881358147E-1,-9.910772324E0
8.791013240E0,6.652047038E-1,-4.905286431E-1,-9.862915993E0
8.800726677E0,6.245267391E-1,-4.713860750E-1,-9.860523224E0
8.810440948E0,5.718846321E-1,-4.522434771E-1,-9.905986786E0
8.820154281E0,5.599204898E-1,-4.522434771E-1,-9.934999466E0
8.829866938E0,5.910272002E-1,-4.570291340E-1,-9.946963310E0
8.839580375E0,6.460621357E-1,-4.761717021E-1,-9.937392235E0
8.849294594E0,6.891329288E-1,-4.905286431E-1,-9.934999466E0
8.859007979E0,6.891329288E-1,-5.024927258E-1,-9.894022942E0
8.868720583E0,6.723831892E-1,-4.977070987E-1,-9.779167175E0
8.878434021E0,6.484549642E-1,-4.905286431E-1,-9.702596664E0
8.888148292E0,6.053841114E-1,-4.833501875E-1,-9.693025589E0
8.897861625E0,5.383850932E-1,-4.761717021E-1,-9.788738251E0
8.907574281E0,5.240281820E-1,-4.833501875E-1,-9.937392235E0
8.917287667E0,5.479564071E-1,-4.905286431E-1,-1.007378292E1
8.927001938E0,5.718846321E-1,-4.642075896E-1,-1.008814049E1
8.936715323E0,5.934200287E-1,-4.666004181E-1,-9.961320877E0
8.946427927E0,6.125625968E-1,-4.785645306E-1,-9.836594582E0
8.956141365E0,6.340979934E-1,-5.288137794E-1,-9.755238533E0
8.965855635E0,6.963114142E-1,-5.383850932E-1,-9.767203331E0
8.975568969E0,6.939185858E-1,-5.359922647E-1,-9.776774406E0
8.985281625E0,6.484549642E-1,-5.216353536E-1,-9.783952713E0
8.994995010E0,6.053841114E-1,-4.929214716E-1,-9.853344917E0
9.004709281E0,5.982056856E-1,-4.570291340E-1,-9.968499184E0
9.014422667E0,6.053841114E-1,-4.163511395E-1,-1.003310490E1
9.024135271E0,5.647061467E-1,-4.019941986E-1,-9.980463028E0
9.033848708E0,5.527420044E-1,-3.948157430E-1,-9.865308762E0
9.043562927E0,5.359922647E-1,-4.618147612E-1,-9.750452995E0
9.053276313E0,5.551348329E-1,-5.096712112E-1,-9.774381638E0
9.062988917E0,5.958128572E-1,-5.455635786E-1,-9.886843681E0
9.072702354E0,6.293123364E-1,-5.766702294E-1,-9.956535339E0
9.082416625E0,7.130611539E-1,-6.101697683E-1,-9.956535339E0
9.092129958E0,7.322037220E-1,-5.910272002E-1,-9.946963310E0
9.101842615E0,6.939185858E-1,-5.527420044E-1,-9.908379555E0
9.111556000E0,6.221339107E-1,-4.809573591E-1,-9.901201248E0
9.121270271E0,6.125625968E-1,-4.091726840E-1,-9.879665375E0
9.130983656E0,5.934200287E-1,-3.804588020E-1,-9.838987350E0
9.140696260E0,6.125625968E-1,-3.804588020E-1,-9.791131020E0
9.150409698E0,6.412764788E-1,-4.235295951E-1,-9.843772888E0
9.160123917E0,6.628118753E-1,-4.666004181E-1,-9.913165092E0
9.169837302E0,6.484549642E-1,-4.905286431E-1,-9.905986786E0
9.179549906E0,5.886343718E-1,-5.072783828E-1,-9.827023506E0
9.189263344E0,5.623133183E-1,-5.024927258E-1,-9.779167175E0
9.198977615E0,5.718846321E-1,-4.905286431E-1,-9.829416275E0
9.208690948E0,6.197410822E-1,-4.785645306E-1,-9.865308762E0
9.218403604E0,6.364908218E-1,-4.857429862E-1,-9.872487068E0
9.228116990E0,6.221339107E-1,-4.977070987E-1,-9.884450912E0
9.237831260E0,6.149554253E-1,-5.144568682E-1,-9.894022942E0
9.247544594E0,6.125625968E-1,-5.312066078E-1,-9.908379555E0
9.257257250E0,5.982056856E-1,-5.072783828E-1,-9.886843681E0
9.266970635E0,6.173482537E-1,-4.953143001E-1,-9.903594017E0
9.276684906E0,6.029912829E-1,-4.905286431E-1,-9.829416275E0
9.286398292E0,5.407779217E-1,-4.953143001E-1,-9.719346046E0
9.296110896E0,5.144568682E-1,-4.857429862E-1,-9.724132538E0
9.305824333E0,4.977070987E-1,-4.929214716E-1,-9.855737686E0
9.315538552E0,6.053841114E-1,-5.048855543E-1,-1.001396275E1
9.325251938E0,7.298108935E-1,-5.455635786E-1,-1.007856941E1
9.334964542E0,7.992027402E-1,-6.077769399E-1,-1.009531879E1
9.344677979E0,7.393822074E-1,-6.005984545E-1,-1.000199890E1
9.354392198E0,6.125625968E-1,-5.790630579E-1,-9.834201813E0
9.364105583E0,5.431707501E-1,-5.168496966E-1,-9.781559944E0
9.373818188E0,5.000999570E-1,-4.905286431E-1,-9.817452431E0
9.383531625E0,5.024927258E-1,-4.666004181E-1,-9.848558426E0
9.393245896E0,5.910272002E-1,-4.666004181E-1,-9.874879837E0
9.402959229E0,6.939185858E-1,-4.737788737E-1,-9.923035622E0
9.412671885E0,6.963114142E-1,-5.072783828E-1,-9.958928108E0
9.422385271E0,5.742774606E-1,-5.168496966E-1,-9.882058144E0
9.432099542E0,4.474578202E-1,-5.024927258E-1,-9.803094864E0
9.441812875E0,3.681955934E-1,-5.000999570E-1,-9.781559944E0
9.451525531E0,3.849453330E-1,-5.024927258E-1,-9.805487633E0
9.461238917E0,5.431707501E-1,-5.096712112E-1,-9.843772888E0
9.470953188E0,7.082754970E-1,-4.953143001E-1,-9.901201248E0
9.480666521E0,7.728816867E-1,-4.785645306E-1,-9.918250084E0
9.490379177E0,6.963114142E-1,-4.498506486E-1,-9.867701530E0
9.500092563E0,5.647061467E-1,-4.594219327E-1,-9.836594582E0
9.509806833E0,4.929214716E-1,-5.168496966E-1,-9.865308762E0
9.519520167E0,5.096712112E-1,-5.527420044E-1,-9.966106415E0
9.529232823E0,5.910272002E-1,-5.647061467E-1,-1.004506969E1
9.538946208E0,6.628118753E-1,-5.718846321E-1,-9.997213364E0
9.548660479E0,6.699903607E-1,-5.718846321E-1,-9.956535339E0
9.558373865E0,6.173482537E-1,-5.407779217E-1,-9.908379555E0
9.568086469E0,5.431707501E-1,-5.048855543E-1,-9.853344917E0
9.577799854E0,5.192425251E-1,-4.809573591E-1,-9.819845200E0
9.587514125E0,4.785645306E-1,-4.618147612E-1,-9.791131020E0
9.597227510E0,5.024927258E-1,-4.570291340E-1,-9.810274124E0
9.606940115E0,5.790630579E-1,-4.546363056E-1,-9.930213928E0
9.616653500E0,6.269195080E-1,-4.618147612E-1,-9.990034103E0
9.626367771E0,6.508477330E-1,-5.024927258E-1,-9.894022942E0
9.636081156E0,6.221339107E-1,-5.335994363E-1,-9.793523788E0
9.645793760E0,5.647061467E-1,-5.623133183E-1,-9.738489151E0
9.655507146E0,5.670989752E-1,-5.694918036E-1,-9.795916557E0
9.665221417E0,5.455635786E-1,-5.862415433E-1,-9.891630173E0
9.674934802E0,5.192425251E-1,-5.527420044E-1,-1.000199890E1
9.684647406E0,4.977070987E-1,-5.264210105E-1,-1.001635551E1
9.694360844E0,5.479564071E-1,-5.024927258E-1,-9.927821159E0
9.704075063E0,5.934200287E-1,-4.689932466E-1,-9.843772888E0
9.713788448E0,5.647061467E-1,-4.354937077E-1,-9.781559944E0
9.723501052E0,5.910272002E-1,-4.307080805E-1,-9.791131020E0
9.733214490E0,6.340979934E-1,-4.618147612E-1,-9.867701530E0
9.742928708E0,6.795616150E-1,-4.929214716E-1,-9.930213928E0
9.752642042E0,6.652047038E-1,-4.929214716E-1,-9.913165092E0
9.762354698E0,6.293123364E-1,-4.929214716E-1,-9.836594582E0
9.772068083E0,5.670989752E-1,-4.929214716E-1,-9.812666893E0
9.781782354E0,5.264210105E-1,-4.833501875E-1,-9.903594017E0
9.791495688E0,5.670989752E-1,-4.977070987E-1,-9.992427826E0
9.801208344E0,6.005984545E-1,-5.000999570E-1,-1.002353382E1
9.810921729E0,6.269195080E-1,-5.096712112E-1,-9.925428391E0
9.820636000E0,6.340979934E-1,-5.359922647E-1,-9.810274124E0
9.830349333E0,6.101697683E-1,-5.240281820E-1,-9.805487633E0
9.840061990E0,5.670989752E-1,-5.192425251E-1,-9.886843681E0
9.849775375E0,5.718846321E-1,-5.024927258E-1,-9.910772324E0
9.859489646E0,5.862415433E-1,-4.881358147E-1,-9.838987350E0
9.869202979E0,5.982056856E-1,-4.857429862E-1,-9.838987350E0
9.878915635E0,5.838487148E-1,-4.857429862E-1,-9.889236450E0
9.888629021E0,5.790630579E-1,-5.096712112E-1,-9.910772324E0
9.898343292E0,5.934200287E-1,-5.216353536E-1,-9.860523224E0
9.908056625E0,5.910272002E-1,-5.312066078E-1,-9.805487633E0
9.917769229E0,5.742774606E-1,-5.192425251E-1,-9.829416275E0
9.927482667E0,5.431707501E-1,-5.024927258E-1,-9.896415710E0
9.937196938E0,5.503492355E-1,-5.072783828E-1,-9.939785004E0
9.946910271E0,5.886343718E-1,-5.216353536E-1,-9.942177773E0
9.956622875E0,5.886343718E-1,-4.929214716E-1,-9.942177773E0
9.966336313E0,5.766702294E-1,-4.666004181E-1,-9.913165092E0
9.976050531E0,5.790630579E-1,-4.666004181E-1,-9.827023506E0
9.985763917E0,6.197410822E-1,-4.713860750E-1,-9.774381638E0
9.995476521E0,6.364908218E-1,-4.857429862E-1,-9.776774406E0
1.000518991E1,6.819544435E-1,-4.929214716E-1,-9.807881355E0
1.001490418E1,7.082754970E-1,-4.881358147E-1,-9.872487068E0
1.002461756E1,6.915257573E-1,-4.881358147E-1,-9.905986786E0
1.003433017E1,6.604190469E-1,-4.929214716E-1,-9.951749802E0
1.004404355E1,5.910272002E-1,-4.833501875E-1,-9.992427826E0
1.005375782E1,5.168496966E-1,-5.000999570E-1,-9.985248566E0
1.006347116E1,5.383850932E-1,-5.288137794E-1,-9.939785004E0
1.007318381E1,5.886343718E-1,-5.024927258E-1,-9.862915993E0
1.008289720E1,6.436693072E-1,-4.881358147E-1,-9.769596100E0
1.009261147E1,6.580262184E-1,-4.594219327E-1,-9.752845764E0
1.010232480E1,6.221339107E-1,-4.570291340E-1,-9.812666893E0
1.011203741E1,5.766702294E-1,-4.833501875E-1,-9.882058144E0
1.012175084E1,5.335994363E-1,-5.096712112E-1,-9.963713646E0
1.013146506E1,4.953143001E-1,-5.407779217E-1,-1.000678444E1
1.014117845E1,4.905286431E-1,-5.407779217E-1,-1.002114105E1
1.015089105E1,5.120640397E-1,-5.503492355E-1,-9.985248566E0
1.016060449E1,5.383850932E-1,-5.192425251E-1,-9.903594017E0
1.017031871E1,5.838487148E-1,-5.192425251E-1,-9.771988869E0
1.018003209E1,6.101697683E-1,-5.024927258E-1,-9.688240051E0
1.018974470E1,5.766702294E-1,-4.809573591E-1,-9.731310844E0
1.019945808E1,5.264210105E-1,-4.713860750E-1,-9.867701530E0
1.020917235E1,5.024927258E-1,-4.666004181E-1,-9.958928108E0
1.021888569E1,4.809573591E-1,-4.713860750E-1,-1.004267693E1
1.022859834E1,4.881358147E-1,-4.953143001E-1,-1.003310490E1
1.023831173E1,5.216353536E-1,-5.096712112E-1,-9.954142570E0
1.024802600E1,5.670989752E-1,-4.857429862E-1,-9.848558426E0
1.025773933E1,6.077769399E-1,-4.905286431E-1,-9.771988869E0
1.026745194E1,6.699903607E-1,-5.120640397E-1,-9.791131020E0
1.027716538E1,7.082754970E-1,-5.575276613E-1,-9.891630173E0
1.028687959E1,7.154539824E-1,-5.766702294E-1,-9.961320877E0
1.029659298E1,6.795616150E-1,-5.599204898E-1,-9.966106415E0
1.030630558E1,6.556333899E-1,-4.953143001E-1,-9.944570541E0
1.031601902E1,6.317051649E-1,-4.331009090E-1,-9.913165092E0
1.032573324E1,6.293123364E-1,-4.163511395E-1,-9.915857315E0
1.033544663E1,6.125625968E-1,-4.426721931E-1,-9.898808479E0
1.034515923E1,6.149554253E-1,-4.666004181E-1,-9.862915993E0
1.035487267E1,6.221339107E-1,-4.881358147E-1,-9.877272606E0
1.036458689E1,6.197410822E-1,-5.096712112E-1,-9.901201248E0
1.037430022E1,6.436693072E-1,-5.240281820E-1,-9.927821159E0
1.038401288E1,6.556333899E-1,-5.335994363E-1,-9.898808479E0
1.039372626E1,6.508477330E-1,-5.288137794E-1,-9.810274124E0
1.040344053E1,6.101697683E-1,-5.048855543E-1,-9.755238533E0
1.041315386E1,5.312066078E-1,-4.881358147E-1,-9.827023506E0
1.042286652E1,4.713860750E-1,-4.857429862E-1,-9.923035622E0
1.043257991E1,4.881358147E-1,-4.689932466E-1,-1.001156998E1
1.044229418E1,5.623133183E-1,-4.713860750E-1,-1.002114105E1
1.045200751E1,6.221339107E-1,-4.785645306E-1,-9.954142570E0
1.046172012E1,6.101697683E-1,-4.881358147E-1,-9.870094299E0
1.047143355E1,6.125625968E-1,-5.168496966E-1,-9.795916557E0
1.048114782E1,6.197410822E-1,-5.288137794E-1,-9.805487633E0
1.049086116E1,5.766702294E-1,-5.407779217E-1,-9.858130455E0
1.050057376E1,5.694918036E-1,-5.216353536E-1,-9.915857315E0
1.051028720E1,5.527420044E-1,-5.120640397E-1,-9.966106415E0
1.052000142E1,5.694918036E-1,-5.264210105E-1,-9.994820595E0
1.052971480E1,5.982056856E-1,-5.168496966E-1,-9.966106415E0
1.053942741E1,5.718846321E-1,-5.048855543E-1,-9.930213928E0
1.054914084E1,5.479564071E-1,-4.833501875E-1,-9.886843681E0
1.055885506E1,5.814558864E-1,-4.809573591E-1,-9.862915993E0
1.056856845E1,6.317051649E-1,-4.833501875E-1,-9.838987350E0
1.057828105E1,6.747759581E-1,-4.785645306E-1,-9.800702095E0
1.058799444E1,6.963114142E-1,-4.905286431E-1,-9.822237968E0
1.059770871E1,6.269195080E-1,-5.000999570E-1,-9.894022942E0
1.060742209E1,6.388836503E-1,-5.024927258E-1,-9.939785004E0
1.061713470E1,6.556333899E-1,-4.761717021E-1,-9.958928108E0
1.062684808E1,6.221339107E-1,-4.785645306E-1,-9.954142570E0
1.063656235E1,6.053841114E-1,-4.857429862E-1,-9.901201248E0
1.064627569E1,5.766702294E-1,-5.024927258E-1,-9.896415710E0
1.065598834E1,5.694918036E-1,-5.024927258E-1,-9.886843681E0
1.066570173E1,6.053841114E-1,-5.024927258E-1,-9.913165092E0
1.067541600E1,6.580262184E-1,-5.168496966E-1,-9.915857315E0
1.068512933E1,6.556333899E-1,-5.240281820E-1,-9.925428391E0
1.069484199E1,6.388836503E-1,-5.216353536E-1,-9.918250084E0
1.070455538E1,6.436693072E-1,-5.120640397E-1,-9.843772888E0
1.071426965E1,6.436693072E-1,-4.977070987E-1,-9.824630737E0
1.072398298E1,5.910272002E-1,-4.929214716E-1,-9.903594017E0
1.073369558E1,5.575276613E-1,-5.072783828E-1,-9.978070259E0
1.074340902E1,5.455635786E-1,-5.072783828E-1,-1.000439167E1
1.075312329E1,5.431707501E-1,-4.953143001E-1,-9.927821159E0
1.076283662E1,5.527420044E-1,-4.761717021E-1,-9.771988869E0
1.077254923E1,5.335994363E-1,-4.570291340E-1,-9.673882484E0
1.078226267E1,4.713860750E-1,-4.689932466E-1,-9.702596664E0
1.079197694E1,4.450650215E-1,-4.618147612E-1,-9.838987350E0
1.080169027E1,4.402793646E-1,-4.737788737E-1,-9.987641335E0
1.081140288E1,4.378865361E-1,-5.072783828E-1,-1.001635551E1
1.082111631E1,4.328017831E-1,-5.312066078E-1,-9.985248566E0
1.083083058E1,4.232304990E-1,-5.168496966E-1,-9.978070259E0
1.084054392E1,4.905286431E-1,-4.953143001E-1,-9.934999466E0
1.085025652E1,6.005984545E-1,-4.689932466E-1,-9.891630173E0
1.085996996E1,6.939185858E-1,-4.666004181E-1,-9.860523224E0
1.086968418E1,7.202396393E-1,-4.785645306E-1,-9.795916557E0
1.087939756E1,7.058826685E-1,-4.881358147E-1,-9.750452995E0
1.088911017E1,6.317051649E-1,-5.000999570E-1,-9.776774406E0
1.089882360E1,6.173482537E-1,-4.905286431E-1,-9.908379555E0
1.090853782E1,6.149554253E-1,-4.977070987E-1,-1.006660461E1
1.091825121E1,6.029912829E-1,-4.833501875E-1,-1.010010433E1
1.092796381E1,6.077769399E-1,-4.713860750E-1,-9.997213364E0
1.093767725E1,6.269195080E-1,-4.474578202E-1,-9.874879837E0
1.094739147E1,6.675975323E-1,-4.450650215E-1,-9.781559944E0
1.095710485E1,6.652047038E-1,-4.594219327E-1,-9.752845764E0
1.096681746E1,6.891329288E-1,-4.953143001E-1,-9.836594582E0
1.097653084E1,7.226324677E-1,-5.288137794E-1,-9.944570541E0
1.098624512E1,7.322037220E-1,-5.335994363E-1,-9.973284721E0
1.099595850E1,6.963114142E-1,-5.312066078E-1,-9.944570541E0
1.100567110E1,6.245267391E-1,-5.192425251E-1,-9.930213928E0
1.101538449E1,5.455635786E-1,-4.857429862E-1,-9.886843681E0
1.102509876E1,4.857429862E-1,-4.594219327E-1,-9.817452431E0
1.103481215E1,4.666004181E-1,-4.689932466E-1,-9.776774406E0
1.104452475E1,4.761717021E-1,-4.953143001E-1,-9.822237968E0
1.105423819E1,4.977070987E-1,-5.168496966E-1,-9.913165092E0
1.106395241E1,6.053841114E-1,-5.359922647E-1,-9.954142570E0
1.107366579E1,6.675975323E-1,-5.335994363E-1,-9.918250084E0
1.108337840E1,6.005984545E-1,-5.096712112E-1,-9.858130455E0
1.109309178E1,5.192425251E-1,-4.833501875E-1,-9.827023506E0
1.110280605E1,4.713860750E-1,-4.666004181E-1,-9.882058144E0
1.111251944E1,5.096712112E-1,-4.666004181E-1,-9.939785004E0
1.112223204E1,5.479564071E-1,-4.905286431E-1,-9.937392235E0
1.113194543E1,5.599204898E-1,-4.953143001E-1,-9.850952148E0
1.114165970E1,5.742774606E-1,-4.881358147E-1,-9.795916557E0
1.115137303E1,6.005984545E-1,-4.689932466E-1,-9.817452431E0
1.116108569E1,6.197410822E-1,-4.618147612E-1,-9.884450912E0
1.117079907E1,6.221339107E-1,-4.761717021E-1,-9.925428391E0
1.118051334E1,6.245267391E-1,-4.713860750E-1,-9.949356079E0
1.119022668E1,6.029912829E-1,-4.498506486E-1,-9.932606697E0
1.119993933E1,6.101697683E-1,-4.259224236E-1,-9.954142570E0
1.120965272E1,6.388836503E-1,-4.307080805E-1,-9.956535339E0
1.121936699E1,6.388836503E-1,-4.522434771E-1,-9.901201248E0
1.122908032E1,6.197410822E-1,-4.857429862E-1,-9.791131020E0
1.123879298E1,5.862415433E-1,-4.977070987E-1,-9.702596664E0
1.124850636E1,5.814558864E-1,-5.192425251E-1,-9.776774406E0
1.125822064E1,5.910272002E-1,-5.312066078E-1,-9.884450912E0
1.126793397E1,6.053841114E-1,-5.168496966E-1,-1.001396275E1
1.127764663E1,5.670989752E-1,-5.192425251E-1,-1.007617569E1
1.128736001E1,5.407779217E-1,-5.000999570E-1,-1.000678444E1
1.129707428E1,5.551348329E-1,-4.833501875E-1,-9.891630173E0
1.130678762E1,5.647061467E-1,-4.833501875E-1,-9.815059662E0
1.131650027E1,5.670989752E-1,-4.905286431E-1,-9.836594582E0
1.132621366E1,5.407779217E-1,-4.905286431E-1,-9.815059662E0
1.133592793E1,5.335994363E-1,-4.905286431E-1,-9.834201813E0
1.134564126E1,5.407779217E-1,-4.833501875E-1,-9.884450912E0
1.135535387E1,5.766702294E-1,-4.522434771E-1,-9.886843681E0
1.136506730E1,5.958128572E-1,-4.307080805E-1,-9.862915993E0
1.137478152E1,6.077769399E-1,-4.115654826E-1,-9.843772888E0
1.138449491E1,5.599204898E-1,-4.354937077E-1,-9.858130455E0
1.139420751E1,4.881358147E-1,-4.785645306E-1,-9.872487068E0
1.140392095E1,5.048855543E-1,-5.335994363E-1,-9.918250084E0
1.141363522E1,5.790630579E-1,-5.670989752E-1,-9.956535339E0
1.142334855E1,6.556333899E-1,-5.838487148E-1,-9.968499184E0
1.143306116E1,6.987041831E-1,-5.718846321E-1,-9.937392235E0
1.144277459E1,6.699903607E-1,-5.288137794E-1,-9.891630173E0
1.145248881E1,6.388836503E-1,-4.689932466E-1,-9.872487068E0
1.146220220E1,6.077769399E-1,-4.522434771E-1,-9.886843681E0
1.147191480E1,5.694918036E-1,-4.211367965E-1,-9.905986786E0
1.148162824E1,5.647061467E-1,-4.283152521E-1,-9.934999466E0
1.149134246E1,5.838487148E-1,-4.546363056E-1,-9.961320877E0
1.150105584E1,5.766702294E-1,-4.689932466E-1,-9.958928108E0
1.151076845E1,5.431707501E-1,-4.498506486E-1,-9.872487068E0
1.152048183E1,5.383850932E-1,-4.474578202E-1,-9.771988869E0
1.153019610E1,5.694918036E-1,-4.522434771E-1,-9.740881920E0
1.153990949E1,6.053841114E-1,-4.594219327E-1,-9.793523788E0
1.154962209E1,6.101697683E-1,-4.761717021E-1,-9.865308762E0
1.155933548E1,6.029912829E-1,-5.000999570E-1,-9.963713646E0
1.156904975E1,5.910272002E-1,-5.192425251E-1,-1.000678444E1
1.157876308E1,5.694918036E-1,-5.168496966E-1,-9.946963310E0
1.158847574E1,5.264210105E-1,-5.048855543E-1,-9.918250084E0
1.159818913E1,5.168496966E-1,-4.905286431E-1,-9.870094299E0
1.160790340E1,5.694918036E-1,-4.929214716E-1,-9.860523224E0
1.161761673E1,6.149554253E-1,-4.857429862E-1,-9.800702095E0
1.162732939E1,5.958128572E-1,-5.168496966E-1,-9.771988869E0
1.163704277E1,5.527420044E-1,-5.335994363E-1,-9.822237968E0
1.164675704E1,5.168496966E-1,-5.359922647E-1,-9.891630173E0
1.165647038E1,5.359922647E-1,-5.383850932E-1,-9.966106415E0
1.166618298E1,5.575276613E-1,-5.168496966E-1,-9.985248566E0
1.167589642E1,6.005984545E-1,-4.929214716E-1,-9.905986786E0
1.168561064E1,6.245267391E-1,-4.785645306E-1,-9.836594582E0
1.169532402E1,6.245267391E-1,-4.642075896E-1,-9.822237968E0
1.170503662E1,6.556333899E-1,-4.354937077E-1,-9.838987350E0
1.171475006E1,6.508477330E-1,-4.522434771E-1,-9.819845200E0
1.172446428E1,5.670989752E-1,-4.761717021E-1,-9.846165657E0
1.173417767E1,4.929214716E-1,-4.977070987E-1,-9.963713646E0
1.174389027E1,4.546363056E-1,-4.977070987E-1,-1.002353382E1
1.175360366E1,5.120640397E-1,-4.905286431E-1,-9.987641335E0
1.176331793E1,6.221339107E-1,-4.713860750E-1,-9.915857315E0
1.177303126E1,6.604190469E-1,-4.666004181E-1,-9.838987350E0
1.178274392E1,6.436693072E-1,-4.666004181E-1,-9.771988869E0
1.179245730E1,6.340979934E-1,-4.689932466E-1,-9.810274124E0
1.180217157E1,6.580262184E-1,-4.713860750E-1,-9.846165657E0
1.181188491E1,6.819544435E-1,-4.642075896E-1,-9.889236450E0
1.182159756E1,6.340979934E-1,-4.713860750E-1,-9.894022942E0
1.183131095E1,5.670989752E-1,-4.857429862E-1,-9.874879837E0
1.184102522E1,4.953143001E-1,-4.809573591E-1,-9.872487068E0
1.185073855E1,4.881358147E-1,-4.977070987E-1,-9.901201248E0
1.186045116E1,5.551348329E-1,-5.288137794E-1,-9.975677490E0
1.187016459E1,5.934200287E-1,-5.479564071E-1,-9.990034103E0
1.187987881E1,6.197410822E-1,-5.383850932E-1,-9.942177773E0
1.188959220E1,6.508477330E-1,-5.264210105E-1,-9.884450912E0
1.189930480E1,6.077769399E-1,-5.120640397E-1,-9.846165657E0
1.190901819E1,5.551348329E-1,-4.737788737E-1,-9.812666893E0
1.191873246E1,5.192425251E-1,-4.546363056E-1,-9.800702095E0
1.192844579E1,4.953143001E-1,-4.450650215E-1,-9.810274124E0
1.193815845E1,5.192425251E-1,-4.402793646E-1,-9.853344917E0
1.194787183E1,5.886343718E-1,-4.426721931E-1,-9.879665375E0
1.195758610E1,6.388836503E-1,-4.833501875E-1,-9.905986786E0
1.196729944E1,6.699903607E-1,-4.953143001E-1,-9.910772324E0
1.197701204E1,6.652047038E-1,-5.407779217E-1,-9.910772324E0
1.198672548E1,6.412764788E-1,-5.647061467E-1,-9.920642853E0
1.199643975E1,5.838487148E-1,-5.910272002E-1,-9.925428391E0
1.200615308E1,5.335994363E-1,-5.742774606E-1,-9.905986786E0
1.201586569E1,5.048855543E-1,-5.694918036E-1,-9.846165657E0
1.202557912E1,5.216353536E-1,-5.168496966E-1,-9.848558426E0
1.203529334E1,6.029912829E-1,-4.809573591E-1,-9.925428391E0
1.204500673E1,6.508477330E-1,-4.283152521E-1,-1.000199890E1
1.205471933E1,6.580262184E-1,-3.876372576E-1,-9.994820595E0
1.206443272E1,6.436693072E-1,-3.924229145E-1,-9.872487068E0
1.207414699E1,6.173482537E-1,-4.235295951E-1,-9.795916557E0
1.208386032E1,5.264210105E-1,-4.618147612E-1,-9.798309326E0
1.209357298E1,4.642075896E-1,-4.761717021E-1,-9.752845764E0
1.210328636E1,4.594219327E-1,-4.857429862E-1,-9.743274689E0
1.211300064E1,5.120640397E-1,-5.120640397E-1,-9.831809044E0
1.212271397E1,5.742774606E-1,-5.335994363E-1,-9.958928108E0
1.213242657E1,6.101697683E-1,-5.288137794E-1,-1.003310490E1
1.214214001E1,5.862415433E-1,-5.096712112E-1,-9.982855797E0
1.215185423E1,5.551348329E-1,-5.144568682E-1,-9.865308762E0
1.216156762E1,5.551348329E-1,-4.905286431E-1,-9.774381638E0
1.217128022E1,5.551348329E-1,-4.666004181E-1,-9.798309326E0
1.218099360E1,5.599204898E-1,-4.450650215E-1,-9.822237968E0
1.219070788E1,6.077769399E-1,-4.474578202E-1,-9.848558426E0
1.220042121E1,6.867401004E-1,-4.737788737E-1,-9.894022942E0
1.221013381E1,6.987041831E-1,-5.144568682E-1,-9.932606697E0
1.221984725E1,6.580262184E-1,-5.623133183E-1,-9.980463028E0
1.222956147E1,5.670989752E-1,-5.742774606E-1,-9.978070259E0
1.223927485E1,5.431707501E-1,-5.670989752E-1,-9.946963310E0
1.224898746E1,5.455635786E-1,-5.527420044E-1,-9.891630173E0
1.225870084E1,5.886343718E-1,-5.288137794E-1,-9.872487068E0
1.226841512E1,6.005984545E-1,-5.096712112E-1,-9.905986786E0
1.227812845E1,6.221339107E-1,-4.809573591E-1,-9.925428391E0
1.228784110E1,6.340979934E-1,-4.618147612E-1,-9.891630173E0
1.229755449E1,6.221339107E-1,-4.546363056E-1,-9.884450912E0
1.230726876E1,5.814558864E-1,-4.522434771E-1,-9.877272606E0
1.231698209E1,5.503492355E-1,-4.570291340E-1,-9.858130455E0
1.232669470E1,5.096712112E-1,-4.378865361E-1,-9.822237968E0
1.233640814E1,4.522434771E-1,-4.163511395E-1,-9.805487633E0
1.234612235E1,4.522434771E-1,-4.187439680E-1,-9.769596100E0
1.235583569E1,4.977070987E-1,-4.570291340E-1,-9.795916557E0
1.236554834E1,5.814558864E-1,-5.120640397E-1,-9.829416275E0
1.237526173E1,6.197410822E-1,-5.407779217E-1,-9.903594017E0
1.238497600E1,6.221339107E-1,-5.455635786E-1,-9.975677490E0
1.239468933E1,6.340979934E-1,-5.264210105E-1,-1.003549862E1
1.240440194E1,6.460621357E-1,-4.977070987E-1,-1.003789139E1
1.241411538E1,6.843472719E-1,-4.761717021E-1,-9.966106415E0
1.242382959E1,6.675975323E-1,-4.594219327E-1,-9.874879837E0
1.243354293E1,6.029912829E-1,-4.474578202E-1,-9.831809044E0
1.244325558E1,5.407779217E-1,-4.761717021E-1,-9.805487633E0
1.245296897E1,5.407779217E-1,-4.833501875E-1,-9.803094864E0
1.246268324E1,5.431707501E-1,-5.072783828E-1,-9.831809044E0
1.247239657E1,5.264210105E-1,-5.096712112E-1,-9.800702095E0
1.248210918E1,5.383850932E-1,-4.929214716E-1,-9.829416275E0
1.249182262E1,5.527420044E-1,-4.761717021E-1,-9.925428391E0
1.250153683E1,5.958128572E-1,-4.761717021E-1,-1.001396275E1
1.251125017E1,6.604190469E-1,-4.474578202E-1,-1.002831936E1
1.252096282E1,6.364908218E-1,-4.259224236E-1,-9.949356079E0
1.253067621E1,5.623133183E-1,-4.331009090E-1,-9.865308762E0
1.254039048E1,4.977070987E-1,-4.737788737E-1,-9.815059662E0
1.255010381E1,4.953143001E-1,-5.096712112E-1,-9.786345482E0
1.255981642E1,5.455635786E-1,-5.168496966E-1,-9.762416840E0
1.256952980E1,6.125625968E-1,-5.479564071E-1,-9.807881355E0
1.257924407E1,6.388836503E-1,-5.407779217E-1,-9.927821159E0
1.258895741E1,6.197410822E-1,-5.359922647E-1,-1.003071213E1
1.259867006E1,6.029912829E-1,-5.096712112E-1,-1.001874828E1
1.260838345E1,5.790630579E-1,-4.713860750E-1,-9.961320877E0
1.261809767E1,5.120640397E-1,-4.211367965E-1,-9.867701530E0
1.262781105E1,4.905286431E-1,-3.852444589E-1,-9.824630737E0
1.263752366E1,5.335994363E-1,-4.019941986E-1,-9.815059662E0
1.264723704E1,6.364908218E-1,-4.378865361E-1,-9.848558426E0
1.265695131E1,7.034898400E-1,-4.713860750E-1,-9.923035622E0
1.266666465E1,6.843472719E-1,-5.000999570E-1,-9.944570541E0
1.267637725E1,6.293123364E-1,-4.905286431E-1,-9.834201813E0
1.268609069E1,5.766702294E-1,-4.785645306E-1,-9.743274689E0
1.269580491E1,5.407779217E-1,-4.881358147E-1,-9.807881355E0
1.270551829E1,5.694918036E-1,-5.072783828E-1,-9.944570541E0
1.271523090E1,5.934200287E-1,-5.192425251E-1,-1.002831936E1
1.272494428E1,5.982056856E-1,-5.048855543E-1,-9.937392235E0
1.273465855E1,6.077769399E-1,-4.833501875E-1,-9.810274124E0
1.274437189E1,5.766702294E-1,-4.809573591E-1,-9.800702095E0
1.275408449E1,5.455635786E-1,-4.809573591E-1,-9.848558426E0
1.276379793E1,5.312066078E-1,-4.809573591E-1,-9.915857315E0
1.277351215E1,5.431707501E-1,-4.809573591E-1,-9.923035622E0
1.278322548E1,5.575276613E-1,-4.809573591E-1,-9.877272606E0
1.279293814E1,5.838487148E-1,-4.713860750E-1,-9.884450912E0
1.280265152E1,6.053841114E-1,-4.905286431E-1,-9.879665375E0
1.281236574E1,6.149554253E-1,-4.857429862E-1,-9.853344917E0
1.282207912E1,5.670989752E-1,-4.785645306E-1,-9.867701530E0
1.283179173E1,5.383850932E-1,-4.833501875E-1,-9.831809044E0
1.284150512E1,5.718846321E-1,-4.953143001E-1,-9.824630737E0
1.285121938E1,6.245267391E-1,-4.953143001E-1,-9.870094299E0
1.286093272E1,6.221339107E-1,-4.881358147E-1,-9.949356079E0
1.287064532E1,6.029912829E-1,-4.833501875E-1,-9.985248566E0
1.288035876E1,5.647061467E-1,-4.713860750E-1,-9.975677490E0
1.289007298E1,5.647061467E-1,-4.546363056E-1,-9.944570541E0
1.289978631E1,5.862415433E-1,-4.402793646E-1,-9.855737686E0
1.290949892E1,6.053841114E-1,-4.498506486E-1,-9.807881355E0
1.291921235E1,6.149554253E-1,-4.689932466E-1,-9.798309326E0
1.292892657E1,6.364908218E-1,-4.713860750E-1,-9.850952148E0
1.293863996E1,6.173482537E-1,-4.642075896E-1,-9.894022942E0
1.294835256E1,5.838487148E-1,-4.642075896E-1,-9.882058144E0
1.295806595E1,5.838487148E-1,-4.809573591E-1,-9.846165657E0
1.296778022E1,6.005984545E-1,-5.096712112E-1,-9.867701530E0
1.297749355E1,6.029912829E-1,-4.929214716E-1,-9.920642853E0
1.298720616E1,5.910272002E-1,-4.785645306E-1,-9.982855797E0
1.299691954E1,5.790630579E-1,-4.881358147E-1,-9.992427826E0
1.300663381E1,5.623133183E-1,-4.977070987E-1,-9.932606697E0
1.301634715E1,5.575276613E-1,-4.977070987E-1,-9.848558426E0
1.302605975E1,5.431707501E-1,-4.785645306E-1,-9.810274124E0
1.303577314E1,5.527420044E-1,-4.546363056E-1,-9.836594582E0
1.304548741E1,5.670989752E-1,-4.737788737E-1,-9.853344917E0
1.305520074E1,5.934200287E-1,-4.833501875E-1,-9.865308762E0
1.306491334E1,6.053841114E-1,-4.809573591E-1,-9.872487068E0
1.307462678E1,6.125625968E-1,-4.689932466E-1,-9.886843681E0
1.308434100E1,6.029912829E-1,-4.666004181E-1,-9.877272606E0
1.309405439E1,5.742774606E-1,-4.618147612E-1,-9.884450912E0
1.310376699E1,5.527420044E-1,-4.546363056E-1,-9.889236450E0
1.311348038E1,5.575276613E-1,-4.642075896E-1,-9.901201248E0
1.312319459E1,5.551348329E-1,-4.785645306E-1,-9.884450912E0
1.313290798E1,5.766702294E-1,-4.929214716E-1,-9.877272606E0
1.314262058E1,5.766702294E-1,-5.168496966E-1,-9.908379555E0
1.315233397E1,6.029912829E-1,-5.120640397E-1,-9.942177773E0
1.316204824E1,6.173482537E-1,-5.144568682E-1,-9.937392235E0
1.317176157E1,6.460621357E-1,-4.905286431E-1,-9.882058144E0
1.318147418E1,6.556333899E-1,-4.594219327E-1,-9.805487633E0
1.319118756E1,6.149554253E-1,-4.450650215E-1,-9.800702095E0
1.320090183E1,5.551348329E-1,-4.331009090E-1,-9.882058144E0
1.321061517E1,5.479564071E-1,-4.498506486E-1,-9.915857315E0
1.322032777E1,5.383850932E-1,-4.426721931E-1,-9.942177773E0
1.323004116E1,5.575276613E-1,-4.450650215E-1,-9.927821159E0
1.323975543E1,5.886343718E-1,-4.498506486E-1,-9.877272606E0
1.324946876E1,6.077769399E-1,-4.498506486E-1,-9.807881355E0
1.325918137E1,6.029912829E-1,-4.642075896E-1,-9.803094864E0
1.326889475E1,6.101697683E-1,-4.881358147E-1,-9.867701530E0
1.327860902E1,5.982056856E-1,-5.024927258E-1,-9.942177773E0
1.328832235E1,6.173482537E-1,-5.240281820E-1,-1.001635551E1
1.329803496E1,6.101697683E-1,-5.192425251E-1,-1.000439167E1
1.330774840E1,6.269195080E-1,-5.024927258E-1,-9.944570541E0
1.331746262E1,6.245267391E-1,-4.522434771E-1,-9.865308762E0
1.332717595E1,5.838487148E-1,-4.307080805E-1,-9.788738251E0
1.333688855E1,5.742774606E-1,-4.307080805E-1,-9.769596100E0
1.334660199E1,5.670989752E-1,-4.426721931E-1,-9.805487633E0
1.335631621E1,5.599204898E-1,-4.666004181E-1,-9.838987350E0
1.336602954E1,5.599204898E-1,-4.881358147E-1,-9.874879837E0
1.337574215E1,5.958128572E-1,-5.120640397E-1,-9.867701530E0
1.338545558E1,6.269195080E-1,-5.024927258E-1,-9.853344917E0
1.339516980E1,6.317051649E-1,-5.168496966E-1,-9.898808479E0
1.340488314E1,6.221339107E-1,-5.000999570E-1,-9.992427826E0
1.341459579E1,6.101697683E-1,-4.833501875E-1,-9.997213364E0
1.342430918E1,6.269195080E-1,-4.570291340E-1,-9.932606697E0
1.343402340E1,6.293123364E-1,-4.450650215E-1,-9.848558426E0
1.344373673E1,6.101697683E-1,-4.426721931E-1,-9.774381638E0
1.345344938E1,5.407779217E-1,-4.522434771E-1,-9.731310844E0
1.346316277E1,4.905286431E-1,-4.761717021E-1,-9.788738251E0
1.347287699E1,4.905286431E-1,-4.977070987E-1,-9.858130455E0
1.348259038E1,5.335994363E-1,-5.000999570E-1,-9.956535339E0
1.349230298E1,5.479564071E-1,-4.857429862E-1,-1.001874828E1
1.350201637E1,5.766702294E-1,-4.689932466E-1,-9.985248566E0
1.351173058E1,6.077769399E-1,-4.354937077E-1,-9.949356079E0
1.352144392E1,6.245267391E-1,-4.283152521E-1,-9.923035622E0
1.353115657E1,6.364908218E-1,-4.091726840E-1,-9.882058144E0
1.354086996E1,6.652047038E-1,-4.283152521E-1,-9.848558426E0
1.355058418E1,6.125625968E-1,-4.498506486E-1,-9.817452431E0
1.356029756E1,5.814558864E-1,-4.689932466E-1,-9.836594582E0
1.357001017E1,6.029912829E-1,-4.905286431E-1,-9.862915993E0
1.357972355E1,6.484549642E-1,-4.977070987E-1,-9.872487068E0
1.358943777E1,6.269195080E-1,-5.120640397E-1,-9.927821159E0
1.359915110E1,6.053841114E-1,-5.048855543E-1,-9.982855797E0
1.360886376E1,5.910272002E-1,-4.713860750E-1,-1.000439167E1
1.361857715E1,5.718846321E-1,-4.450650215E-1,-9.963713646E0
1.362829136E1,5.910272002E-1,-4.283152521E-1,-9.846165657E0
1.363800470E1,5.694918036E-1,-4.115654826E-1,-9.776774406E0
1.364771730E1,5.599204898E-1,-4.211367965E-1,-9.798309326E0
1.365743074E1,5.862415433E-1,-4.402793646E-1,-9.879665375E0
1.366714496E1,5.934200287E-1,-4.570291340E-1,-9.886843681E0
1.367685829E1,5.958128572E-1,-4.713860750E-1,-9.848558426E0
1.368657095E1,5.814558864E-1,-5.168496966E-1,-9.841380119E0
1.369628433E1,5.670989752E-1,-5.359922647E-1,-9.894022942E0
1.370599855E1,5.359922647E-1,-5.096712112E-1,-9.918250084E0
1.371571189E1,5.120640397E-1,-5.048855543E-1,-9.905986786E0
1.372542449E1,5.240281820E-1,-4.761717021E-1,-9.874879837E0
1.373513793E1,5.838487148E-1,-4.546363056E-1,-9.803094864E0
1.374485215E1,6.580262184E-1,-4.283152521E-1,-9.755238533E0
1.375456548E1,6.675975323E-1,-4.187439680E-1,-9.791131020E0
1.376427808E1,6.197410822E-1,-3.996013701E-1,-9.910772324E0
1.377399147E1,5.958128572E-1,-3.900300860E-1,-1.000199890E1
1.378370574E1,5.910272002E-1,-4.163511395E-1,-1.003310490E1
1.379341907E1,6.221339107E-1,-4.426721931E-1,-9.968499184E0
1.380313168E1,6.077769399E-1,-4.642075896E-1,-9.903594017E0
1.381284506E1,5.790630579E-1,-4.522434771E-1,-9.846165657E0
1.382255933E1,5.670989752E-1,-4.402793646E-1,-9.786345482E0
1.383227267E1,5.886343718E-1,-4.689932466E-1,-9.817452431E0
1.384198527E1,5.958128572E-1,-4.642075896E-1,-9.882058144E0
1.385169866E1,6.101697683E-1,-4.546363056E-1,-9.918250084E0
1.386141293E1,6.293123364E-1,-4.498506486E-1,-9.937392235E0
1.387112626E1,6.317051649E-1,-4.426721931E-1,-9.927821159E0
1.388083887E1,5.814558864E-1,-4.307080805E-1,-9.915857315E0
1.389055225E1,5.527420044E-1,-4.331009090E-1,-9.884450912E0
1.390026647E1,5.431707501E-1,-4.450650215E-1,-9.834201813E0
1.390997985E1,5.694918036E-1,-4.737788737E-1,-9.762416840E0
1.391969246E1,5.934200287E-1,-4.809573591E-1,-9.788738251E0
1.392940584E1,6.221339107E-1,-5.096712112E-1,-9.920642853E0
1.393912006E1,6.173482537E-1,-5.264210105E-1,-1.002831936E1
1.394883340E1,6.125625968E-1,-5.000999570E-1,-1.003071213E1
1.395854605E1,6.101697683E-1,-4.785645306E-1,-9.889236450E0
1.396825944E1,5.790630579E-1,-4.450650215E-1,-9.791131020E0
1.397797366E1,5.814558864E-1,-4.378865361E-1,-9.781559944E0
1.398768699E1,5.982056856E-1,-4.426721931E-1,-9.846165657E0
1.399739959E1,6.101697683E-1,-4.450650215E-1,-9.841380119E0
1.400711303E1,6.388836503E-1,-4.450650215E-1,-9.836594582E0
1.401682725E1,6.556333899E-1,-4.474578202E-1,-9.853344917E0
1.402654058E1,6.221339107E-1,-4.450650215E-1,-9.923035622E0
1.403625319E1,5.575276613E-1,-4.354937077E-1,-9.918250084E0
1.404596657E1,5.431707501E-1,-4.187439680E-1,-9.913165092E0
1.405568084E1,5.575276613E-1,-4.211367965E-1,-9.901201248E0
1.406539418E1,5.982056856E-1,-4.378865361E-1,-9.901201248E0
1.407510678E1,6.508477330E-1,-4.809573591E-1,-9.939785004E0
1.408482017E1,6.532405615E-1,-4.977070987E-1,-9.978070259E0
1.409453444E1,6.436693072E-1,-4.833501875E-1,-9.946963310E0
1.410424777E1,5.910272002E-1,-4.450650215E-1,-9.848558426E0
1.411396038E1,5.718846321E-1,-4.259224236E-1,-9.815059662E0
1.412367376E1,5.934200287E-1,-4.091726840E-1,-9.805487633E0
1.413338798E1,6.173482537E-1,-4.235295951E-1,-9.819845200E0
1.414310131E1,6.029912829E-1,-4.426721931E-1,-9.834201813E0
1.415281392E1,5.623133183E-1,-4.666004181E-1,-9.843772888E0
1.416252735E1,5.575276613E-1,-4.905286431E-1,-9.850952148E0
1.417224157E1,5.335994363E-1,-4.905286431E-1,-9.930213928E0
1.418195491E1,5.288137794E-1,-4.953143001E-1,-9.985248566E0
1.419166751E1,5.670989752E-1,-4.809573591E-1,-9.999606133E0
1.420138090E1,5.742774606E-1,-4.426721931E-1,-9.920642853E0
1.421109517E1,5.910272002E-1,-4.163511395E-1,-9.817452431E0
1.422080850E1,5.886343718E-1,-4.211367965E-1,-9.776774406E0
1.423052110E1,5.790630579E-1,-4.139583111E-1,-9.783952713E0
1.424023449E1,5.838487148E-1,-4.187439680E-1,-9.841380119E0
1.424994871E1,5.766702294E-1,-4.618147612E-1,-9.932606697E0
1.425966209E1,5.335994363E-1,-5.024927258E-1,-9.980463028E0
1.426937470E1,5.455635786E-1,-5.359922647E-1,-9.954142570E0
1.427908808E1,5.910272002E-1,-5.551348329E-1,-9.913165092E0
1.428880230E1,6.508477330E-1,-5.288137794E-1,-9.886843681E0
1.429851564E1,6.915257573E-1,-4.905286431E-1,-9.891630173E0
1.430822824E1,7.154539824E-1,-4.426721931E-1,-9.877272606E0
1.431794163E1,7.058826685E-1,-4.354937077E-1,-9.860523224E0
1.432765590E1,6.436693072E-1,-4.354937077E-1,-9.858130455E0
1.433736923E1,5.670989752E-1,-4.235295951E-1,-9.884450912E0
1.434708183E1,5.144568682E-1,-4.235295951E-1,-9.958928108E0
1.435679522E1,5.407779217E-1,-4.331009090E-1,-9.987641335E0
1.436650944E1,6.053841114E-1,-4.474578202E-1,-9.918250084E0
1.437622282E1,6.388836503E-1,-4.354937077E-1,-9.824630737E0
1.438593543E1,6.340979934E-1,-4.187439680E-1,-9.848558426E0
1.439564881E1,6.340979934E-1,-4.283152521E-1,-9.858130455E0
1.440536303E1,6.747759581E-1,-4.498506486E-1,-9.872487068E0
1.441507637E1,6.628118753E-1,-4.737788737E-1,-9.872487068E0
1.442478897E1,5.982056856E-1,-5.096712112E-1,-9.812666893E0
1.443450235E1,5.455635786E-1,-4.905286431E-1,-9.736096382E0
1.444421663E1,4.881358147E-1,-4.761717021E-1,-9.736096382E0
1.445392996E1,4.737788737E-1,-4.618147612E-1,-9.850952148E0
1.446364256E1,5.024927258E-1,-4.570291340E-1,-1.004028416E1
1.447335595E1,5.096712112E-1,-4.594219327E-1,-1.011924744E1
1.448307017E1,6.077769399E-1,-4.761717021E-1,-1.007856941E1
1.449278350E1,6.556333899E-1,-4.929214716E-1,-9.925428391E0
1.450249616E1,6.293123364E-1,-5.048855543E-1,-9.771988869E0
1.451220954E1,5.766702294E-1,-4.857429862E-1,-9.642776489E0
1.452192376E1,5.599204898E-1,-4.881358147E-1,-9.614062309E0
1.453163709E1,5.742774606E-1,-4.713860750E-1,-9.786345482E0
1.454134970E1,5.623133183E-1,-4.761717021E-1,-9.963713646E0
1.455106308E1,5.766702294E-1,-4.713860750E-1,-1.006899738E1
1.456077730E1,5.910272002E-1,-4.618147612E-1,-1.010967541E1
1.457049069E1,6.173482537E-1,-4.737788737E-1,-1.009053326E1
1.458020329E1,6.245267391E-1,-4.594219327E-1,-1.002353382E1
1.458991668E1,6.221339107E-1,-4.642075896E-1,-9.860523224E0
1.459963090E1,6.173482537E-1,-4.546363056E-1,-9.712167740E0
1.460934423E1,6.101697683E-1,-4.474578202E-1,-9.714560509E0
1.461905683E1,5.814558864E-1,-4.546363056E-1,-9.788738251E0
1.462877022E1,5.982056856E-1,-4.642075896E-1,-9.831809044E0
1.463848449E1,6.005984545E-1,-4.666004181E-1,-9.915857315E0
1.464819782E1,5.886343718E-1,-4.642075896E-1,-9.990034103E0
1.465791043E1,6.269195080E-1,-4.474578202E-1,-1.000678444E1
1.466762381E1,6.197410822E-1,-4.546363056E-1,-9.944570541E0
1.467733803E1,6.125625968E-1,-4.450650215E-1,-9.843772888E0
1.468705136E1,6.173482537E-1,-4.570291340E-1,-9.798309326E0
1.469676397E1,5.982056856E-1,-4.522434771E-1,-9.858130455E0
1.470647735E1,6.173482537E-1,-4.785645306E-1,-9.932606697E0
1.471619162E1,6.723831892E-1,-5.216353536E-1,-9.927821159E0
1.472590496E1,6.963114142E-1,-5.288137794E-1,-9.865308762E0
1.473561756E1,6.532405615E-1,-5.048855543E-1,-9.795916557E0
1.474533095E1,5.766702294E-1,-4.857429862E-1,-9.805487633E0
1.475504517E1,5.575276613E-1,-4.809573591E-1,-9.901201248E0
1.476475855E1,5.503492355E-1,-4.833501875E-1,-1.001396275E1
1.477447116E1,6.101697683E-1,-4.737788737E-1,-9.990034103E0
1.478418454E1,6.628118753E-1,-4.570291340E-1,-9.889236450E0
1.479389876E1,6.699903607E-1,-4.378865361E-1,-9.834201813E0
1.480361209E1,6.173482537E-1,-4.019941986E-1,-9.853344917E0
1.481332470E1,6.245267391E-1,-4.067798555E-1,-9.853344917E0
1.482303808E1,6.125625968E-1,-4.546363056E-1,-9.872487068E0
1.483275230E1,5.647061467E-1,-5.048855543E-1,-9.903594017E0
1.484246569E1,4.953143001E-1,-5.383850932E-1,-9.908379555E0
1.485217829E1,4.618147612E-1,-5.407779217E-1,-9.903594017E0
1.486189168E1,4.857429862E-1,-5.335994363E-1,-9.932606697E0
1.487160590E1,5.192425251E-1,-5.288137794E-1,-9.973284721E0
1.488131923E1,5.718846321E-1,-4.737788737E-1,-1.001874828E1
1.489103183E1,5.934200287E-1,-4.450650215E-1,-9.975677490E0
1.490074522E1,6.221339107E-1,-4.163511395E-1,-9.886843681E0
1.491045949E1,5.431707501E-1,-3.996013701E-1,-9.800702095E0
1.492017282E1,4.522434771E-1,-3.732803464E-1,-9.846165657E0
1.492988543E1,4.522434771E-1,-3.708875179E-1,-9.903594017E0
1.493959881E1,4.977070987E-1,-4.043870270E-1,-9.910772324E0
1.494931303E1,5.886343718E-1,-4.331009090E-1,-9.918250084E0
1.495902637E1,6.771687865E-1,-4.498506486E-1,-9.877272606E0
1.496873897E1,6.891329288E-1,-4.594219327E-1,-9.822237968E0
1.497845241E1,6.699903607E-1,-4.402793646E-1,-9.750452995E0
1.498816663E1,6.652047038E-1,-4.378865361E-1,-9.745667458E0
1.499787996E1,6.867401004E-1,-4.618147612E-1,-9.776774406E0
1.500759256E1,7.465606928E-1,-4.977070987E-1,-9.870094299E0
1.501730595E1,7.465606928E-1,-5.168496966E-1,-9.958928108E0
1.502702017E1,6.723831892E-1,-5.024927258E-1,-9.944570541E0
1.503673355E1,6.197410822E-1,-4.809573591E-1,-9.920642853E0
1.504644616E1,5.718846321E-1,-4.713860750E-1,-9.934999466E0
