"Time (s)","Acceleration x (m/s^2)","Acceleration y (m/s^2)","Acceleration z (m/s^2)"
5.467136300E-2,-1.345962733E-1,-7.492526174E-1,-9.870094299E0
6.438802900E-2,-1.322034448E-1,-8.760721684E-1,-9.776774406E0
7.429615400E-2,-1.055833027E-1,-8.712865710E-1,-9.905986786E0
8.420386300E-2,-9.601201117E-2,-8.617152572E-1,-1.003549862E1
9.411120700E-2,-1.055833027E-1,-8.377870321E-1,-1.004746246E1
1.040185500E-1,-1.441675574E-1,-7.636095285E-1,-1.000678444E1
1.139260500E-1,-1.657029688E-1,-7.277171612E-1,-9.942177773E0
1.238335500E-1,-1.872383654E-1,-7.205387354E-1,-9.860523224E0
1.337409460E-1,-2.446661144E-1,-7.181459069E-1,-9.822237968E0
1.436483420E-1,-2.207378894E-1,-7.779664397E-1,-9.841380119E0
1.535557900E-1,-1.489532143E-1,-8.353942037E-1,-9.838987350E0
1.634632380E-1,-1.345962733E-1,-8.258228898E-1,-9.850952148E0
1.733706340E-1,-1.031904742E-1,-8.425726891E-1,-9.987641335E0
1.832780290E-1,-8.404789865E-2,-8.306085467E-1,-9.795916557E0
1.931854770E-1,-1.031904742E-1,-7.444669604E-1,-9.690632820E0
2.030929250E-1,-1.127617657E-1,-7.157530785E-1,-9.958928108E0
2.130003210E-1,-1.633101404E-1,-7.301099896E-1,-9.923035622E0
2.229077170E-1,-2.159522474E-1,-7.253243923E-1,-9.779167175E0
2.328151130E-1,-2.638086975E-1,-7.348956466E-1,-9.992427826E0
2.427225090E-1,-2.733799815E-1,-7.707880139E-1,-1.017667484E1
2.526299040E-1,-2.590230405E-1,-8.042874932E-1,-9.910772324E0
2.625373000E-1,-2.446661144E-1,-8.210372925E-1,-9.767203331E0
2.724446960E-1,-2.590230405E-1,-8.162516356E-1,-9.930213928E0
2.823520920E-1,-2.781656384E-1,-7.899305820E-1,-9.905986786E0
2.922594880E-1,-2.662015259E-1,-7.181459069E-1,-9.803094864E0
3.021668840E-1,-2.135594189E-1,-7.229315639E-1,-9.949356079E0
3.120742790E-1,-1.561316848E-1,-7.588238716E-1,-1.009771156E1
3.219816750E-1,-8.404789865E-2,-7.827520967E-1,-9.898808479E0
3.318890710E-1,-2.662015148E-2,-8.330013752E-1,-9.848558426E0
3.417964670E-1,-4.097708687E-2,-8.808578253E-1,-9.985248566E0
3.517038630E-1,-7.208377868E-2,-8.832506537E-1,-9.853344917E0
3.616112590E-1,-8.883354068E-2,-8.234301209E-1,-9.719346046E0
3.715186540E-1,-1.250249892E-1,-7.875377536E-1,-9.944570541E0
3.814260500E-1,-1.704886109E-1,-7.899305820E-1,-1.020060253E1
3.913334460E-1,-1.968096644E-1,-7.851449251E-1,-1.000917721E1
4.012408420E-1,-1.728814393E-1,-8.018946648E-1,-9.954142570E0
4.111482380E-1,-1.513460279E-1,-8.234301209E-1,-1.001874828E1
4.210556340E-1,-1.345962733E-1,-8.306085467E-1,-9.867701530E0
4.309630290E-1,-1.369891018E-1,-8.210372925E-1,-9.633204460E0
4.408704250E-1,-1.561316848E-1,-7.995018363E-1,-9.767203331E0
4.507778210E-1,-1.489532143E-1,-7.779664397E-1,-9.980463028E0
4.606852170E-1,-1.800599098E-1,-7.564310431E-1,-9.918250084E0
4.705926130E-1,-2.255235314E-1,-7.420741320E-1,-9.910772324E0
4.805000090E-1,-2.638086975E-1,-7.564310431E-1,-1.007378292E1
4.904074040E-1,-2.063809484E-1,-7.660023570E-1,-1.000199890E1
5.003148000E-1,-1.369891018E-1,-7.731808424E-1,-9.827023506E0
5.102221960E-1,-1.393819153E-1,-7.779664397E-1,-9.815059662E0
5.201295920E-1,-1.127617657E-1,-7.947162390E-1,-9.834201813E0
5.300369880E-1,-1.489532143E-1,-7.995018363E-1,-9.690632820E0
5.399443840E-1,-1.824527234E-1,-7.827520967E-1,-9.803094864E0
5.498517790E-1,-2.255235314E-1,-7.923234105E-1,-1.010967541E1
5.597537070E-1,-2.470589429E-1,-8.258228898E-1,-1.008335495E1
5.694659460E-1,-2.015953064E-1,-8.377870321E-1,-9.970891953E0
5.791791230E-1,-1.680957973E-1,-8.401798606E-1,-1.013121128E1
5.888930290E-1,-1.489532143E-1,-8.282157183E-1,-1.017428207E1
5.986060500E-1,-1.465603858E-1,-8.018946648E-1,-9.910772324E0
6.083183940E-1,-1.776670814E-1,-7.779664397E-1,-9.750452995E0
6.180315710E-1,-2.327020019E-1,-7.540382147E-1,-9.894022942E0
6.277454250E-1,-2.446661144E-1,-7.301099896E-1,-9.776774406E0
6.374584980E-1,-1.417747438E-1,-7.277171612E-1,-9.702596664E0
6.471708420E-1,-1.031904742E-1,-7.372884750E-1,-9.920642853E0
6.568839150E-1,-1.007976532E-1,-7.564310431E-1,-9.934999466E0
6.665978730E-1,-1.369891018E-1,-7.707880139E-1,-9.920642853E0
6.763109460E-1,-1.848455518E-1,-7.755736113E-1,-9.951749802E0
6.860232380E-1,-2.303091735E-1,-7.971090674E-1,-9.946963310E0
6.957364150E-1,-2.494517565E-1,-8.114659786E-1,-9.975677490E0
7.054503210E-1,-1.872383654E-1,-8.258228898E-1,-9.970891953E0
7.151633940E-1,-1.007976532E-1,-8.162516356E-1,-9.915857315E0
7.248756860E-1,-3.379862010E-2,-7.995018363E-1,-9.867701530E0
7.345888630E-1,-4.815555736E-2,-7.899305820E-1,-9.817452431E0
7.443027690E-1,-1.175474152E-1,-7.827520967E-1,-9.867701530E0
7.540158420E-1,-2.087737769E-1,-7.851449251E-1,-1.003071213E1
7.637281340E-1,-2.494517565E-1,-8.042874932E-1,-1.003789139E1
7.734413110E-1,-2.590230405E-1,-8.210372925E-1,-9.944570541E0
7.831552170E-1,-2.685943544E-1,-8.282157183E-1,-9.898808479E0
7.928682380E-1,-2.662015259E-1,-8.162516356E-1,-9.798309326E0
8.025805820E-1,-2.183450609E-1,-8.306085467E-1,-9.771988869E0
8.122937590E-1,-1.345962733E-1,-7.899305820E-1,-9.865308762E0
8.220076130E-1,-6.969095767E-2,-7.564310431E-1,-9.942177773E0
8.317206860E-1,-4.815555736E-2,-7.636095285E-1,-9.934999466E0
8.414330290E-1,-4.815555736E-2,-7.851449251E-1,-9.923035622E0
8.511462070E-1,-1.127617657E-1,-7.803592682E-1,-9.884450912E0
8.608600610E-1,-1.944168359E-1,-7.683951855E-1,-9.874879837E0
8.705731340E-1,-2.183450609E-1,-7.995018363E-1,-9.862915993E0
8.802854770E-1,-2.183450609E-1,-8.042874932E-1,-9.884450912E0
8.899986540E-1,-2.039881349E-1,-7.995018363E-1,-9.944570541E0
8.997125090E-1,-1.609173268E-1,-7.660023570E-1,-9.944570541E0
9.094255820E-1,-1.585244983E-1,-7.707880139E-1,-9.905986786E0
9.191379250E-1,-1.489532143E-1,-7.660023570E-1,-9.874879837E0
9.288511020E-1,-1.223330572E-1,-7.707880139E-1,-9.889236450E0
9.385649570E-1,-1.151545867E-1,-7.325028181E-1,-9.930213928E0
9.482780290E-1,-1.322034448E-1,-7.348956466E-1,-9.968499184E0
9.579903730E-1,-1.920240223E-1,-7.372884750E-1,-9.944570541E0
9.677035500E-1,-2.327020019E-1,-7.612167001E-1,-9.827023506E0
9.774174570E-1,-2.566302419E-1,-7.660023570E-1,-9.781559944E0
9.871304770E-1,-2.853440940E-1,-7.516453862E-1,-9.877272606E0
9.968428210E-1,-2.853440940E-1,-7.444669604E-1,-9.963713646E0
1.006555998E0,-2.327020019E-1,-7.779664397E-1,-9.982855797E0
1.016269904E0,-1.561316848E-1,-7.731808424E-1,-9.963713646E0
1.025982977E0,-1.298106313E-1,-7.899305820E-1,-9.968499184E0
1.035695269E0,-9.601201117E-2,-8.066803217E-1,-9.954142570E0
1.045408446E0,-5.533402413E-2,-8.186444640E-1,-9.925428391E0
1.055122352E0,-5.533402413E-2,-8.521439433E-1,-9.872487068E0
1.064835425E0,-7.477570791E-3,-8.712865710E-1,-9.800702095E0
1.074547717E0,9.272187948E-3,-8.377870321E-1,-9.850952148E0
1.084260894E0,-1.944168471E-2,-8.138588071E-1,-9.958928108E0
1.093974800E0,-9.601201117E-2,-7.827520967E-1,-9.913165092E0
1.103687873E0,-1.441675574E-1,-7.492526174E-1,-9.855737686E0
1.113400217E0,-1.848455518E-1,-7.444669604E-1,-9.886843681E0
1.123113394E0,-2.087737769E-1,-7.468597889E-1,-9.975677490E0
1.132827300E0,-1.848455518E-1,-7.588238716E-1,-9.956535339E0
1.142540373E0,-1.680957973E-1,-7.707880139E-1,-9.879665375E0
1.152252665E0,-1.992024779E-1,-7.803592682E-1,-9.908379555E0
1.161965842E0,-2.183450609E-1,-8.042874932E-1,-9.920642853E0
1.171679748E0,-2.231307179E-1,-8.210372925E-1,-9.937392235E0
1.181392821E0,-1.896311939E-1,-8.401798606E-1,-9.913165092E0
1.191105165E0,-1.345962733E-1,-8.306085467E-1,-9.884450912E0
1.200818238E0,-1.369891018E-1,-8.234301209E-1,-9.949356079E0
1.210532196E0,-1.992024779E-1,-8.162516356E-1,-9.937392235E0
1.220245269E0,-1.992024779E-1,-7.827520967E-1,-9.942177773E0
1.229957613E0,-1.896311939E-1,-7.516453862E-1,-9.978070259E0
1.239670790E0,-1.800599098E-1,-7.301099896E-1,-9.949356079E0
1.249384696E0,-1.633101404E-1,-7.205387354E-1,-9.834201813E0
1.259097769E0,-1.298106313E-1,-7.348956466E-1,-9.740881920E0
1.268810113E0,-1.322034448E-1,-7.205387354E-1,-9.743274689E0
1.278523186E0,-1.513460279E-1,-7.109674215E-1,-9.836594582E0
1.288237144E0,-1.465603858E-1,-7.420741320E-1,-9.894022942E0
1.297950217E0,-1.298106313E-1,-7.683951855E-1,-1.003310490E1
1.307662561E0,-1.609173268E-1,-7.779664397E-1,-1.008814049E1
1.317375738E0,-1.872383654E-1,-8.090731502E-1,-1.004746246E1
1.327089644E0,-1.609173268E-1,-8.186444640E-1,-9.951749802E0
1.336802717E0,-1.680957973E-1,-8.306085467E-1,-9.810274124E0
1.346515061E0,-1.393819153E-1,-7.947162390E-1,-9.707382202E0
1.356228238E0,-5.294119939E-2,-7.636095285E-1,-9.771988869E0
1.365942144E0,4.486542661E-3,-7.516453862E-1,-9.910772324E0
1.375655165E0,-3.140579537E-2,-7.325028181E-1,-1.002592659E1
1.385367509E0,-8.883354068E-2,-7.588238716E-1,-1.000917721E1
1.395080686E0,-1.657029688E-1,-7.851449251E-1,-9.944570541E0
1.404794592E0,-2.662015259E-1,-8.018946648E-1,-9.867701530E0
1.414507665E0,-3.044866920E-1,-8.330013752E-1,-9.884450912E0
1.424220009E0,-2.925225794E-1,-8.234301209E-1,-9.910772324E0
1.433933186E0,-2.494517565E-1,-8.306085467E-1,-9.954142570E0
1.443647092E0,-1.968096644E-1,-8.042874932E-1,-9.975677490E0
1.453360165E0,-1.680957973E-1,-8.138588071E-1,-9.927821159E0
1.463072509E0,-1.633101404E-1,-7.731808424E-1,-9.901201248E0
1.472785686E0,-1.441675574E-1,-7.396813035E-1,-9.872487068E0
1.482499592E0,-1.513460279E-1,-7.229315639E-1,-9.850952148E0
1.492212665E0,-1.274178028E-1,-7.157530785E-1,-9.827023506E0
1.501924957E0,-1.585244983E-1,-7.492526174E-1,-9.829416275E0
1.511638134E0,-1.752742529E-1,-7.660023570E-1,-9.930213928E0
1.521352040E0,-1.489532143E-1,-7.875377536E-1,-9.932606697E0
1.531065113E0,-9.122636169E-2,-8.234301209E-1,-9.886843681E0
1.540777457E0,-1.055833027E-1,-8.090731502E-1,-9.819845200E0
1.550490634E0,-1.298106313E-1,-7.803592682E-1,-9.865308762E0
1.560204540E0,-1.274178028E-1,-7.492526174E-1,-9.930213928E0
1.569917613E0,-7.447660714E-2,-7.588238716E-1,-9.954142570E0
1.579629957E0,-1.151545867E-1,-7.779664397E-1,-9.867701530E0
1.589343134E0,-1.465603858E-1,-7.827520967E-1,-9.898808479E0
1.599057040E0,-1.920240223E-1,-7.636095285E-1,-9.949356079E0
1.608770113E0,-2.231307179E-1,-7.444669604E-1,-9.903594017E0
1.618482457E0,-2.063809484E-1,-7.588238716E-1,-9.874879837E0
1.628195634E0,-2.207378894E-1,-7.277171612E-1,-9.903594017E0
1.637909540E0,-2.374876440E-1,-7.085745931E-1,-9.968499184E0
1.647622613E0,-2.733799815E-1,-7.325028181E-1,-9.954142570E0
1.657334957E0,-2.853440940E-1,-7.707880139E-1,-9.927821159E0
1.667048134E0,-2.350948304E-1,-7.899305820E-1,-9.910772324E0
1.676762040E0,-1.513460279E-1,-8.186444640E-1,-9.915857315E0
1.686475113E0,-6.251249462E-2,-8.234301209E-1,-9.975677490E0
1.696187457E0,-1.704886183E-2,-8.282157183E-1,-9.975677490E0
1.705900634E0,-1.465603895E-2,-8.353942037E-1,-9.862915993E0
1.715614540E0,-2.662015148E-2,-8.162516356E-1,-9.781559944E0
1.725327613E0,-1.055833027E-1,-7.396813035E-1,-9.803094864E0
1.735039957E0,-2.039881349E-1,-7.133602500E-1,-9.781559944E0
1.744753134E0,-2.279163599E-1,-6.870391965E-1,-9.819845200E0
1.754467040E0,-1.896311939E-1,-6.607181430E-1,-9.927821159E0
1.764180113E0,-1.968096644E-1,-6.750751138E-1,-9.961320877E0
1.773892457E0,-1.657029688E-1,-7.109674215E-1,-9.975677490E0
1.783605634E0,-1.031904742E-1,-7.683951855E-1,-9.980463028E0
1.793319540E0,-1.322034448E-1,-8.353942037E-1,-9.882058144E0
1.803032613E0,-1.175474152E-1,-8.856434822E-1,-9.838987350E0
1.812744957E0,-9.122636169E-2,-9.047860503E-1,-9.850952148E0
1.822458134E0,-6.011966988E-2,-8.856434822E-1,-9.942177773E0
1.832172040E0,-6.011966988E-2,-8.521439433E-1,-1.000917721E1
1.841885113E0,-1.223330572E-1,-7.995018363E-1,-1.003789139E1
1.851597457E0,-1.680957973E-1,-7.755736113E-1,-9.975677490E0
1.861310634E0,-1.944168359E-1,-7.444669604E-1,-9.930213928E0
1.871024592E0,-1.968096644E-1,-7.037889361E-1,-9.903594017E0
1.880737665E0,-2.207378894E-1,-6.990033388E-1,-9.903594017E0
1.890449957E0,-2.542374134E-1,-6.846463680E-1,-9.975677490E0
1.900163134E0,-2.374876440E-1,-7.109674215E-1,-9.999606133E0
1.909877092E0,-2.111666054E-1,-7.277171612E-1,-9.862915993E0
1.919590165E0,-1.824527234E-1,-7.253243923E-1,-9.786345482E0
1.929302509E0,-1.704886109E-1,-7.229315639E-1,-9.783952713E0
1.939015686E0,-1.776670814E-1,-7.253243923E-1,-9.755238533E0
1.948729592E0,-1.848455518E-1,-7.253243923E-1,-9.786345482E0
1.958442665E0,-1.298106313E-1,-7.420741320E-1,-9.862915993E0
1.968155009E0,-1.537388563E-1,-7.492526174E-1,-9.905986786E0
1.977868186E0,-1.609173268E-1,-7.253243923E-1,-9.939785004E0
1.987582092E0,-1.274178028E-1,-7.205387354E-1,-9.987641335E0
1.997295165E0,-8.165507019E-2,-7.325028181E-1,-9.956535339E0
2.007007509E0,-7.926224917E-2,-7.516453862E-1,-9.884450912E0
2.016720686E0,-6.251249462E-2,-7.803592682E-1,-9.810274124E0
2.026434592E0,-7.208377868E-2,-7.899305820E-1,-9.805487633E0
2.036147769E0,-3.379862010E-2,-8.114659786E-1,-9.872487068E0
2.045860061E0,-6.251249462E-2,-8.210372925E-1,-9.932606697E0
2.055573238E0,-1.298106313E-1,-8.330013752E-1,-9.961320877E0
2.065287144E0,-1.393819153E-1,-8.353942037E-1,-1.001874828E1
2.075000217E0,-1.633101404E-1,-8.282157183E-1,-1.004267693E1
2.084712561E0,-1.848455518E-1,-8.090731502E-1,-1.000199890E1
2.094425738E0,-1.896311939E-1,-7.707880139E-1,-9.927821159E0
2.104139644E0,-1.848455518E-1,-7.420741320E-1,-9.913165092E0
2.113852717E0,-1.537388563E-1,-7.372884750E-1,-9.910772324E0
2.123565061E0,-1.151545867E-1,-7.301099896E-1,-9.905986786E0
2.133278238E0,-1.031904742E-1,-7.372884750E-1,-9.827023506E0
2.142992196E0,-1.031904742E-1,-7.205387354E-1,-9.769596100E0
2.152705269E0,-1.199402362E-1,-7.157530785E-1,-9.815059662E0
2.162417613E0,-1.345962733E-1,-7.157530785E-1,-9.862915993E0
2.172130790E0,-1.465603858E-1,-7.229315639E-1,-9.942177773E0
2.181844696E0,-1.752742529E-1,-7.468597889E-1,-9.918250084E0
2.191557769E0,-2.183450609E-1,-7.492526174E-1,-9.886843681E0
2.201270113E0,-2.063809484E-1,-7.468597889E-1,-9.894022942E0
2.210983290E0,-2.303091735E-1,-7.109674215E-1,-9.884450912E0
2.220697196E0,-2.350948304E-1,-7.157530785E-1,-9.886843681E0
2.230410373E0,-1.848455518E-1,-7.253243923E-1,-9.879665375E0
2.240122665E0,-1.441675574E-1,-7.444669604E-1,-9.894022942E0
2.249835842E0,-1.393819153E-1,-7.779664397E-1,-9.886843681E0
2.259549748E0,-1.298106313E-1,-7.827520967E-1,-9.886843681E0
2.269262821E0,-1.561316848E-1,-7.899305820E-1,-9.949356079E0
2.278975165E0,-1.657029688E-1,-8.066803217E-1,-9.990034103E0
2.288688342E0,-1.031904742E-1,-8.234301209E-1,-9.973284721E0
2.298402248E0,-3.379862010E-2,-9.023932219E-1,-9.946963310E0
2.308115425E0,-1.103689447E-1,-8.736793399E-1,-9.937392235E0
2.317827665E0,-1.752742529E-1,-8.521439433E-1,-9.973284721E0
2.327540894E0,-2.422732860E-1,-8.162516356E-1,-9.946963310E0
2.337254800E0,-2.614158690E-1,-7.516453862E-1,-9.865308762E0
2.346967873E0,-2.494517565E-1,-6.726822853E-1,-9.788738251E0
2.356680217E0,-2.446661144E-1,-6.029912829E-1,-9.819845200E0
2.366393394E0,-1.609173268E-1,-5.910272002E-1,-9.903594017E0
2.376107300E0,-6.729813665E-2,-6.269195080E-1,-9.894022942E0
2.385820477E0,-1.465603895E-2,-6.631109715E-1,-9.834201813E0
2.395532769E0,1.884347759E-2,-7.229315639E-1,-9.882058144E0
2.405245946E0,4.486542661E-3,-7.899305820E-1,-9.898808479E0
2.414959852E0,-3.858426586E-2,-8.042874932E-1,-9.831809044E0
2.424672925E0,-1.223330572E-1,-8.258228898E-1,-9.776774406E0
2.434385269E0,-1.322034448E-1,-8.018946648E-1,-9.781559944E0
2.444098446E0,-1.752742529E-1,-8.066803217E-1,-9.951749802E0
2.453812404E0,-2.231307179E-1,-7.564310431E-1,-1.005464077E1
2.463525477E0,-2.087737769E-1,-7.229315639E-1,-1.004985523E1
2.473237821E0,-2.015953064E-1,-6.870391965E-1,-9.970891953E0
2.482950998E0,-2.327020019E-1,-6.726822853E-1,-9.807881355E0
2.492664904E0,-2.279163599E-1,-6.894320250E-1,-9.748060226E0
2.502377977E0,-2.231307179E-1,-6.894320250E-1,-9.760024071E0
2.512090321E0,-1.800599098E-1,-6.966105103E-1,-9.853344917E0
2.521803498E0,-1.561316848E-1,-7.037889361E-1,-1.001635551E1
2.531517457E0,-1.824527234E-1,-7.181459069E-1,-1.004267693E1
2.541230529E0,-1.537388563E-1,-7.229315639E-1,-1.001156998E1
2.550942873E0,-9.122636169E-2,-7.564310431E-1,-9.886843681E0
2.560656050E0,-6.490531564E-2,-7.971090674E-1,-9.791131020E0
2.570369957E0,-5.533402413E-2,-7.755736113E-1,-9.800702095E0
2.580083029E0,-6.490531564E-2,-7.516453862E-1,-9.709774971E0
2.589795373E0,-1.151545867E-1,-7.277171612E-1,-9.700203896E0
2.599508550E0,-1.274178028E-1,-7.133602500E-1,-9.886843681E0
2.609222509E0,-1.609173268E-1,-6.870391965E-1,-9.958928108E0
2.618935582E0,-1.824527234E-1,-7.085745931E-1,-9.949356079E0
2.628647925E0,-2.135594189E-1,-7.564310431E-1,-1.000199890E1
2.638361102E0,-2.446661144E-1,-7.947162390E-1,-9.954142570E0
2.648075009E0,-2.374876440E-1,-8.282157183E-1,-9.807881355E0
2.657788082E0,-2.015953064E-1,-8.593224287E-1,-9.812666893E0
2.667500425E0,-1.417747438E-1,-8.377870321E-1,-9.872487068E0
2.677213654E0,-8.404789865E-2,-8.521439433E-1,-9.925428391E0
2.686927561E0,-7.208377868E-2,-8.425726891E-1,-9.958928108E0
2.696640634E0,-9.122636169E-2,-8.425726891E-1,-9.951749802E0
2.706352977E0,-1.393819153E-1,-8.330013752E-1,-9.920642853E0
2.716066154E0,-1.800599098E-1,-7.899305820E-1,-9.908379555E0
2.725780061E0,-2.135594189E-1,-7.492526174E-1,-9.923035622E0
2.735493238E0,-2.087737769E-1,-6.966105103E-1,-9.867701530E0
2.745205529E0,-1.513460279E-1,-6.631109715E-1,-9.860523224E0
2.754918707E0,-1.537388563E-1,-6.415755749E-1,-9.867701530E0
2.764632613E0,-1.609173268E-1,-6.415755749E-1,-9.867701530E0
2.774345686E0,-1.609173268E-1,-6.439684033E-1,-9.894022942E0
2.784058029E0,-1.968096644E-1,-6.846463680E-1,-9.867701530E0
2.793771207E0,-2.279163599E-1,-7.564310431E-1,-9.860523224E0
2.803485165E0,-1.920240223E-1,-7.875377536E-1,-9.850952148E0
2.813198238E0,-1.127617657E-1,-8.186444640E-1,-9.838987350E0
2.822910582E0,-3.379862010E-2,-8.330013752E-1,-9.850952148E0
2.832623759E0,-1.944168471E-2,-8.306085467E-1,-9.920642853E0
2.842337665E0,-3.140579537E-2,-8.258228898E-1,-9.913165092E0
2.852050738E0,-8.165507019E-2,-7.683951855E-1,-9.927821159E0
2.861763082E0,-1.393819153E-1,-7.468597889E-1,-9.954142570E0
2.871476259E0,-2.183450609E-1,-7.755736113E-1,-9.891630173E0
2.881190217E0,-2.901297510E-1,-7.588238716E-1,-9.769596100E0
2.890903290E0,-2.829512656E-1,-7.588238716E-1,-9.860523224E0
2.900615634E0,-2.662015259E-1,-7.492526174E-1,-9.913165092E0
2.910328811E0,-2.662015259E-1,-7.444669604E-1,-9.930213928E0
2.920042717E0,-2.518445849E-1,-7.085745931E-1,-9.978070259E0
2.929755790E0,-2.087737769E-1,-7.564310431E-1,-1.003310490E1
2.939468134E0,-1.561316848E-1,-7.923234105E-1,-9.982855797E0
2.949181363E0,-1.103689447E-1,-7.947162390E-1,-9.858130455E0
2.958895269E0,-1.127617657E-1,-7.899305820E-1,-9.841380119E0
2.968608342E0,-1.800599098E-1,-7.660023570E-1,-9.896415710E0
2.978320686E0,-2.422732860E-1,-7.612167001E-1,-9.877272606E0
2.988033863E0,-2.518445849E-1,-7.707880139E-1,-9.927821159E0
2.997747821E0,-2.542374134E-1,-7.612167001E-1,-9.968499184E0
3.007460894E0,-1.944168359E-1,-7.396813035E-1,-9.915857315E0
3.017173238E0,-1.127617657E-1,-7.348956466E-1,-9.853344917E0
3.026886415E0,-7.926224917E-2,-7.540382147E-1,-9.834201813E0
3.036600321E0,-1.944168471E-2,-7.755736113E-1,-9.860523224E0
3.046313394E0,1.073779166E-1,-8.138588071E-1,-9.867701530E0
3.056025738E0,1.624128371E-1,-8.425726891E-1,-9.882058144E0
3.065738915E0,1.839482337E-1,-8.210372925E-1,-9.944570541E0
3.075452873E0,1.265204996E-1,-8.210372925E-1,-9.865308762E0
3.085165946E0,-3.858426586E-2,-7.755736113E-1,-9.724132538E0
3.094878290E0,-2.207378894E-1,-7.037889361E-1,-9.716953278E0
3.104591467E0,-3.308077157E-1,-6.245267391E-1,-9.800702095E0
3.114305373E0,-3.188436031E-1,-5.814558864E-1,-9.865308762E0
3.124018446E0,-2.973082066E-1,-5.814558864E-1,-9.915857315E0
3.133730790E0,-2.638086975E-1,-6.005984545E-1,-9.937392235E0
3.143443967E0,-2.111666054E-1,-6.415755749E-1,-9.990034103E0
3.153157925E0,-1.968096644E-1,-6.750751138E-1,-9.910772324E0
3.162870998E0,-2.135594189E-1,-7.013961077E-1,-9.788738251E0
3.172583342E0,-2.183450609E-1,-7.420741320E-1,-9.752845764E0
3.182296519E0,-2.207378894E-1,-8.018946648E-1,-9.798309326E0
3.192010425E0,-1.872383654E-1,-8.138588071E-1,-9.961320877E0
3.201723498E0,-1.223330572E-1,-8.282157183E-1,-1.011446095E1
3.211435842E0,-5.054837838E-2,-8.521439433E-1,-1.003071213E1
3.221149019E0,-1.007976532E-1,-8.114659786E-1,-9.918250084E0
3.230862977E0,-1.465603858E-1,-7.803592682E-1,-9.850952148E0
3.240576050E0,-1.872383654E-1,-7.588238716E-1,-9.824630737E0
3.250288394E0,-2.087737769E-1,-7.731808424E-1,-9.779167175E0
3.260001571E0,-1.633101404E-1,-7.923234105E-1,-9.829416275E0
3.269715477E0,-8.883354068E-2,-8.210372925E-1,-9.963713646E0
3.279428550E0,-8.165507019E-2,-8.258228898E-1,-1.001635551E1
3.289140894E0,-1.103689447E-1,-8.186444640E-1,-9.966106415E0
3.298854071E0,-1.489532143E-1,-7.947162390E-1,-9.910772324E0
3.308568029E0,-1.657029688E-1,-7.660023570E-1,-9.942177773E0
3.318281102E0,-1.345962733E-1,-7.492526174E-1,-9.894022942E0
3.327993446E0,-8.883354068E-2,-7.444669604E-1,-9.788738251E0
3.337706623E0,-1.055833027E-1,-6.918248534E-1,-9.731310844E0
3.347420529E0,-1.127617657E-1,-6.607181430E-1,-9.762416840E0
3.357133602E0,-9.122636169E-2,-6.583253145E-1,-9.879665375E0
3.366845946E0,-9.361918271E-2,-6.966105103E-1,-9.980463028E0
3.376559123E0,-1.079761237E-1,-7.348956466E-1,-9.987641335E0
3.386273082E0,-1.103689447E-1,-7.612167001E-1,-9.990034103E0
3.395986154E0,-1.441675574E-1,-7.707880139E-1,-9.942177773E0
3.405698498E0,-1.609173268E-1,-7.588238716E-1,-9.934999466E0
3.415411675E0,-1.274178028E-1,-7.468597889E-1,-9.975677490E0
3.425125582E0,-1.417747438E-1,-7.420741320E-1,-9.927821159E0
3.434838654E0,-1.223330572E-1,-7.372884750E-1,-9.819845200E0
3.444550998E0,-1.055833027E-1,-7.301099896E-1,-9.757631302E0
3.454264175E0,-8.644071966E-2,-7.372884750E-1,-9.798309326E0
3.463978134E0,-9.840483218E-2,-7.061817646E-1,-9.882058144E0
3.473691207E0,-1.585244983E-1,-6.918248534E-1,-9.867701530E0
3.483403550E0,-1.896311939E-1,-6.846463680E-1,-9.862915993E0
3.493116727E0,-1.968096644E-1,-6.870391965E-1,-9.920642853E0
3.502830634E0,-1.872383654E-1,-7.181459069E-1,-9.889236450E0
3.512543707E0,-1.992024779E-1,-7.396813035E-1,-9.788738251E0
3.522256050E0,-1.992024779E-1,-7.540382147E-1,-9.781559944E0
3.531969227E0,-2.087737769E-1,-7.707880139E-1,-9.798309326E0
3.541683134E0,-2.374876440E-1,-7.899305820E-1,-9.903594017E0
3.551396311E0,-2.231307179E-1,-8.138588071E-1,-9.963713646E0
3.561108602E0,-1.920240223E-1,-8.186444640E-1,-9.992427826E0
3.570821779E0,-1.223330572E-1,-8.066803217E-1,-9.968499184E0
3.580535686E0,-1.417747438E-1,-7.348956466E-1,-9.908379555E0
3.590248759E0,-1.944168359E-1,-6.870391965E-1,-9.817452431E0
3.599961102E0,-2.279163599E-1,-6.415755749E-1,-9.800702095E0
3.609674279E0,-2.374876440E-1,-6.029912829E-1,-9.860523224E0
3.619388186E0,-2.063809484E-1,-6.340979934E-1,-9.850952148E0
3.629101363E0,-1.824527234E-1,-6.990033388E-1,-9.771988869E0
3.638813602E0,-1.633101404E-1,-7.540382147E-1,-9.824630737E0
3.648526832E0,-1.007976532E-1,-7.971090674E-1,-9.923035622E0
3.658240738E0,-5.054837838E-2,-8.330013752E-1,-9.934999466E0
3.667953811E0,-6.011966988E-2,-8.353942037E-1,-9.843772888E0
3.677666154E0,-9.122636169E-2,-8.090731502E-1,-9.903594017E0
3.687379332E0,-8.644071966E-2,-7.468597889E-1,-9.963713646E0
3.697093238E0,-7.447660714E-2,-6.990033388E-1,-9.956535339E0
3.706806311E0,-9.361918271E-2,-6.774678826E-1,-9.942177773E0
3.716518654E0,-1.513460279E-1,-6.655037999E-1,-9.915857315E0
3.726231832E0,-1.776670814E-1,-6.870391965E-1,-9.877272606E0
3.735945790E0,-1.633101404E-1,-7.133602500E-1,-9.877272606E0
3.745658863E0,-1.609173268E-1,-7.181459069E-1,-9.872487068E0
3.755371207E0,-1.728814393E-1,-7.516453862E-1,-9.872487068E0
3.765084384E0,-1.250249892E-1,-7.636095285E-1,-9.889236450E0
3.774798290E0,-9.122636169E-2,-7.325028181E-1,-9.951749802E0
3.784511363E0,-8.165507019E-2,-7.253243923E-1,-9.939785004E0
3.794223707E0,-8.883354068E-2,-7.348956466E-1,-9.879665375E0
3.803936884E0,-9.122636169E-2,-7.875377536E-1,-9.810274124E0
3.813650790E0,-1.369891018E-1,-7.803592682E-1,-9.882058144E0
3.823363863E0,-1.103689447E-1,-7.899305820E-1,-9.968499184E0
3.833076207E0,-8.644071966E-2,-7.755736113E-1,-1.000439167E1
3.842789384E0,-7.208377868E-2,-7.420741320E-1,-9.963713646E0
3.852503342E0,-8.644071966E-2,-7.205387354E-1,-9.860523224E0
3.862216415E0,-1.250249892E-1,-7.061817646E-1,-9.764810562E0
3.871928759E0,-2.063809484E-1,-6.894320250E-1,-9.709774971E0
3.881641936E0,-2.853440940E-1,-7.109674215E-1,-9.721739769E0
3.891355842E0,-3.116651475E-1,-7.301099896E-1,-9.805487633E0
3.901068915E0,-2.662015259E-1,-7.827520967E-1,-9.860523224E0
3.910781259E0,-2.303091735E-1,-8.377870321E-1,-9.958928108E0
3.920494436E0,-1.920240223E-1,-8.090731502E-1,-1.007139015E1
3.930208342E0,-1.609173268E-1,-7.516453862E-1,-1.010967541E1
3.939921519E0,-1.298106313E-1,-7.420741320E-1,-9.978070259E0
3.949633759E0,-1.441675574E-1,-7.348956466E-1,-9.843772888E0
3.959346988E0,-1.800599098E-1,-7.277171612E-1,-9.752845764E0
3.969060894E0,-1.968096644E-1,-7.372884750E-1,-9.779167175E0
3.978773967E0,-1.633101404E-1,-7.444669604E-1,-9.872487068E0
3.988486311E0,-1.585244983E-1,-7.612167001E-1,-9.954142570E0
3.998199488E0,-1.489532143E-1,-7.899305820E-1,-1.003071213E1
4.007913394E0,-1.537388563E-1,-7.899305820E-1,-9.961320877E0
4.017626467E0,-2.063809484E-1,-7.636095285E-1,-9.908379555E0
4.027338811E0,-2.015953064E-1,-7.516453862E-1,-9.884450912E0
4.037051988E0,-1.872383654E-1,-7.612167001E-1,-9.795916557E0
4.046765894E0,-1.250249892E-1,-7.492526174E-1,-9.800702095E0
4.056479071E0,-6.729813665E-2,-7.133602500E-1,-9.874879837E0
4.066191311E0,-3.619144112E-2,-7.037889361E-1,-9.920642853E0
4.075904488E0,-9.870393202E-3,-7.061817646E-1,-9.915857315E0
4.085618446E0,-3.619144112E-2,-7.253243923E-1,-9.913165092E0
4.095331519E0,-9.840483218E-2,-7.205387354E-1,-9.894022942E0
4.105043863E0,-1.824527234E-1,-7.396813035E-1,-9.843772888E0
4.114757040E0,-2.255235314E-1,-7.157530785E-1,-9.855737686E0
4.124470946E0,-2.111666054E-1,-7.420741320E-1,-9.920642853E0
4.134184019E0,-1.489532143E-1,-7.660023570E-1,-9.913165092E0
4.143896363E0,-1.298106313E-1,-7.803592682E-1,-9.886843681E0
4.153609540E0,-1.561316848E-1,-7.827520967E-1,-9.896415710E0
4.163323446E0,-1.944168359E-1,-7.516453862E-1,-9.937392235E0
4.173036519E0,-1.561316848E-1,-7.516453862E-1,-9.930213928E0
4.182748863E0,-9.840483218E-2,-7.325028181E-1,-9.910772324E0
4.192462040E0,-9.122636169E-2,-7.277171612E-1,-9.860523224E0
4.202175998E0,-1.441675574E-1,-7.277171612E-1,-9.757631302E0
4.211889071E0,-1.513460279E-1,-7.325028181E-1,-9.786345482E0
4.221601415E0,-1.561316848E-1,-7.301099896E-1,-9.877272606E0
4.231314592E0,-1.489532143E-1,-7.205387354E-1,-9.944570541E0
4.241028498E0,-8.404789865E-2,-7.205387354E-1,-9.970891953E0
4.250741571E0,-3.858426586E-2,-6.918248534E-1,-9.949356079E0
4.260453915E0,-6.490531564E-2,-6.774678826E-1,-9.923035622E0
4.270167092E0,-1.127617657E-1,-7.133602500E-1,-9.824630737E0
4.279880998E0,-2.039881349E-1,-7.564310431E-1,-9.769596100E0
4.289594071E0,-2.255235314E-1,-7.899305820E-1,-9.771988869E0
4.299306415E0,-2.207378894E-1,-8.018946648E-1,-9.908379555E0
4.309019592E0,-2.111666054E-1,-8.042874932E-1,-1.002114105E1
4.318733550E0,-1.728814393E-1,-7.947162390E-1,-9.978070259E0
4.328446623E0,-9.361918271E-2,-7.779664397E-1,-9.994820595E0
4.338158967E0,-6.729813665E-2,-7.683951855E-1,-9.942177773E0
4.347872144E0,-1.199402362E-1,-7.277171612E-1,-9.862915993E0
4.357586050E0,-1.537388563E-1,-6.870391965E-1,-9.891630173E0
4.367299123E0,-1.489532143E-1,-6.364908218E-1,-9.903594017E0
4.377011467E0,-1.393819153E-1,-6.364908218E-1,-9.865308762E0
4.386724644E0,-9.840483218E-2,-6.846463680E-1,-9.788738251E0
4.396438550E0,-3.379862010E-2,-7.396813035E-1,-9.738489151E0
4.406151623E0,-2.662015148E-2,-7.564310431E-1,-9.843772888E0
4.415863967E0,4.486542661E-3,-7.995018363E-1,-9.843772888E0
4.425577144E0,-6.729813665E-2,-7.683951855E-1,-9.786345482E0
4.435291050E0,-1.561316848E-1,-7.109674215E-1,-9.905986786E0
4.445004123E0,-2.135594189E-1,-6.870391965E-1,-9.865308762E0
4.454716467E0,-2.685943544E-1,-7.085745931E-1,-9.925428391E0
4.464429644E0,-2.398804724E-1,-7.325028181E-1,-9.942177773E0
4.474143602E0,-2.087737769E-1,-7.803592682E-1,-9.918250084E0
4.483856675E0,-1.657029688E-1,-8.377870321E-1,-9.934999466E0
4.493569019E0,-1.680957973E-1,-8.306085467E-1,-9.949356079E0
4.503282196E0,-1.800599098E-1,-7.707880139E-1,-1.000439167E1
4.512996102E0,-2.231307179E-1,-7.492526174E-1,-9.982855797E0
4.522709175E0,-2.877369225E-1,-7.325028181E-1,-9.850952148E0
4.532421519E0,-3.068794906E-1,-7.109674215E-1,-9.817452431E0
4.542134696E0,-3.044866920E-1,-7.061817646E-1,-9.800702095E0
4.551848602E0,-2.901297510E-1,-7.181459069E-1,-9.807881355E0
4.561561675E0,-2.255235314E-1,-7.612167001E-1,-9.898808479E0
4.571274019E0,-1.728814393E-1,-7.971090674E-1,-9.934999466E0
4.580987196E0,-1.585244983E-1,-8.258228898E-1,-1.001156998E1
4.590701102E0,-1.537388563E-1,-8.353942037E-1,-1.004985523E1
4.600414175E0,-1.609173268E-1,-8.425726891E-1,-9.920642853E0
4.610126519E0,-1.752742529E-1,-8.425726891E-1,-9.827023506E0
4.619839696E0,-1.274178028E-1,-8.090731502E-1,-9.848558426E0
4.629553654E0,-1.127617657E-1,-7.396813035E-1,-9.889236450E0
4.639266727E0,-1.079761237E-1,-7.037889361E-1,-9.958928108E0
4.648979071E0,-8.165507019E-2,-6.583253145E-1,-9.973284721E0
4.658692248E0,-8.165507019E-2,-6.149554253E-1,-9.894022942E0
4.668406154E0,-1.537388563E-1,-6.197410822E-1,-9.788738251E0
4.678119227E0,-2.327020019E-1,-6.631109715E-1,-9.726525307E0
4.687831571E0,-2.494517565E-1,-6.678966284E-1,-9.767203331E0
4.697544748E0,-2.350948304E-1,-7.037889361E-1,-9.781559944E0
4.707258654E0,-2.207378894E-1,-7.301099896E-1,-9.827023506E0
4.716971727E0,-1.657029688E-1,-7.277171612E-1,-9.903594017E0
4.726684071E0,-9.840483218E-2,-7.133602500E-1,-1.002353382E1
4.736397248E0,-6.490531564E-2,-7.468597889E-1,-1.001635551E1
4.746111154E0,-7.447660714E-2,-7.660023570E-1,-9.932606697E0
4.755824332E0,-8.404789865E-2,-7.564310431E-1,-9.987641335E0
4.765536571E0,-1.103689447E-1,-7.588238716E-1,-9.973284721E0
4.775249748E0,-1.680957973E-1,-7.875377536E-1,-9.872487068E0
4.784963707E0,-1.968096644E-1,-8.114659786E-1,-9.824630737E0
4.794676779E0,-1.489532143E-1,-7.612167001E-1,-9.913165092E0
4.804389123E0,-1.127617657E-1,-7.636095285E-1,-9.923035622E0
4.814102300E0,-1.175474152E-1,-7.325028181E-1,-9.843772888E0
4.823816207E0,-1.151545867E-1,-7.325028181E-1,-9.824630737E0
4.833529279E0,-7.686942816E-2,-7.229315639E-1,-9.803094864E0
4.843241623E0,-8.644071966E-2,-7.396813035E-1,-9.769596100E0
4.852954800E0,-1.250249892E-1,-7.588238716E-1,-9.728918076E0
4.862668707E0,-1.274178028E-1,-7.707880139E-1,-9.843772888E0
4.872381779E0,-1.680957973E-1,-7.516453862E-1,-1.003549862E1
4.882094123E0,-1.992024779E-1,-7.468597889E-1,-1.004746246E1
4.891807300E0,-2.087737769E-1,-7.061817646E-1,-1.001635551E1
4.901521207E0,-2.111666054E-1,-6.439684033E-1,-9.958928108E0
4.911234279E0,-1.513460279E-1,-6.149554253E-1,-9.898808479E0
4.920946623E0,-1.031904742E-1,-6.439684033E-1,-9.805487633E0
4.930659800E0,-7.926224917E-2,-7.109674215E-1,-9.693025589E0
4.940373707E0,-8.883354068E-2,-7.444669604E-1,-9.752845764E0
4.950086884E0,-1.274178028E-1,-7.731808424E-1,-9.884450912E0
4.959799123E0,-1.752742529E-1,-8.090731502E-1,-9.889236450E0
4.969512300E0,-2.135594189E-1,-7.947162390E-1,-9.925428391E0
4.979226259E0,-2.279163599E-1,-7.923234105E-1,-9.994820595E0
4.988939332E0,-1.872383654E-1,-7.803592682E-1,-9.961320877E0
4.998651675E0,-1.223330572E-1,-7.516453862E-1,-9.973284721E0
5.008364852E0,-8.883354068E-2,-7.420741320E-1,-9.949356079E0
5.018078759E0,-8.883354068E-2,-7.085745931E-1,-9.867701530E0
5.027791832E0,-8.644071966E-2,-6.631109715E-1,-9.884450912E0
5.037504175E0,-1.127617657E-1,-6.439684033E-1,-9.862915993E0
5.047217352E0,-1.274178028E-1,-6.559324861E-1,-9.810274124E0
5.056931259E0,-1.250249892E-1,-6.894320250E-1,-9.824630737E0
5.066644332E0,-1.250249892E-1,-7.277171612E-1,-9.908379555E0
5.076356675E0,-1.441675574E-1,-7.348956466E-1,-9.973284721E0
5.086069852E0,-1.561316848E-1,-7.468597889E-1,-9.992427826E0
5.095783759E0,-1.704886109E-1,-7.947162390E-1,-9.913165092E0
5.105496832E0,-1.704886109E-1,-8.186444640E-1,-9.815059662E0
5.115209175E0,-1.151545867E-1,-7.947162390E-1,-9.860523224E0
5.124922352E0,-5.294119939E-2,-7.492526174E-1,-9.898808479E0
5.134636259E0,-5.294119939E-2,-7.372884750E-1,-9.855737686E0
5.144349332E0,-6.729813665E-2,-7.253243923E-1,-9.870094299E0
5.154061675E0,-1.055833027E-1,-7.229315639E-1,-9.898808479E0
5.163774852E0,-1.585244983E-1,-7.037889361E-1,-9.930213928E0
5.173488759E0,-2.087737769E-1,-7.133602500E-1,-9.891630173E0
5.183201832E0,-2.398804724E-1,-6.918248534E-1,-9.819845200E0
5.192914175E0,-2.374876440E-1,-6.894320250E-1,-9.815059662E0
5.202627352E0,-1.848455518E-1,-7.253243923E-1,-9.791131020E0
5.212341259E0,-1.369891018E-1,-6.942176819E-1,-9.850952148E0
5.222054436E0,-6.490531564E-2,-7.013961077E-1,-9.918250084E0
5.231766675E0,-5.084747914E-3,-7.061817646E-1,-9.858130455E0
5.241479852E0,-1.704886183E-2,-6.966105103E-1,-9.836594582E0
5.251193811E0,-5.054837838E-2,-6.966105103E-1,-9.966106415E0
5.260906884E0,-1.103689447E-1,-7.229315639E-1,-1.001396275E1
5.270619227E0,-2.422732860E-1,-7.444669604E-1,-9.944570541E0
5.280332404E0,-2.757728100E-1,-8.018946648E-1,-9.865308762E0
5.290046311E0,-2.973082066E-1,-7.995018363E-1,-9.817452431E0
5.299759384E0,-2.901297510E-1,-7.779664397E-1,-9.834201813E0
5.309471727E0,-2.159522474E-1,-7.755736113E-1,-9.932606697E0
5.319184904E0,-1.223330572E-1,-7.683951855E-1,-1.002353382E1
5.328898811E0,-9.122636169E-2,-7.827520967E-1,-9.927821159E0
5.338611884E0,-8.404789865E-2,-7.588238716E-1,-9.915857315E0
5.348324227E0,-1.007976532E-1,-7.420741320E-1,-9.918250084E0
5.358037404E0,-1.513460279E-1,-7.157530785E-1,-9.834201813E0
5.367751311E0,-2.087737769E-1,-6.822535396E-1,-9.822237968E0
5.377464384E0,-2.733799815E-1,-6.631109715E-1,-9.846165657E0
5.387176727E0,-2.662015259E-1,-6.846463680E-1,-9.843772888E0
5.396889904E0,-2.159522474E-1,-7.348956466E-1,-9.884450912E0
5.406603811E0,-2.183450609E-1,-7.636095285E-1,-9.982855797E0
5.416316884E0,-1.824527234E-1,-7.875377536E-1,-9.886843681E0
5.426029227E0,-1.103689447E-1,-7.875377536E-1,-9.862915993E0
5.435742404E0,-9.361918271E-2,-8.018946648E-1,-9.870094299E0
5.445456311E0,-6.251249462E-2,-8.114659786E-1,-9.819845200E0
5.455169384E0,-5.533402413E-2,-7.492526174E-1,-9.867701530E0
5.464881727E0,-1.345962733E-1,-7.037889361E-1,-9.968499184E0
5.474594904E0,-1.298106313E-1,-6.655037999E-1,-9.918250084E0
5.484308811E0,-1.728814393E-1,-6.439684033E-1,-9.846165657E0
5.494021884E0,-2.805584669E-1,-6.487540603E-1,-9.841380119E0
5.503734227E0,-2.805584669E-1,-7.037889361E-1,-9.927821159E0
5.513447404E0,-1.848455518E-1,-7.205387354E-1,-9.937392235E0
5.523161311E0,-1.848455518E-1,-7.636095285E-1,-9.901201248E0
5.532874384E0,-8.883354068E-2,-7.899305820E-1,-9.898808479E0
5.542586727E0,-3.140579537E-2,-7.875377536E-1,-9.882058144E0
5.552299904E0,-5.533402413E-2,-7.564310431E-1,-9.834201813E0
5.562013811E0,-1.007976532E-1,-7.420741320E-1,-9.850952148E0
5.571726884E0,-1.537388563E-1,-7.444669604E-1,-9.853344917E0
5.581439227E0,-2.255235314E-1,-7.372884750E-1,-9.867701530E0
5.591152404E0,-2.757728100E-1,-7.564310431E-1,-9.879665375E0
5.600866311E0,-2.829512656E-1,-7.492526174E-1,-9.949356079E0
5.610579384E0,-2.039881349E-1,-7.468597889E-1,-1.002114105E1
5.620291727E0,-1.609173268E-1,-7.755736113E-1,-9.987641335E0
5.630004904E0,-1.151545867E-1,-7.779664397E-1,-9.954142570E0
5.639718811E0,-1.250249892E-1,-7.851449251E-1,-9.865308762E0
5.649431884E0,-1.633101404E-1,-7.372884750E-1,-9.771988869E0
5.659144227E0,-1.489532143E-1,-7.301099896E-1,-9.791131020E0
5.668857404E0,-1.776670814E-1,-7.109674215E-1,-9.795916557E0
5.678571311E0,-1.537388563E-1,-6.918248534E-1,-9.834201813E0
5.688284384E0,-1.537388563E-1,-6.918248534E-1,-9.872487068E0
5.697996727E0,-1.752742529E-1,-6.918248534E-1,-9.905986786E0
5.707709904E0,-2.063809484E-1,-7.181459069E-1,-9.891630173E0
5.717423811E0,-2.063809484E-1,-7.229315639E-1,-9.927821159E0
5.727136884E0,-1.920240223E-1,-7.301099896E-1,-9.968499184E0
5.736849227E0,-1.513460279E-1,-7.420741320E-1,-9.913165092E0
5.746562404E0,-1.103689447E-1,-7.205387354E-1,-9.930213928E0
5.756276311E0,-9.122636169E-2,-7.157530785E-1,-9.930213928E0
5.765989384E0,-1.561316848E-1,-6.966105103E-1,-9.836594582E0
5.775701727E0,-2.111666054E-1,-7.181459069E-1,-9.786345482E0
5.785414904E0,-2.231307179E-1,-7.253243923E-1,-9.803094864E0
5.795128811E0,-2.159522474E-1,-7.037889361E-1,-9.884450912E0
5.804841988E0,-2.614158690E-1,-7.205387354E-1,-9.901201248E0
5.814554227E0,-2.303091735E-1,-7.396813035E-1,-9.896415710E0
5.824267404E0,-1.896311939E-1,-7.731808424E-1,-9.985248566E0
5.833981363E0,-1.127617657E-1,-8.186444640E-1,-1.000199890E1
5.843694436E0,-1.944168471E-2,-8.521439433E-1,-9.905986786E0
5.853406727E0,4.277170449E-2,-8.425726891E-1,-9.877272606E0
5.863119904E0,7.387840003E-2,-8.186444640E-1,-9.874879837E0
5.872833811E0,3.080759197E-2,-7.683951855E-1,-9.908379555E0
5.882546988E0,-8.404789865E-2,-7.253243923E-1,-9.891630173E0
5.892259227E0,-1.704886109E-1,-7.205387354E-1,-9.877272606E0
5.901972404E0,-2.039881349E-1,-7.277171612E-1,-9.872487068E0
5.911686363E0,-2.135594189E-1,-7.348956466E-1,-9.867701530E0
5.921399436E0,-2.255235314E-1,-7.492526174E-1,-9.867701530E0
5.931111727E0,-2.398804724E-1,-7.348956466E-1,-9.956535339E0
5.940824904E0,-2.183450609E-1,-7.277171612E-1,-9.994820595E0
5.950538811E0,-1.776670814E-1,-7.372884750E-1,-9.951749802E0
5.960251988E0,-1.199402362E-1,-7.564310431E-1,-9.930213928E0
5.969964227E0,-8.644071966E-2,-7.588238716E-1,-9.874879837E0
5.979677404E0,-4.576273263E-2,-7.683951855E-1,-9.798309326E0
5.989391363E0,-1.007976532E-1,-7.612167001E-1,-9.793523788E0
5.999104436E0,-1.561316848E-1,-7.348956466E-1,-9.894022942E0
6.008816727E0,-1.896311939E-1,-7.205387354E-1,-9.920642853E0
6.018529904E0,-1.920240223E-1,-7.061817646E-1,-9.901201248E0
6.028243863E0,-1.776670814E-1,-7.181459069E-1,-9.956535339E0
6.037956936E0,-1.609173268E-1,-7.229315639E-1,-9.966106415E0
6.047669227E0,-1.752742529E-1,-7.396813035E-1,-9.884450912E0
6.057382404E0,-1.465603858E-1,-7.372884750E-1,-9.831809044E0
6.067096311E0,-1.585244983E-1,-7.037889361E-1,-9.827023506E0
6.076809488E0,-2.015953064E-1,-6.894320250E-1,-9.795916557E0
6.086521727E0,-1.896311939E-1,-6.870391965E-1,-9.786345482E0
6.096234904E0,-1.489532143E-1,-7.085745931E-1,-9.853344917E0
6.105948863E0,-1.489532143E-1,-7.133602500E-1,-9.910772324E0
6.115661936E0,-1.609173268E-1,-7.348956466E-1,-9.932606697E0
6.125374227E0,-1.417747438E-1,-7.851449251E-1,-9.886843681E0
6.135087404E0,-1.199402362E-1,-8.042874932E-1,-9.910772324E0
6.144801363E0,-1.489532143E-1,-7.707880139E-1,-9.963713646E0
6.154514436E0,-1.322034448E-1,-7.348956466E-1,-9.987641335E0
6.164226727E0,-1.465603858E-1,-7.157530785E-1,-9.905986786E0
6.173939904E0,-1.609173268E-1,-7.229315639E-1,-9.850952148E0
6.183653863E0,-1.585244983E-1,-7.420741320E-1,-9.858130455E0
6.193366884E0,-1.345962733E-1,-7.636095285E-1,-9.896415710E0
6.203079227E0,-7.926224917E-2,-7.971090674E-1,-9.905986786E0
6.212792404E0,-6.490531564E-2,-7.923234105E-1,-9.992427826E0
6.222506363E0,-8.165507019E-2,-7.779664397E-1,-1.005224800E1
6.232219436E0,-1.031904742E-1,-7.683951855E-1,-9.994820595E0
6.241931727E0,-1.151545867E-1,-7.444669604E-1,-9.903594017E0
6.251644904E0,-1.369891018E-1,-7.109674215E-1,-9.783952713E0
6.261358863E0,-1.103689447E-1,-7.013961077E-1,-9.779167175E0
6.271071936E0,-1.465603895E-2,-7.253243923E-1,-9.836594582E0
6.280784227E0,4.516452923E-2,-7.229315639E-1,-9.932606697E0
6.290497404E0,6.909275055E-2,-7.133602500E-1,-9.944570541E0
6.300211363E0,4.277170449E-2,-7.229315639E-1,-9.889236450E0
6.309924436E0,2.362912335E-2,-7.229315639E-1,-9.853344917E0
6.319636779E0,1.884347759E-2,-7.444669604E-1,-9.860523224E0
6.329349852E0,-3.858426586E-2,-7.636095285E-1,-9.803094864E0
6.339063863E0,-1.417747438E-1,-7.612167001E-1,-9.827023506E0
6.348776936E0,-1.537388563E-1,-7.540382147E-1,-9.901201248E0
6.358489227E0,-1.513460279E-1,-7.348956466E-1,-9.949356079E0
6.368202404E0,-1.872383654E-1,-7.133602500E-1,-9.913165092E0
6.377916363E0,-2.039881349E-1,-6.990033388E-1,-9.903594017E0
6.387629436E0,-2.303091735E-1,-6.942176819E-1,-9.923035622E0
6.397341779E0,-2.135594189E-1,-6.894320250E-1,-9.913165092E0
6.407054957E0,-1.968096644E-1,-7.157530785E-1,-9.918250084E0
6.416768863E0,-1.920240223E-1,-7.253243923E-1,-9.903594017E0
6.426481936E0,-1.657029688E-1,-7.372884750E-1,-9.918250084E0
6.436194279E0,-1.633101404E-1,-7.755736113E-1,-9.913165092E0
6.445907457E0,-1.561316848E-1,-7.947162390E-1,-9.891630173E0
6.455621363E0,-1.417747438E-1,-8.258228898E-1,-9.925428391E0
6.465334436E0,-8.165507019E-2,-8.282157183E-1,-9.910772324E0
6.475046779E0,-5.294119939E-2,-8.114659786E-1,-9.838987350E0
6.484759957E0,-7.926224917E-2,-7.803592682E-1,-9.870094299E0
6.494473863E0,-7.926224917E-2,-7.588238716E-1,-9.920642853E0
6.504186936E0,-4.815555736E-2,-7.181459069E-1,-9.944570541E0
6.513899279E0,-6.011966988E-2,-6.894320250E-1,-9.934999466E0
6.523612457E0,-9.840483218E-2,-6.511468887E-1,-9.920642853E0
6.533326363E0,-1.151545867E-1,-6.463612318E-1,-9.927821159E0
6.543039436E0,-1.103689447E-1,-6.535396576E-1,-9.867701530E0
6.552751779E0,-1.322034448E-1,-6.631109715E-1,-9.771988869E0
6.562464957E0,-1.513460279E-1,-6.631109715E-1,-9.767203331E0
6.572178863E0,-1.175474152E-1,-7.061817646E-1,-9.791131020E0
6.581891936E0,-6.011966988E-2,-7.348956466E-1,-9.815059662E0
6.591604279E0,-1.226321608E-2,-7.683951855E-1,-9.850952148E0
6.601317457E0,6.909275055E-2,-8.018946648E-1,-9.978070259E0
6.611031363E0,5.234299600E-2,-7.947162390E-1,-1.004985523E1
6.620744436E0,-2.991028305E-4,-7.923234105E-1,-9.999606133E0
6.630456779E0,-2.662015148E-2,-7.660023570E-1,-9.934999466E0
6.640169957E0,-7.447660714E-2,-7.468597889E-1,-9.939785004E0
6.649883863E0,-1.393819153E-1,-7.325028181E-1,-9.903594017E0
6.659596936E0,-1.728814393E-1,-7.612167001E-1,-9.903594017E0
6.669309279E0,-2.015953064E-1,-7.875377536E-1,-9.923035622E0
6.679022457E0,-2.111666054E-1,-7.875377536E-1,-9.923035622E0
6.688736363E0,-2.255235314E-1,-7.588238716E-1,-9.913165092E0
6.698449436E0,-1.920240223E-1,-7.540382147E-1,-9.848558426E0
6.708161779E0,-1.465603858E-1,-7.253243923E-1,-9.838987350E0
6.717874957E0,-1.223330572E-1,-7.037889361E-1,-9.877272606E0
6.727588863E0,-1.199402362E-1,-6.678966284E-1,-9.898808479E0
6.737302040E0,-1.441675574E-1,-6.463612318E-1,-9.937392235E0
6.747014279E0,-1.513460279E-1,-6.631109715E-1,-9.944570541E0
6.756727457E0,-1.561316848E-1,-7.277171612E-1,-9.920642853E0
6.766441415E0,-1.609173268E-1,-7.803592682E-1,-9.860523224E0
6.776154488E0,-1.369891018E-1,-8.018946648E-1,-9.793523788E0
6.785866832E0,-7.926224917E-2,-8.090731502E-1,-9.850952148E0
6.795580009E0,-3.619144112E-2,-8.114659786E-1,-9.884450912E0
6.805293915E0,-3.858426586E-2,-7.731808424E-1,-9.896415710E0
6.815006988E0,-5.533402413E-2,-7.492526174E-1,-9.908379555E0
6.824719332E0,-7.686942816E-2,-7.253243923E-1,-9.872487068E0
6.834432509E0,-1.250249892E-1,-6.990033388E-1,-9.908379555E0
6.844146415E0,-1.704886109E-1,-6.726822853E-1,-9.932606697E0
6.853859488E0,-1.680957973E-1,-6.798607111E-1,-9.925428391E0
6.863571832E0,-1.680957973E-1,-6.607181430E-1,-9.918250084E0
6.873285009E0,-1.369891018E-1,-6.463612318E-1,-9.913165092E0
6.882998915E0,-1.199402362E-1,-6.726822853E-1,-9.908379555E0
6.892711988E0,-1.175474152E-1,-7.013961077E-1,-9.829416275E0
6.902424332E0,-1.151545867E-1,-7.061817646E-1,-9.882058144E0
6.912137509E0,-1.031904742E-1,-7.468597889E-1,-9.905986786E0
6.921851415E0,-7.447660714E-2,-7.660023570E-1,-9.867701530E0
6.931564488E0,-5.054837838E-2,-7.947162390E-1,-9.858130455E0
6.941276832E0,-3.379862010E-2,-7.779664397E-1,-9.898808479E0
6.950990009E0,-2.662015148E-2,-7.683951855E-1,-9.944570541E0
6.960703915E0,-5.533402413E-2,-7.516453862E-1,-9.937392235E0
6.970416988E0,-8.165507019E-2,-7.683951855E-1,-9.954142570E0
6.980129332E0,-1.223330572E-1,-7.707880139E-1,-9.918250084E0
6.989842509E0,-1.752742529E-1,-7.851449251E-1,-9.838987350E0
6.999556467E0,-1.920240223E-1,-7.803592682E-1,-9.882058144E0
7.009269540E0,-2.159522474E-1,-7.827520967E-1,-9.850952148E0
7.018981884E0,-2.255235314E-1,-7.660023570E-1,-9.889236450E0
7.028695061E0,-1.800599098E-1,-7.037889361E-1,-9.908379555E0
7.038408967E0,-1.393819153E-1,-6.559324861E-1,-9.827023506E0
7.048122040E0,-9.601201117E-2,-6.293123364E-1,-9.783952713E0
7.057834384E0,-7.686942816E-2,-6.487540603E-1,-9.791131020E0
7.067547561E0,-9.840483218E-2,-6.918248534E-1,-9.886843681E0
7.077261467E0,-1.175474152E-1,-7.348956466E-1,-1.001635551E1
7.086974540E0,-1.250249892E-1,-7.683951855E-1,-1.004267693E1
7.096686884E0,-1.393819153E-1,-7.348956466E-1,-1.001396275E1
7.106400061E0,-1.824527234E-1,-7.420741320E-1,-9.908379555E0
7.116113967E0,-1.728814393E-1,-7.636095285E-1,-9.822237968E0
7.125827040E0,-1.250249892E-1,-7.683951855E-1,-9.829416275E0
7.135539384E0,-7.686942816E-2,-7.516453862E-1,-9.846165657E0
7.145252561E0,-2.901297435E-2,-7.516453862E-1,-9.951749802E0
7.154966519E0,-2.662015148E-2,-7.564310431E-1,-9.987641335E0
7.164679592E0,-3.379862010E-2,-7.540382147E-1,-9.934999466E0
7.174391936E0,-1.151545867E-1,-7.683951855E-1,-9.896415710E0
7.184105113E0,-1.393819153E-1,-7.875377536E-1,-9.846165657E0
7.193819019E0,-1.513460279E-1,-8.258228898E-1,-9.874879837E0
7.203532092E0,-1.250249892E-1,-8.377870321E-1,-9.958928108E0
7.213244436E0,-1.298106313E-1,-8.162516356E-1,-9.992427826E0
7.222957613E0,-1.007976532E-1,-7.707880139E-1,-9.968499184E0
7.232671519E0,-2.183450609E-1,-7.253243923E-1,-9.901201248E0
7.242384592E0,-3.092723191E-1,-6.870391965E-1,-9.748060226E0
7.252096936E0,-2.997010350E-1,-6.340979934E-1,-9.827023506E0
7.261810113E0,-2.279163599E-1,-5.886343718E-1,-9.898808479E0
7.271524019E0,-1.848455518E-1,-6.245267391E-1,-9.927821159E0
7.281237092E0,-1.848455518E-1,-6.655037999E-1,-9.822237968E0
7.290949436E0,-1.680957973E-1,-6.966105103E-1,-9.752845764E0
7.300662613E0,-1.537388563E-1,-7.420741320E-1,-9.724132538E0
7.310376519E0,-1.513460279E-1,-7.564310431E-1,-9.724132538E0
7.320089696E0,-1.250249892E-1,-7.444669604E-1,-9.882058144E0
7.329801988E0,-6.490531564E-2,-7.301099896E-1,-1.005942631E1
7.339515165E0,-9.122636169E-2,-7.205387354E-1,-1.014317513E1
7.349229071E0,-9.361918271E-2,-7.540382147E-1,-1.005703354E1
7.358942144E0,-6.251249462E-2,-7.947162390E-1,-9.992427826E0
7.368654488E0,-3.379862010E-2,-8.210372925E-1,-9.872487068E0
7.378367665E0,-7.447660714E-2,-8.114659786E-1,-9.862915993E0
7.388081571E0,-1.031904742E-1,-8.114659786E-1,-9.858130455E0
7.397794644E0,-1.127617657E-1,-8.018946648E-1,-9.841380119E0
7.407506988E0,-1.322034448E-1,-7.636095285E-1,-9.862915993E0
7.417220165E0,-2.015953064E-1,-7.157530785E-1,-9.934999466E0
7.426934071E0,-2.662015259E-1,-6.846463680E-1,-9.951749802E0
7.436647144E0,-2.590230405E-1,-6.846463680E-1,-9.918250084E0
7.446359488E0,-2.087737769E-1,-6.894320250E-1,-9.894022942E0
7.456072665E0,-1.633101404E-1,-6.846463680E-1,-9.894022942E0
7.465786623E0,-1.609173268E-1,-6.774678826E-1,-9.805487633E0
7.475499696E0,-1.704886109E-1,-6.894320250E-1,-9.743274689E0
7.485212040E0,-1.944168359E-1,-6.990033388E-1,-9.810274124E0
7.494925217E0,-2.039881349E-1,-6.894320250E-1,-9.896415710E0
7.504639123E0,-2.183450609E-1,-6.894320250E-1,-9.966106415E0
7.514352196E0,-1.992024779E-1,-7.061817646E-1,-9.898808479E0
7.524064540E0,-1.896311939E-1,-7.229315639E-1,-9.879665375E0
7.533777717E0,-2.039881349E-1,-7.301099896E-1,-9.942177773E0
7.543491623E0,-1.800599098E-1,-7.516453862E-1,-9.934999466E0
7.553204696E0,-1.704886109E-1,-7.229315639E-1,-9.870094299E0
7.562917040E0,-2.087737769E-1,-6.918248534E-1,-9.886843681E0
7.572630217E0,-1.680957973E-1,-6.894320250E-1,-9.930213928E0
7.582344123E0,-1.369891018E-1,-7.181459069E-1,-9.896415710E0
7.592057196E0,-9.601201117E-2,-7.660023570E-1,-9.819845200E0
7.601769540E0,-9.122636169E-2,-8.138588071E-1,-9.807881355E0
7.611482717E0,-8.404789865E-2,-8.353942037E-1,-9.798309326E0
7.621196675E0,-9.361918271E-2,-8.330013752E-1,-9.860523224E0
7.630909748E0,-1.127617657E-1,-7.947162390E-1,-9.966106415E0
7.640622092E0,-1.417747438E-1,-7.660023570E-1,-1.004267693E1
7.650335269E0,-1.417747438E-1,-7.468597889E-1,-1.002114105E1
7.660049175E0,-1.489532143E-1,-7.420741320E-1,-9.932606697E0
7.669762248E0,-2.063809484E-1,-7.372884750E-1,-9.846165657E0
7.679474592E0,-2.518445849E-1,-7.396813035E-1,-9.810274124E0
7.689187769E0,-2.350948304E-1,-7.085745931E-1,-9.793523788E0
7.698901675E0,-2.470589429E-1,-6.918248534E-1,-9.810274124E0
7.708614748E0,-2.303091735E-1,-6.798607111E-1,-9.858130455E0
7.718327092E0,-2.327020019E-1,-6.702894568E-1,-9.920642853E0
7.728040269E0,-2.398804724E-1,-6.966105103E-1,-1.002353382E1
7.737754175E0,-2.446661144E-1,-7.061817646E-1,-1.003789139E1
7.747467248E0,-1.657029688E-1,-7.420741320E-1,-9.949356079E0
7.757179592E0,-9.840483218E-2,-7.636095285E-1,-9.855737686E0
7.766892769E0,-7.686942816E-2,-7.683951855E-1,-9.829416275E0
7.776606727E0,-7.686942816E-2,-7.396813035E-1,-9.848558426E0
7.786319800E0,-1.298106313E-1,-7.468597889E-1,-9.829416275E0
7.796032144E0,-1.369891018E-1,-7.683951855E-1,-9.829416275E0
7.805745321E0,-1.274178028E-1,-7.683951855E-1,-9.870094299E0
7.815459227E0,-1.055833027E-1,-7.492526174E-1,-9.910772324E0
7.825172300E0,-1.103689447E-1,-7.085745931E-1,-9.937392235E0
7.834884644E0,-1.513460279E-1,-6.774678826E-1,-9.951749802E0
7.844597821E0,-1.465603858E-1,-6.678966284E-1,-9.898808479E0
7.854311727E0,-1.250249892E-1,-6.918248534E-1,-9.853344917E0
7.864024800E0,-1.103689447E-1,-7.133602500E-1,-9.867701530E0
7.873737144E0,-1.800599098E-1,-7.372884750E-1,-9.829416275E0
7.883450321E0,-2.183450609E-1,-7.755736113E-1,-9.776774406E0
7.893164227E0,-1.704886109E-1,-7.731808424E-1,-9.882058144E0
7.902877300E0,-1.441675574E-1,-7.588238716E-1,-9.987641335E0
7.912589644E0,-1.537388563E-1,-7.157530785E-1,-1.000199890E1
7.922302821E0,-1.609173268E-1,-6.846463680E-1,-9.982855797E0
7.932016779E0,-1.609173268E-1,-6.631109715E-1,-9.958928108E0
7.941729852E0,-1.441675574E-1,-6.822535396E-1,-9.923035622E0
7.951442196E0,-2.039881349E-1,-7.157530785E-1,-9.855737686E0
7.961155373E0,-2.757728100E-1,-7.731808424E-1,-9.800702095E0
7.970869279E0,-2.279163599E-1,-8.138588071E-1,-9.774381638E0
7.980582352E0,-1.250249892E-1,-8.186444640E-1,-9.822237968E0
7.990294696E0,-6.729813665E-2,-8.234301209E-1,-9.879665375E0
8.000007873E0,-4.336991161E-2,-8.210372925E-1,-9.896415710E0
8.009721779E0,-5.772684515E-2,-7.731808424E-1,-9.927821159E0
8.019434852E0,-9.840483218E-2,-7.301099896E-1,-9.939785004E0
8.029147196E0,-1.127617657E-1,-7.157530785E-1,-9.872487068E0
8.038860373E0,-1.250249892E-1,-6.918248534E-1,-9.870094299E0
8.048574279E0,-1.441675574E-1,-7.109674215E-1,-9.908379555E0
8.058287352E0,-1.298106313E-1,-7.037889361E-1,-9.905986786E0
8.067999696E0,-1.513460279E-1,-7.037889361E-1,-9.978070259E0
8.077712873E0,-1.920240223E-1,-7.133602500E-1,-1.000439167E1
8.087426832E0,-2.327020019E-1,-7.133602500E-1,-9.886843681E0
8.097139904E0,-2.805584669E-1,-6.990033388E-1,-9.783952713E0
8.106852248E0,-2.877369225E-1,-6.822535396E-1,-9.779167175E0
8.116565425E0,-2.470589429E-1,-6.966105103E-1,-9.831809044E0
8.126279332E0,-1.872383654E-1,-6.990033388E-1,-9.894022942E0
8.135992404E0,-1.298106313E-1,-7.253243923E-1,-9.963713646E0
8.145704748E0,-9.361918271E-2,-7.540382147E-1,-9.966106415E0
8.155417925E0,-1.007976532E-1,-7.588238716E-1,-9.918250084E0
8.165131832E0,-1.199402362E-1,-7.755736113E-1,-9.870094299E0
8.174844904E0,-1.103689447E-1,-7.707880139E-1,-9.841380119E0
8.184557248E0,-1.489532143E-1,-7.660023570E-1,-9.831809044E0
8.194270425E0,-2.063809484E-1,-7.636095285E-1,-9.860523224E0
8.203984332E0,-2.542374134E-1,-7.468597889E-1,-9.879665375E0
8.213697404E0,-2.709871531E-1,-7.372884750E-1,-9.867701530E0
8.223409748E0,-2.470589429E-1,-7.516453862E-1,-9.879665375E0
8.233122925E0,-2.231307179E-1,-7.660023570E-1,-9.915857315E0
8.242836884E0,-1.872383654E-1,-7.707880139E-1,-9.920642853E0
8.252549957E0,-1.298106313E-1,-7.803592682E-1,-9.850952148E0
8.262262300E0,-1.031904742E-1,-7.803592682E-1,-9.874879837E0
8.271975477E0,-9.840483218E-2,-7.803592682E-1,-9.942177773E0
8.281689384E0,-1.298106313E-1,-7.683951855E-1,-9.966106415E0
8.291402457E0,-1.079761237E-1,-7.707880139E-1,-9.920642853E0
8.301114800E0,-1.345962733E-1,-7.755736113E-1,-9.942177773E0
8.310827977E0,-1.513460279E-1,-7.540382147E-1,-9.961320877E0
8.320541884E0,-1.872383654E-1,-7.396813035E-1,-9.882058144E0
8.330254957E0,-1.800599098E-1,-7.253243923E-1,-9.812666893E0
8.339967300E0,-1.728814393E-1,-7.109674215E-1,-9.798309326E0
8.349680477E0,-1.633101404E-1,-6.966105103E-1,-9.850952148E0
8.359394384E0,-1.199402362E-1,-6.798607111E-1,-9.903594017E0
8.369107457E0,-1.223330572E-1,-7.181459069E-1,-9.793523788E0
8.378819800E0,-1.489532143E-1,-7.301099896E-1,-9.803094864E0
8.388532977E0,-1.199402362E-1,-7.444669604E-1,-1.003071213E1
8.398246936E0,-1.223330572E-1,-7.516453862E-1,-1.011206818E1
8.407960009E0,-1.441675574E-1,-7.755736113E-1,-1.001396275E1
8.417672352E0,-1.561316848E-1,-7.875377536E-1,-9.942177773E0
8.427385529E0,-1.848455518E-1,-7.731808424E-1,-9.985248566E0
8.437099436E0,-2.183450609E-1,-7.301099896E-1,-9.970891953E0
8.446812509E0,-2.709871531E-1,-7.157530785E-1,-9.874879837E0
8.456524852E0,-2.829512656E-1,-6.942176819E-1,-9.776774406E0
8.466238029E0,-2.255235314E-1,-6.846463680E-1,-9.709774971E0
8.475951936E0,-2.087737769E-1,-7.037889361E-1,-9.693025589E0
8.485665009E0,-2.063809484E-1,-7.731808424E-1,-9.664311409E0
8.495377352E0,-1.199402362E-1,-7.803592682E-1,-9.764810562E0
8.505090529E0,-2.662015148E-2,-7.755736113E-1,-9.982855797E0
8.514804436E0,-1.465603895E-2,-7.301099896E-1,-1.017667484E1
8.524517509E0,-2.991028305E-4,-7.301099896E-1,-1.013838959E1
8.534229852E0,-9.870393202E-3,-7.564310431E-1,-9.942177773E0
8.543943029E0,-2.662015148E-2,-7.612167001E-1,-9.755238533E0
8.553656936E0,-9.601201117E-2,-7.492526174E-1,-9.760024071E0
8.563370113E0,-1.992024779E-1,-7.253243923E-1,-9.764810562E0
8.573082352E0,-2.422732860E-1,-7.205387354E-1,-9.829416275E0
8.582795529E0,-2.829512656E-1,-7.253243923E-1,-9.877272606E0
8.592509488E0,-3.308077157E-1,-7.253243923E-1,-9.853344917E0
8.602222561E0,-3.284149170E-1,-7.301099896E-1,-9.905986786E0
8.611934904E0,-2.733799815E-1,-7.205387354E-1,-1.001156998E1
8.621648082E0,-2.207378894E-1,-7.205387354E-1,-1.003310490E1
8.631361988E0,-1.489532143E-1,-7.420741320E-1,-1.001635551E1
8.641075061E0,-8.404789865E-2,-7.420741320E-1,-9.886843681E0
8.650787404E0,-4.576273263E-2,-7.564310431E-1,-9.834201813E0
8.660500582E0,-5.294119939E-2,-7.348956466E-1,-9.817452431E0
8.670214488E0,-1.007976532E-1,-7.109674215E-1,-9.771988869E0
8.679927561E0,-1.657029688E-1,-7.157530785E-1,-9.834201813E0
8.689639904E0,-1.944168359E-1,-7.133602500E-1,-9.755238533E0
8.699353082E0,-1.441675574E-1,-7.061817646E-1,-9.803094864E0
8.709066988E0,-1.609173268E-1,-7.157530785E-1,-9.905986786E0
8.718780061E0,-1.609173268E-1,-6.894320250E-1,-9.942177773E0
8.728492404E0,-1.657029688E-1,-6.942176819E-1,-1.003310490E1
8.738205582E0,-1.657029688E-1,-7.181459069E-1,-9.978070259E0
8.747919540E0,-1.728814393E-1,-7.229315639E-1,-9.908379555E0
8.757632613E0,-1.055833027E-1,-7.636095285E-1,-9.879665375E0
8.767344957E0,-3.379862010E-2,-7.779664397E-1,-9.838987350E0
8.777058134E0,-1.226321608E-2,-7.731808424E-1,-9.874879837E0
8.786772040E0,-4.815555736E-2,-7.444669604E-1,-9.956535339E0
8.796485113E0,-1.079761237E-1,-7.396813035E-1,-9.927821159E0
8.806197457E0,-1.824527234E-1,-7.301099896E-1,-9.872487068E0
8.815910634E0,-1.992024779E-1,-7.325028181E-1,-9.807881355E0
8.825624540E0,-2.398804724E-1,-7.277171612E-1,-9.750452995E0
8.835337613E0,-2.087737769E-1,-7.277171612E-1,-9.819845200E0
8.845049957E0,-1.489532143E-1,-7.588238716E-1,-9.915857315E0
8.854763134E0,-1.250249892E-1,-7.660023570E-1,-9.882058144E0
8.864477040E0,-1.489532143E-1,-7.803592682E-1,-9.867701530E0
8.874190113E0,-1.561316848E-1,-7.731808424E-1,-9.923035622E0
8.883902457E0,-1.657029688E-1,-7.468597889E-1,-9.949356079E0
8.893615634E0,-1.417747438E-1,-7.348956466E-1,-9.954142570E0
8.903329540E0,-1.007976532E-1,-7.325028181E-1,-9.944570541E0
8.913042613E0,-8.404789865E-2,-7.205387354E-1,-9.905986786E0
8.922754957E0,-1.055833027E-1,-7.181459069E-1,-9.886843681E0
8.932468134E0,-1.369891018E-1,-7.085745931E-1,-9.913165092E0
8.942182092E0,-2.039881349E-1,-6.942176819E-1,-9.951749802E0
8.951895165E0,-2.303091735E-1,-7.109674215E-1,-9.930213928E0
8.961607457E0,-1.633101404E-1,-7.229315639E-1,-9.910772324E0
8.971320634E0,-8.644071966E-2,-7.468597889E-1,-9.889236450E0
8.981034592E0,-4.336991161E-2,-7.971090674E-1,-9.815059662E0
8.990747665E0,4.486542661E-3,-8.114659786E-1,-9.850952148E0
9.000460009E0,-1.226321608E-2,-7.995018363E-1,-9.872487068E0
9.010173186E0,-5.294119939E-2,-7.827520967E-1,-9.874879837E0
9.019887092E0,-1.465603858E-1,-7.420741320E-1,-9.898808479E0
9.029600165E0,-1.992024779E-1,-7.157530785E-1,-9.946963310E0
9.039312509E0,-2.111666054E-1,-7.037889361E-1,-9.923035622E0
9.049025686E0,-2.159522474E-1,-7.085745931E-1,-9.944570541E0
9.058739592E0,-2.231307179E-1,-7.229315639E-1,-9.896415710E0
9.068452665E0,-1.992024779E-1,-7.755736113E-1,-9.874879837E0
9.078165009E0,-1.872383654E-1,-7.851449251E-1,-9.882058144E0
9.087878186E0,-1.393819153E-1,-7.971090674E-1,-9.939785004E0
9.097592092E0,-1.752742529E-1,-7.803592682E-1,-9.930213928E0
9.107305165E0,-2.039881349E-1,-7.372884750E-1,-9.908379555E0
9.117017509E0,-1.800599098E-1,-7.013961077E-1,-9.903594017E0
9.126730686E0,-2.063809484E-1,-6.798607111E-1,-9.853344917E0
9.136444592E0,-2.015953064E-1,-6.726822853E-1,-9.786345482E0
9.146157769E0,-1.633101404E-1,-6.535396576E-1,-9.903594017E0
9.155870009E0,-1.274178028E-1,-6.966105103E-1,-1.006660461E1
9.165583186E0,-1.465603858E-1,-7.348956466E-1,-9.987641335E0
9.175297144E0,-1.824527234E-1,-7.803592682E-1,-9.913165092E0
9.185010217E0,-2.183450609E-1,-8.066803217E-1,-9.846165657E0
9.194722509E0,-2.303091735E-1,-8.162516356E-1,-9.755238533E0
9.204435738E0,-1.537388563E-1,-8.330013752E-1,-9.800702095E0
9.214149644E0,-4.576273263E-2,-8.401798606E-1,-9.870094299E0
9.223862717E0,6.879365072E-3,-8.258228898E-1,-9.910772324E0
9.233575061E0,1.884347759E-2,-8.282157183E-1,-9.980463028E0
9.243288238E0,-7.477570791E-3,-7.827520967E-1,-1.003549862E1
9.253002144E0,-6.251249462E-2,-7.301099896E-1,-9.978070259E0
9.262715217E0,-1.585244983E-1,-6.798607111E-1,-9.721739769E0
9.272427561E0,-2.327020019E-1,-6.415755749E-1,-9.592526436E0
9.282140738E0,-3.020938635E-1,-6.077769399E-1,-9.678668022E0
9.291854644E0,-3.427718580E-1,-5.958128572E-1,-9.760024071E0
9.301567717E0,-3.308077157E-1,-6.173482537E-1,-9.879665375E0
9.311280061E0,-2.973082066E-1,-6.822535396E-1,-9.970891953E0
9.320993238E0,-2.566302419E-1,-7.468597889E-1,-9.992427826E0
9.330707144E0,-2.015953064E-1,-8.090731502E-1,-1.004985523E1
9.340420217E0,-1.920240223E-1,-8.186444640E-1,-1.000199890E1
9.350132561E0,-1.561316848E-1,-7.875377536E-1,-9.870094299E0
9.359845738E0,-1.223330572E-1,-7.612167001E-1,-9.855737686E0
9.369559644E0,-1.007976532E-1,-7.037889361E-1,-9.824630737E0
9.379272717E0,-3.858426586E-2,-6.822535396E-1,-9.750452995E0
9.388985061E0,-2.183450572E-2,-6.559324861E-1,-9.752845764E0
9.398698238E0,-6.011966988E-2,-6.535396576E-1,-9.843772888E0
9.408412196E0,-1.175474152E-1,-7.037889361E-1,-9.920642853E0
9.418125269E0,-1.968096644E-1,-7.444669604E-1,-9.958928108E0
9.427837613E0,-2.159522474E-1,-8.306085467E-1,-9.994820595E0
9.437550790E0,-1.824527234E-1,-8.641080856E-1,-1.000917721E1
9.447264696E0,-1.322034448E-1,-8.497511148E-1,-9.927821159E0
9.456977769E0,-6.251249462E-2,-8.425726891E-1,-9.896415710E0
9.466690113E0,-3.140579537E-2,-8.162516356E-1,-9.894022942E0
9.476403290E0,-3.140579537E-2,-8.090731502E-1,-9.860523224E0
9.486117196E0,-6.729813665E-2,-7.707880139E-1,-9.791131020E0
9.495830269E0,-1.369891018E-1,-6.894320250E-1,-9.738489151E0
9.505542613E0,-2.494517565E-1,-6.197410822E-1,-9.843772888E0
9.515255790E0,-3.212364316E-1,-5.934200287E-1,-9.963713646E0
9.524969696E0,-3.714857101E-1,-5.910272002E-1,-9.992427826E0
9.534682769E0,-3.619144261E-1,-6.029912829E-1,-9.978070259E0
9.544395113E0,-3.044866920E-1,-6.340979934E-1,-9.886843681E0
9.554108290E0,-1.704886109E-1,-7.013961077E-1,-9.913165092E0
9.563822196E0,-2.183450572E-2,-7.707880139E-1,-9.865308762E0
9.573535269E0,5.234299600E-2,-8.018946648E-1,-9.757631302E0
9.583247613E0,1.528415531E-1,-8.353942037E-1,-9.769596100E0
9.592960790E0,1.528415531E-1,-8.114659786E-1,-9.874879837E0
9.602674696E0,6.191428751E-2,-7.899305820E-1,-9.946963310E0
9.612387769E0,-2.691925503E-3,-8.138588071E-1,-9.901201248E0
9.622100113E0,-9.361918271E-2,-8.282157183E-1,-9.882058144E0
9.631813290E0,-1.633101404E-1,-8.138588071E-1,-1.001635551E1
9.641527248E0,-2.374876440E-1,-7.899305820E-1,-9.999606133E0
9.651240269E0,-2.518445849E-1,-7.516453862E-1,-9.894022942E0
9.660952613E0,-2.757728100E-1,-7.109674215E-1,-9.850952148E0
9.670665790E0,-3.020938635E-1,-6.702894568E-1,-9.846165657E0
9.680379748E0,-2.685943544E-1,-6.487540603E-1,-9.896415710E0
9.690092821E0,-2.039881349E-1,-6.918248534E-1,-9.978070259E0
9.699805165E0,-1.680957973E-1,-7.731808424E-1,-9.961320877E0
9.709518342E0,-1.298106313E-1,-8.258228898E-1,-9.951749802E0
9.719232248E0,-1.223330572E-1,-8.042874932E-1,-9.956535339E0
9.728945321E0,-1.417747438E-1,-7.540382147E-1,-9.884450912E0
9.738657665E0,-9.601201117E-2,-7.372884750E-1,-9.834201813E0
9.748370842E0,-4.336991161E-2,-7.013961077E-1,-9.855737686E0
9.758084748E0,-2.901297435E-2,-6.774678826E-1,-9.898808479E0
9.767797821E0,-2.991028305E-4,-7.013961077E-1,-9.932606697E0
9.777510165E0,-5.294119939E-2,-7.277171612E-1,-9.858130455E0
9.787223342E0,-7.208377868E-2,-7.348956466E-1,-9.740881920E0
9.796937248E0,-1.151545867E-1,-7.396813035E-1,-9.767203331E0
9.806650321E0,-1.489532143E-1,-7.564310431E-1,-9.764810562E0
9.816362665E0,-2.542374134E-1,-7.420741320E-1,-9.800702095E0
9.826075842E0,-3.332005441E-1,-7.037889361E-1,-9.901201248E0
9.835789748E0,-3.044866920E-1,-7.205387354E-1,-9.923035622E0
9.845502821E0,-2.398804724E-1,-7.325028181E-1,-9.987641335E0
9.855215165E0,-1.322034448E-1,-7.492526174E-1,-1.005464077E1
9.864928342E0,-7.926224917E-2,-7.253243923E-1,-1.003549862E1
9.874642248E0,-5.294119939E-2,-7.085745931E-1,-9.944570541E0
9.884355321E0,-6.969095767E-2,-7.253243923E-1,-9.822237968E0
9.894067665E0,-1.007976532E-1,-7.468597889E-1,-9.762416840E0
9.903780842E0,-8.165507019E-2,-7.660023570E-1,-9.733703613E0
9.913494748E0,-5.772684515E-2,-7.755736113E-1,-9.786345482E0
9.923207821E0,-3.379862010E-2,-7.827520967E-1,-9.853344917E0
9.932920165E0,-6.969095767E-2,-7.468597889E-1,-9.915857315E0
9.942633342E0,-1.369891018E-1,-7.157530785E-1,-9.956535339E0
9.952347300E0,-2.111666054E-1,-7.205387354E-1,-9.973284721E0
9.962060373E0,-2.279163599E-1,-7.253243923E-1,-1.000917721E1
9.971772665E0,-2.279163599E-1,-7.444669604E-1,-9.992427826E0
9.981485894E0,-1.848455518E-1,-7.660023570E-1,-9.915857315E0
9.991199800E0,-1.465603858E-1,-7.971090674E-1,-9.827023506E0
1.000091287E1,-9.122636169E-2,-7.923234105E-1,-9.870094299E0
1.001062522E1,-1.007976532E-1,-7.492526174E-1,-9.896415710E0
1.002033839E1,-1.175474152E-1,-7.133602500E-1,-9.886843681E0
1.003005230E1,-1.657029688E-1,-7.061817646E-1,-9.913165092E0
1.003976537E1,-2.015953064E-1,-6.990033388E-1,-9.915857315E0
1.004947772E1,-2.446661144E-1,-6.990033388E-1,-9.870094299E0
1.005919089E1,-1.872383654E-1,-7.301099896E-1,-9.836594582E0
1.006890480E1,-1.055833027E-1,-7.660023570E-1,-9.824630737E0
1.007861787E1,-5.772684515E-2,-7.588238716E-1,-9.803094864E0
1.008833022E1,-5.054837838E-2,-7.325028181E-1,-9.779167175E0
1.009804339E1,-1.175474152E-1,-7.085745931E-1,-9.872487068E0
1.010775730E1,-1.896311939E-1,-7.181459069E-1,-1.003071213E1
1.011747037E1,-2.255235314E-1,-7.588238716E-1,-9.973284721E0
1.012718272E1,-1.657029688E-1,-8.066803217E-1,-9.949356079E0
1.013689589E1,-7.208377868E-2,-8.234301209E-1,-1.003549862E1
1.014660980E1,-2.662015148E-2,-8.401798606E-1,-9.978070259E0
1.015632287E1,-2.662015148E-2,-8.066803217E-1,-9.843772888E0
1.016603522E1,-8.883354068E-2,-7.301099896E-1,-9.812666893E0
1.017574839E1,-1.633101404E-1,-6.678966284E-1,-9.807881355E0
1.018546230E1,-2.063809484E-1,-6.415755749E-1,-9.810274124E0
1.019517537E1,-2.063809484E-1,-6.340979934E-1,-9.846165657E0
1.020488772E1,-1.992024779E-1,-6.726822853E-1,-9.913165092E0
1.021460089E1,-1.800599098E-1,-7.348956466E-1,-9.970891953E0
1.022431485E1,-1.393819153E-1,-8.138588071E-1,-9.886843681E0
1.023402793E1,-1.345962733E-1,-7.947162390E-1,-9.889236450E0
1.024374022E1,-1.489532143E-1,-7.707880139E-1,-1.001396275E1
1.025345345E1,-1.800599098E-1,-7.660023570E-1,-9.908379555E0
1.026316735E1,-1.920240223E-1,-7.229315639E-1,-9.819845200E0
1.027288042E1,-1.680957973E-1,-6.774678826E-1,-9.867701530E0
1.028259277E1,-1.250249892E-1,-6.726822853E-1,-9.874879837E0
1.029230595E1,-1.274178028E-1,-6.942176819E-1,-9.858130455E0
1.030201985E1,-1.298106313E-1,-7.133602500E-1,-9.874879837E0
1.031173293E1,-1.250249892E-1,-7.516453862E-1,-9.927821159E0
1.032144527E1,-1.322034448E-1,-7.779664397E-1,-9.956535339E0
1.033115845E1,-1.417747438E-1,-7.707880139E-1,-9.910772324E0
1.034087235E1,-1.322034448E-1,-7.803592682E-1,-9.877272606E0
1.035058542E1,-1.199402362E-1,-7.899305820E-1,-9.848558426E0
1.036029777E1,-1.345962733E-1,-7.588238716E-1,-9.834201813E0
1.037001095E1,-1.417747438E-1,-7.420741320E-1,-9.896415710E0
1.037972485E1,-1.274178028E-1,-7.396813035E-1,-9.930213928E0
1.038943793E1,-1.537388563E-1,-7.109674215E-1,-9.954142570E0
1.039915027E1,-2.063809484E-1,-7.109674215E-1,-9.915857315E0
1.040886345E1,-2.494517565E-1,-6.990033388E-1,-9.867701530E0
1.041857735E1,-1.944168359E-1,-6.511468887E-1,-9.927821159E0
1.042829042E1,-1.489532143E-1,-6.631109715E-1,-9.910772324E0
1.043800277E1,-1.322034448E-1,-6.511468887E-1,-9.810274124E0
1.044771595E1,-6.969095767E-2,-6.774678826E-1,-9.803094864E0
1.045742985E1,2.093719784E-3,-7.325028181E-1,-9.817452431E0
1.046714293E1,4.516452923E-2,-7.636095285E-1,-9.803094864E0
1.047685527E1,1.884347759E-2,-7.899305820E-1,-9.831809044E0
1.048656845E1,-1.226321608E-2,-8.449655175E-1,-9.865308762E0
1.049628235E1,-7.447660714E-2,-8.353942037E-1,-9.908379555E0
1.050599542E1,-1.151545867E-1,-7.947162390E-1,-9.999606133E0
1.051570777E1,-1.872383654E-1,-7.707880139E-1,-1.000199890E1
1.052542095E1,-1.968096644E-1,-7.253243923E-1,-9.992427826E0
1.053513485E1,-1.704886109E-1,-7.205387354E-1,-9.975677490E0
1.054484803E1,-1.633101404E-1,-7.085745931E-1,-9.896415710E0
1.055456027E1,-1.704886109E-1,-7.037889361E-1,-9.831809044E0
1.056427345E1,-1.417747438E-1,-6.990033388E-1,-9.831809044E0
1.057398740E1,-1.007976532E-1,-7.133602500E-1,-9.879665375E0
1.058370048E1,-9.122636169E-2,-6.846463680E-1,-9.831809044E0
1.059341282E1,-1.007976532E-1,-6.750751138E-1,-9.836594582E0
1.060312600E1,-1.369891018E-1,-6.966105103E-1,-9.934999466E0
1.061283990E1,-1.561316848E-1,-7.157530785E-1,-9.956535339E0
1.062255298E1,-1.393819153E-1,-7.492526174E-1,-1.000678444E1
1.063226532E1,-1.199402362E-1,-7.779664397E-1,-1.001156998E1
1.064197850E1,-1.199402362E-1,-7.971090674E-1,-9.925428391E0
1.065169240E1,-1.274178028E-1,-8.018946648E-1,-9.841380119E0
1.066140548E1,-1.657029688E-1,-7.803592682E-1,-9.795916557E0
1.067111782E1,-1.872383654E-1,-7.277171612E-1,-9.882058144E0
1.068083100E1,-1.752742529E-1,-7.109674215E-1,-9.980463028E0
1.069054490E1,-1.585244983E-1,-7.133602500E-1,-9.944570541E0
1.070025798E1,-1.776670814E-1,-7.229315639E-1,-9.846165657E0
1.070997032E1,-1.513460279E-1,-7.372884750E-1,-9.822237968E0
1.071968350E1,-1.513460279E-1,-7.540382147E-1,-9.800702095E0
1.072939740E1,-1.537388563E-1,-7.564310431E-1,-9.831809044E0
1.073911048E1,-1.274178028E-1,-7.588238716E-1,-9.946963310E0
1.074882282E1,-1.175474152E-1,-7.372884750E-1,-1.000917721E1
1.075853600E1,-5.294119939E-2,-7.253243923E-1,-9.973284721E0
1.076824990E1,-2.422732860E-2,-7.325028181E-1,-9.910772324E0
1.077796298E1,-3.619144112E-2,-7.396813035E-1,-9.812666893E0
1.078767532E1,-9.122636169E-2,-7.348956466E-1,-9.731310844E0
1.079738850E1,-1.465603858E-1,-7.325028181E-1,-9.779167175E0
1.080710240E1,-2.087737769E-1,-7.253243923E-1,-9.855737686E0
1.081681548E1,-2.183450609E-1,-7.277171612E-1,-9.879665375E0
1.082652782E1,-2.159522474E-1,-6.726822853E-1,-9.872487068E0
1.083624100E1,-1.872383654E-1,-6.269195080E-1,-9.932606697E0
1.084595490E1,-1.127617657E-1,-6.077769399E-1,-9.994820595E0
1.085566798E1,-5.533402413E-2,-6.388836503E-1,-9.990034103E0
1.086538032E1,-4.815555736E-2,-6.750751138E-1,-9.956535339E0
1.087509350E1,-8.404789865E-2,-7.301099896E-1,-9.853344917E0
1.088480740E1,-1.151545867E-1,-7.229315639E-1,-9.776774406E0
1.089452048E1,-1.007976532E-1,-7.325028181E-1,-9.721739769E0
1.090423282E1,-6.729813665E-2,-7.396813035E-1,-9.760024071E0
1.091394600E1,-4.815555736E-2,-7.612167001E-1,-9.874879837E0
1.092365990E1,-6.251249462E-2,-7.827520967E-1,-1.001874828E1
1.093337298E1,-4.576273263E-2,-7.923234105E-1,-1.003789139E1
1.094308532E1,-6.490531564E-2,-8.042874932E-1,-1.000917721E1
1.095279850E1,-1.151545867E-1,-8.042874932E-1,-9.975677490E0
1.096251240E1,-2.015953064E-1,-7.923234105E-1,-9.918250084E0
1.097222548E1,-2.231307179E-1,-7.803592682E-1,-9.877272606E0
1.098193782E1,-2.255235314E-1,-7.731808424E-1,-9.874879837E0
1.099165100E1,-2.231307179E-1,-7.444669604E-1,-9.939785004E0
1.100136490E1,-2.374876440E-1,-6.942176819E-1,-9.994820595E0
1.101107798E1,-2.733799815E-1,-6.678966284E-1,-9.934999466E0
1.102079032E1,-2.973082066E-1,-6.750751138E-1,-9.846165657E0
1.103050350E1,-2.709871531E-1,-6.918248534E-1,-9.721739769E0
1.104021740E1,-1.489532143E-1,-7.037889361E-1,-9.738489151E0
1.104993048E1,-4.097708687E-2,-6.942176819E-1,-9.853344917E0
1.105964282E1,-2.691925503E-3,-6.774678826E-1,-9.819845200E0
1.106935600E1,9.272187948E-3,-6.678966284E-1,-9.889236450E0
1.107906990E1,-2.422732860E-2,-6.822535396E-1,-9.944570541E0
1.108878298E1,-6.011966988E-2,-6.942176819E-1,-9.934999466E0
1.109849532E1,-1.031904742E-1,-7.325028181E-1,-9.901201248E0
1.110820850E1,-1.657029688E-1,-7.564310431E-1,-9.853344917E0
1.111792240E1,-1.728814393E-1,-7.588238716E-1,-9.860523224E0
1.112763548E1,-1.561316848E-1,-7.755736113E-1,-9.898808479E0
1.113734782E1,-2.135594189E-1,-7.540382147E-1,-9.889236450E0
1.114706100E1,-2.422732860E-1,-7.540382147E-1,-9.925428391E0
1.115677496E1,-2.207378894E-1,-7.468597889E-1,-1.000917721E1
1.116648798E1,-1.704886109E-1,-7.229315639E-1,-1.004028416E1
1.117620032E1,-1.223330572E-1,-6.966105103E-1,-1.001396275E1
1.118591350E1,-1.223330572E-1,-6.846463680E-1,-9.942177773E0
1.119562746E1,-1.704886109E-1,-6.822535396E-1,-9.831809044E0
1.120534053E1,-1.704886109E-1,-6.942176819E-1,-9.781559944E0
1.121505287E1,-1.274178028E-1,-6.990033388E-1,-9.822237968E0
1.122476605E1,-1.031904742E-1,-7.157530785E-1,-9.874879837E0
1.123447996E1,-5.294119939E-2,-7.516453862E-1,-9.913165092E0
1.124419303E1,-4.815555736E-2,-7.396813035E-1,-9.949356079E0
1.125390537E1,-1.175474152E-1,-7.372884750E-1,-9.942177773E0
1.126361855E1,-1.561316848E-1,-7.396813035E-1,-9.889236450E0
1.127333246E1,-1.609173268E-1,-7.468597889E-1,-9.898808479E0
1.128304553E1,-1.537388563E-1,-7.588238716E-1,-9.918250084E0
1.129275787E1,-1.489532143E-1,-7.444669604E-1,-9.855737686E0
1.130247105E1,-1.537388563E-1,-7.205387354E-1,-9.762416840E0
1.131218496E1,-1.055833027E-1,-7.348956466E-1,-9.795916557E0
1.132189803E1,-6.490531564E-2,-7.037889361E-1,-9.889236450E0
1.133161037E1,-6.251249462E-2,-7.229315639E-1,-9.905986786E0
1.134132355E1,-1.151545867E-1,-7.133602500E-1,-9.920642853E0
1.135103746E1,-1.250249892E-1,-7.372884750E-1,-9.968499184E0
1.136075053E1,-1.322034448E-1,-7.325028181E-1,-9.966106415E0
1.137046287E1,-1.103689447E-1,-7.516453862E-1,-9.944570541E0
1.138017605E1,-8.883354068E-2,-7.683951855E-1,-9.942177773E0
1.138988996E1,-6.251249462E-2,-7.971090674E-1,-9.961320877E0
1.139960303E1,-6.251249462E-2,-8.066803217E-1,-9.882058144E0
1.140931537E1,-4.815555736E-2,-7.947162390E-1,-9.850952148E0
1.141902855E1,-6.490531564E-2,-7.827520967E-1,-9.846165657E0
1.142874246E1,-1.151545867E-1,-7.516453862E-1,-9.908379555E0
1.143845553E1,-2.039881349E-1,-6.990033388E-1,-9.973284721E0
1.144816787E1,-2.087737769E-1,-6.750751138E-1,-1.000439167E1
1.145788105E1,-2.398804724E-1,-6.726822853E-1,-9.932606697E0
1.146759501E1,-2.733799815E-1,-6.631109715E-1,-9.865308762E0
1.147730808E1,-2.733799815E-1,-6.702894568E-1,-9.841380119E0
1.148702042E1,-2.470589429E-1,-6.774678826E-1,-9.927821159E0
1.149673360E1,-1.776670814E-1,-6.798607111E-1,-1.001874828E1
1.150644751E1,-1.513460279E-1,-7.109674215E-1,-9.992427826E0
1.151616058E1,-1.103689447E-1,-7.301099896E-1,-9.951749802E0
1.152587293E1,-8.165507019E-2,-7.660023570E-1,-9.990034103E0
1.153558610E1,-3.619144112E-2,-7.636095285E-1,-9.970891953E0
1.154530001E1,-2.901297435E-2,-7.779664397E-1,-9.891630173E0
1.155501308E1,-5.533402413E-2,-7.707880139E-1,-9.855737686E0
1.156472542E1,-6.729813665E-2,-7.779664397E-1,-9.853344917E0
1.157443860E1,-5.772684515E-2,-7.707880139E-1,-9.874879837E0
1.158415256E1,-7.686942816E-2,-7.468597889E-1,-9.838987350E0
1.159386563E1,-1.609173268E-1,-7.109674215E-1,-9.834201813E0
1.160357798E1,-1.968096644E-1,-7.229315639E-1,-9.882058144E0
1.161329115E1,-2.255235314E-1,-7.396813035E-1,-9.898808479E0
1.162300506E1,-2.518445849E-1,-7.181459069E-1,-9.980463028E0
1.163271813E1,-2.446661144E-1,-7.157530785E-1,-9.946963310E0
1.164243048E1,-2.638086975E-1,-7.444669604E-1,-9.886843681E0
1.165214365E1,-2.542374134E-1,-7.444669604E-1,-9.920642853E0
1.166185756E1,-2.231307179E-1,-7.420741320E-1,-9.968499184E0
1.167157063E1,-1.920240223E-1,-7.444669604E-1,-9.901201248E0
1.168128303E1,-1.824527234E-1,-7.301099896E-1,-9.834201813E0
1.169099621E1,-1.824527234E-1,-7.061817646E-1,-9.882058144E0
1.170071011E1,-1.776670814E-1,-6.702894568E-1,-9.872487068E0
1.171042319E1,-2.015953064E-1,-6.340979934E-1,-9.824630737E0
1.172013553E1,-2.374876440E-1,-6.101697683E-1,-9.858130455E0
1.172984871E1,-2.255235314E-1,-6.149554253E-1,-9.930213928E0
1.173956261E1,-2.470589429E-1,-6.511468887E-1,-9.963713646E0
1.174927579E1,-2.087737769E-1,-7.301099896E-1,-9.970891953E0
1.175898808E1,-9.122636169E-2,-8.186444640E-1,-9.970891953E0
1.176870126E1,4.277170449E-2,-8.784649968E-1,-9.966106415E0
1.177841516E1,8.584251255E-2,-9.119645357E-1,-9.997213364E0
1.178812824E1,8.823533356E-2,-8.832506537E-1,-1.001156998E1
1.179784058E1,-2.991028305E-4,-8.234301209E-1,-9.963713646E0
1.180755376E1,-1.274178028E-1,-7.803592682E-1,-9.908379555E0
1.181726772E1,-2.135594189E-1,-7.037889361E-1,-9.942177773E0
1.182698079E1,-2.255235314E-1,-6.631109715E-1,-9.975677490E0
1.183669313E1,-1.872383654E-1,-6.388836503E-1,-9.855737686E0
1.184640631E1,-1.223330572E-1,-6.487540603E-1,-9.824630737E0
1.185612027E1,-9.840483218E-2,-6.463612318E-1,-9.877272606E0
1.186583334E1,-5.772684515E-2,-6.726822853E-1,-9.915857315E0
1.187554569E1,-5.294119939E-2,-7.157530785E-1,-9.925428391E0
1.188525886E1,-4.815555736E-2,-7.492526174E-1,-9.925428391E0
1.189497282E1,-8.883354068E-2,-7.660023570E-1,-9.925428391E0
1.190468589E1,-1.322034448E-1,-7.875377536E-1,-9.915857315E0
1.191439824E1,-1.680957973E-1,-8.162516356E-1,-9.874879837E0
1.192411142E1,-1.800599098E-1,-7.875377536E-1,-9.894022942E0
1.193382532E1,-1.704886109E-1,-7.612167001E-1,-9.978070259E0
1.194353850E1,-1.561316848E-1,-7.229315639E-1,-9.949356079E0
1.195325079E1,-1.680957973E-1,-6.942176819E-1,-9.884450912E0
1.196296397E1,-1.728814393E-1,-6.918248534E-1,-9.942177773E0
1.197267787E1,-1.609173268E-1,-6.822535396E-1,-9.997213364E0
1.198239095E1,-1.992024779E-1,-7.253243923E-1,-9.966106415E0
1.199210334E1,-2.255235314E-1,-7.612167001E-1,-9.903594017E0
1.200181652E1,-1.800599098E-1,-7.995018363E-1,-9.889236450E0
1.201153042E1,-1.250249892E-1,-8.186444640E-1,-9.930213928E0
1.202124360E1,-1.417747438E-1,-8.090731502E-1,-9.961320877E0
1.203095589E1,-1.103689447E-1,-7.995018363E-1,-9.901201248E0
1.204066907E1,-5.054837838E-2,-8.042874932E-1,-9.944570541E0
1.205038298E1,-1.944168471E-2,-8.090731502E-1,-1.003549862E1
1.206009615E1,9.272187948E-3,-7.779664397E-1,-9.999606133E0
1.206980845E1,-1.704886183E-2,-7.325028181E-1,-9.908379555E0
1.207952162E1,-9.601201117E-2,-7.157530785E-1,-9.827023506E0
1.208923553E1,-1.657029688E-1,-6.870391965E-1,-9.810274124E0
1.209894871E1,-2.111666054E-1,-6.415755749E-1,-9.810274124E0
1.210866100E1,-2.566302419E-1,-6.463612318E-1,-9.791131020E0
1.211837418E1,-1.800599098E-1,-6.511468887E-1,-9.872487068E0
1.212808813E1,-9.361918271E-2,-6.678966284E-1,-9.975677490E0
1.213780121E1,-7.208377868E-2,-6.750751138E-1,-1.003071213E1
1.214751355E1,-9.122636169E-2,-7.157530785E-1,-9.949356079E0
1.215722673E1,-1.079761237E-1,-7.540382147E-1,-9.889236450E0
1.216694069E1,-1.199402362E-1,-7.492526174E-1,-9.930213928E0
1.217665376E1,-9.122636169E-2,-7.660023570E-1,-9.910772324E0
1.218636610E1,-1.031904742E-1,-7.731808424E-1,-9.874879837E0
1.219607933E1,-1.274178028E-1,-7.420741320E-1,-9.879665375E0
1.220579324E1,-1.417747438E-1,-7.013961077E-1,-9.949356079E0
1.221550642E1,-1.465603858E-1,-6.798607111E-1,-1.003071213E1
1.222521871E1,-1.585244983E-1,-7.109674215E-1,-9.968499184E0
1.223493188E1,-1.537388563E-1,-7.253243923E-1,-9.894022942E0
1.224464584E1,-1.250249892E-1,-7.229315639E-1,-9.898808479E0
1.225435892E1,-1.633101404E-1,-7.109674215E-1,-9.937392235E0
1.226407131E1,-1.752742529E-1,-7.420741320E-1,-9.932606697E0
1.227378449E1,-1.609173268E-1,-7.803592682E-1,-9.905986786E0
1.228349839E1,-1.223330572E-1,-7.803592682E-1,-9.923035622E0
1.229321157E1,-1.079761237E-1,-7.731808424E-1,-9.958928108E0
1.230292386E1,-1.031904742E-1,-7.660023570E-1,-9.968499184E0
1.231263704E1,-7.447660714E-2,-7.660023570E-1,-9.951749802E0
1.232235100E1,-6.490531564E-2,-7.037889361E-1,-9.946963310E0
1.233206407E1,-9.122636169E-2,-6.269195080E-1,-9.937392235E0
1.234177647E1,-1.417747438E-1,-6.364908218E-1,-9.908379555E0
1.235148964E1,-1.561316848E-1,-6.655037999E-1,-9.908379555E0
1.236120360E1,-1.298106313E-1,-7.181459069E-1,-9.889236450E0
1.237091668E1,-1.031904742E-1,-7.755736113E-1,-9.831809044E0
1.238062902E1,-9.122636169E-2,-8.186444640E-1,-9.858130455E0
1.239034225E1,-7.208377868E-2,-8.162516356E-1,-9.898808479E0
1.240005615E1,-1.103689447E-1,-8.282157183E-1,-9.944570541E0
1.240976933E1,-1.103689447E-1,-8.306085467E-1,-9.982855797E0
1.241948162E1,-8.165507019E-2,-7.803592682E-1,-9.968499184E0
1.242919485E1,-6.969095767E-2,-7.396813035E-1,-9.934999466E0
1.243890876E1,-1.226321608E-2,-7.061817646E-1,-9.920642853E0
1.244862194E1,1.166501082E-2,-6.750751138E-1,-9.930213928E0
1.245833423E1,-1.704886183E-2,-6.583253145E-1,-9.934999466E0
1.246804740E1,-6.251249462E-2,-6.364908218E-1,-9.923035622E0
1.247776136E1,-1.752742529E-1,-6.149554253E-1,-9.932606697E0
1.248747454E1,-2.398804724E-1,-6.029912829E-1,-9.879665375E0
1.249718683E1,-2.853440940E-1,-6.221339107E-1,-9.819845200E0
1.250690001E1,-3.020938635E-1,-6.511468887E-1,-9.843772888E0
1.251661397E1,-2.949153781E-1,-6.990033388E-1,-9.980463028E0
1.252632714E1,-2.446661144E-1,-7.564310431E-1,-1.006899738E1
1.253603944E1,-1.848455518E-1,-8.234301209E-1,-9.966106415E0
1.254575261E1,-1.537388563E-1,-8.401798606E-1,-9.862915993E0
1.255546657E1,-5.533402413E-2,-8.018946648E-1,-9.884450912E0
1.256517975E1,-2.991028305E-4,-7.372884750E-1,-9.975677490E0
1.257489204E1,2.362912335E-2,-6.822535396E-1,-9.920642853E0
1.258460527E1,-1.944168471E-2,-6.678966284E-1,-9.886843681E0
1.259431918E1,-5.533402413E-2,-6.678966284E-1,-9.923035622E0
1.260403235E1,-1.175474152E-1,-6.846463680E-1,-9.990034103E0
1.261374464E1,-1.175474152E-1,-7.372884750E-1,-1.005464077E1
1.262345787E1,-1.079761237E-1,-8.018946648E-1,-1.008814049E1
1.263317178E1,-5.772684515E-2,-8.665009141E-1,-1.004506969E1
1.264288496E1,2.362912335E-2,-9.215358496E-1,-9.908379555E0
1.265259725E1,9.780662507E-2,-9.287142754E-1,-9.877272606E0
1.266231048E1,1.025922745E-1,-9.071788788E-1,-9.896415710E0
1.267202444E1,2.602194622E-2,-8.401798606E-1,-9.874879837E0
1.268173751E1,-4.336991161E-2,-7.396813035E-1,-9.858130455E0
1.269144990E1,-1.728814393E-1,-6.607181430E-1,-9.848558426E0
1.270116308E1,-2.973082066E-1,-6.101697683E-1,-9.843772888E0
1.271087704E1,-3.523431420E-1,-5.910272002E-1,-9.793523788E0
1.272059022E1,-4.049852192E-1,-5.718846321E-1,-9.896415710E0
1.273030251E1,-3.619144261E-1,-5.718846321E-1,-9.949356079E0
1.274001574E1,-3.355933726E-1,-5.982056856E-1,-9.910772324E0
1.274972970E1,-2.949153781E-1,-6.221339107E-1,-9.905986786E0
1.275944277E1,-2.614158690E-1,-6.463612318E-1,-9.874879837E0
1.276915516E1,-2.039881349E-1,-6.990033388E-1,-9.877272606E0
1.277886834E1,-1.609173268E-1,-7.444669604E-1,-9.860523224E0
1.278858230E1,-1.657029688E-1,-7.636095285E-1,-9.815059662E0
1.279829548E1,-2.231307179E-1,-7.683951855E-1,-9.848558426E0
1.280800777E1,-2.829512656E-1,-7.636095285E-1,-9.894022942E0
1.281772100E1,-3.212364316E-1,-7.612167001E-1,-9.944570541E0
1.282743496E1,-3.332005441E-1,-7.516453862E-1,-1.000439167E1
1.283714803E1,-3.164508045E-1,-7.348956466E-1,-1.003789139E1
1.284686043E1,-2.662015259E-1,-7.301099896E-1,-1.003549862E1
1.285657365E1,-1.992024779E-1,-7.229315639E-1,-1.007139015E1
1.286628756E1,-1.369891018E-1,-7.181459069E-1,-1.006421185E1
1.287600074E1,-4.336991161E-2,-7.229315639E-1,-9.999606133E0
1.288571308E1,6.669992954E-2,-7.396813035E-1,-9.934999466E0
1.289542626E1,1.360917836E-1,-7.947162390E-1,-9.884450912E0
1.290514022E1,1.384846121E-1,-8.330013752E-1,-9.815059662E0
1.291485339E1,8.584251255E-2,-8.569296002E-1,-9.767203331E0
1.292456569E1,6.879365072E-3,-8.330013752E-1,-9.771988869E0
1.293427892E1,-9.601201117E-2,-7.995018363E-1,-9.827023506E0
1.294399287E1,-2.231307179E-1,-7.277171612E-1,-9.910772324E0
1.295370605E1,-2.685943544E-1,-6.655037999E-1,-9.997213364E0
1.296341834E1,-2.135594189E-1,-6.173482537E-1,-1.003310490E1
1.297313157E1,-1.704886109E-1,-5.862415433E-1,-9.992427826E0
1.298284553E1,-1.896311939E-1,-6.053841114E-1,-9.850952148E0
1.299255860E1,-2.446661144E-1,-6.463612318E-1,-9.791131020E0
1.300227100E1,-2.709871531E-1,-7.013961077E-1,-9.870094299E0
1.301198423E1,-2.829512656E-1,-7.229315639E-1,-9.930213928E0
1.302169819E1,-3.020938635E-1,-7.683951855E-1,-9.939785004E0
1.303141126E1,-2.662015259E-1,-8.138588071E-1,-9.992427826E0
1.304112365E1,-2.183450609E-1,-8.401798606E-1,-1.001156998E1
1.305083688E1,-1.633101404E-1,-8.401798606E-1,-9.968499184E0
1.306055084E1,-9.361918271E-2,-7.995018363E-1,-9.994820595E0
1.307026392E1,-3.140579537E-2,-7.612167001E-1,-1.000678444E1
1.307997631E1,-3.379862010E-2,-7.229315639E-1,-9.934999466E0
1.308968954E1,-6.729813665E-2,-7.085745931E-1,-9.807881355E0
1.309940350E1,-1.031904742E-1,-6.870391965E-1,-9.817452431E0
1.310911657E1,-1.223330572E-1,-6.702894568E-1,-9.920642853E0
1.311882897E1,-1.274178028E-1,-6.870391965E-1,-9.951749802E0
1.312854220E1,-1.513460279E-1,-7.061817646E-1,-9.867701530E0
1.313825615E1,-1.489532143E-1,-7.468597889E-1,-9.838987350E0
1.314796933E1,-1.345962733E-1,-7.444669604E-1,-9.882058144E0
1.315768162E1,-1.223330572E-1,-7.277171612E-1,-9.903594017E0
1.316739485E1,-1.537388563E-1,-7.157530785E-1,-9.865308762E0
1.317710881E1,-1.298106313E-1,-7.133602500E-1,-9.874879837E0
1.318682199E1,-1.199402362E-1,-7.037889361E-1,-9.966106415E0
1.319653428E1,-1.561316848E-1,-7.181459069E-1,-1.001156998E1
1.320624751E1,-1.776670814E-1,-7.277171612E-1,-9.963713646E0
1.321596147E1,-1.369891018E-1,-7.301099896E-1,-9.946963310E0
1.322567464E1,-1.151545867E-1,-7.348956466E-1,-1.002114105E1
1.323538699E1,-1.127617657E-1,-7.588238716E-1,-9.975677490E0
1.324510016E1,-1.465603858E-1,-7.827520967E-1,-9.824630737E0
1.325481418E1,-1.800599098E-1,-7.803592682E-1,-9.764810562E0
1.326452725E1,-1.752742529E-1,-7.660023570E-1,-9.843772888E0
1.327423964E1,-1.537388563E-1,-7.348956466E-1,-9.963713646E0
1.328395287E1,-1.369891018E-1,-7.157530785E-1,-9.956535339E0
1.329366683E1,-9.840483218E-2,-7.157530785E-1,-9.927821159E0
1.330338001E1,-7.447660714E-2,-7.157530785E-1,-9.930213928E0
1.331309230E1,-9.601201117E-2,-7.325028181E-1,-9.944570541E0
1.332280553E1,-9.601201117E-2,-7.396813035E-1,-9.946963310E0
1.333251949E1,-7.926224917E-2,-7.468597889E-1,-9.915857315E0
1.334223267E1,-7.926224917E-2,-7.229315639E-1,-9.891630173E0
1.335194501E1,-9.361918271E-2,-6.798607111E-1,-9.925428391E0
1.336165824E1,-1.298106313E-1,-6.774678826E-1,-9.910772324E0
1.337137220E1,-1.417747438E-1,-6.822535396E-1,-9.824630737E0
1.338108537E1,-1.872383654E-1,-6.918248534E-1,-9.831809044E0
1.339079767E1,-1.944168359E-1,-6.966105103E-1,-9.905986786E0
1.340051089E1,-1.824527234E-1,-6.942176819E-1,-9.999606133E0
1.341022485E1,-1.561316848E-1,-7.301099896E-1,-1.003789139E1
1.341993803E1,-1.513460279E-1,-7.348956466E-1,-9.994820595E0
1.342965037E1,-1.441675574E-1,-7.372884750E-1,-9.942177773E0
1.343936360E1,-1.345962733E-1,-7.420741320E-1,-9.954142570E0
1.344907756E1,-1.199402362E-1,-7.301099896E-1,-9.905986786E0
1.345879074E1,-1.250249892E-1,-7.372884750E-1,-9.862915993E0
1.346850308E1,-1.274178028E-1,-7.564310431E-1,-9.879665375E0
1.347821631E1,-1.489532143E-1,-7.444669604E-1,-9.932606697E0
1.348793027E1,-1.609173268E-1,-7.133602500E-1,-9.920642853E0
1.349764345E1,-1.824527234E-1,-6.966105103E-1,-9.932606697E0
1.350735574E1,-2.207378894E-1,-6.822535396E-1,-9.934999466E0
1.351706897E1,-2.566302419E-1,-6.798607111E-1,-9.836594582E0
1.352678293E1,-2.255235314E-1,-6.631109715E-1,-9.858130455E0
1.353649610E1,-1.345962733E-1,-6.678966284E-1,-9.910772324E0
1.354620845E1,-8.644071966E-2,-7.037889361E-1,-9.918250084E0
1.355592168E1,-7.208377868E-2,-7.085745931E-1,-9.975677490E0
1.356563563E1,-6.490531564E-2,-7.564310431E-1,-9.982855797E0
1.357534881E1,-5.054837838E-2,-7.683951855E-1,-9.934999466E0
1.358506115E1,-5.054837838E-2,-7.516453862E-1,-9.894022942E0
1.359477438E1,-9.601201117E-2,-7.372884750E-1,-9.867701530E0
1.360448834E1,-9.601201117E-2,-7.109674215E-1,-9.848558426E0
1.361420152E1,-8.404789865E-2,-6.846463680E-1,-9.879665375E0
1.362391386E1,-1.393819153E-1,-6.511468887E-1,-1.001635551E1
1.363362709E1,-2.063809484E-1,-6.364908218E-1,-1.005224800E1
1.364334105E1,-2.255235314E-1,-6.511468887E-1,-1.003071213E1
1.365305423E1,-2.279163599E-1,-6.846463680E-1,-1.000678444E1
1.366276657E1,-2.015953064E-1,-7.444669604E-1,-9.973284721E0
1.367247980E1,-1.055833027E-1,-7.947162390E-1,-9.886843681E0
1.368219376E1,-7.208377868E-2,-8.066803217E-1,-9.848558426E0
1.369190694E1,-6.490531564E-2,-7.947162390E-1,-9.824630737E0
1.370161928E1,-8.883354068E-2,-7.731808424E-1,-9.865308762E0
1.371133251E1,-1.322034448E-1,-7.516453862E-1,-9.934999466E0
1.372104647E1,-1.417747438E-1,-7.325028181E-1,-9.985248566E0
1.373075964E1,-1.369891018E-1,-7.013961077E-1,-9.980463028E0
1.374047199E1,-1.489532143E-1,-6.774678826E-1,-9.958928108E0
1.375018522E1,-1.465603858E-1,-6.822535396E-1,-9.901201248E0
1.375989918E1,-1.633101404E-1,-6.942176819E-1,-9.886843681E0
1.376961240E1,-1.752742529E-1,-6.942176819E-1,-9.846165657E0
1.377932470E1,-2.063809484E-1,-6.966105103E-1,-9.841380119E0
1.378903798E1,-2.063809484E-1,-6.870391965E-1,-9.939785004E0
1.379875194E1,-1.680957973E-1,-6.798607111E-1,-9.980463028E0
1.380846511E1,-1.250249892E-1,-7.061817646E-1,-1.001396275E1
1.381817746E1,-1.274178028E-1,-7.061817646E-1,-9.961320877E0
1.382789069E1,-1.079761237E-1,-7.229315639E-1,-9.920642853E0
1.383760464E1,-7.926224917E-2,-7.396813035E-1,-9.905986786E0
1.384731782E1,-6.490531564E-2,-7.396813035E-1,-9.898808479E0
1.385703017E1,-6.011966988E-2,-7.396813035E-1,-9.898808479E0
1.386674339E1,-8.404789865E-2,-7.157530785E-1,-9.901201248E0
1.387645735E1,-1.199402362E-1,-6.846463680E-1,-9.905986786E0
1.388617053E1,-1.175474152E-1,-6.750751138E-1,-9.923035622E0
1.389588287E1,-1.657029688E-1,-6.511468887E-1,-9.884450912E0
1.390559615E1,-2.015953064E-1,-6.439684033E-1,-9.874879837E0
1.391531011E1,-1.800599098E-1,-6.726822853E-1,-9.896415710E0
1.392502329E1,-1.537388563E-1,-7.253243923E-1,-9.865308762E0
1.393473563E1,-1.369891018E-1,-7.181459069E-1,-9.874879837E0
1.394444886E1,-8.883354068E-2,-7.229315639E-1,-9.930213928E0
1.395416282E1,-6.490531564E-2,-7.157530785E-1,-9.992427826E0
1.396387600E1,-6.251249462E-2,-7.109674215E-1,-9.978070259E0
1.397358834E1,-9.840483218E-2,-7.037889361E-1,-9.918250084E0
1.398330162E1,-1.274178028E-1,-7.037889361E-1,-9.889236450E0
1.399301558E1,-1.199402362E-1,-6.942176819E-1,-9.925428391E0
1.400272876E1,-1.441675574E-1,-7.109674215E-1,-9.934999466E0
1.401244110E1,-1.776670814E-1,-7.109674215E-1,-9.930213928E0
1.402215433E1,-1.992024779E-1,-7.325028181E-1,-9.956535339E0
1.403186834E1,-1.657029688E-1,-7.420741320E-1,-9.937392235E0
1.404158152E1,-1.322034448E-1,-7.253243923E-1,-9.898808479E0
1.405129386E1,-1.322034448E-1,-7.396813035E-1,-9.903594017E0
1.406100709E1,-1.417747438E-1,-7.133602500E-1,-9.905986786E0
1.407072105E1,-1.872383654E-1,-6.894320250E-1,-9.884450912E0
1.408043423E1,-1.848455518E-1,-6.918248534E-1,-9.946963310E0
1.409014662E1,-1.704886109E-1,-6.798607111E-1,-9.956535339E0
1.409985985E1,-1.441675574E-1,-6.798607111E-1,-9.944570541E0
1.410957381E1,-1.417747438E-1,-7.061817646E-1,-9.905986786E0
1.411928699E1,-1.322034448E-1,-7.157530785E-1,-9.870094299E0
1.412899933E1,-1.175474152E-1,-7.253243923E-1,-9.896415710E0
1.413871261E1,-1.298106313E-1,-7.133602500E-1,-9.946963310E0
1.414842657E1,-1.537388563E-1,-7.085745931E-1,-9.963713646E0
1.415813975E1,-1.489532143E-1,-7.229315639E-1,-9.954142570E0
1.416785209E1,-1.250249892E-1,-7.037889361E-1,-9.927821159E0
1.417756532E1,-1.585244983E-1,-7.037889361E-1,-9.925428391E0
1.418727933E1,-1.585244983E-1,-6.942176819E-1,-9.913165092E0
1.419699251E1,-1.345962733E-1,-6.894320250E-1,-9.870094299E0
1.420670485E1,-1.127617657E-1,-6.942176819E-1,-9.834201813E0
1.421641808E1,-1.175474152E-1,-7.085745931E-1,-9.867701530E0
1.422613209E1,-1.322034448E-1,-7.133602500E-1,-9.886843681E0
1.423584527E1,-1.298106313E-1,-7.348956466E-1,-9.968499184E0
1.424555761E1,-1.752742529E-1,-7.325028181E-1,-9.973284721E0
1.425527084E1,-2.111666054E-1,-7.372884750E-1,-9.980463028E0
1.426498485E1,-2.303091735E-1,-7.133602500E-1,-9.980463028E0
1.427469803E1,-1.992024779E-1,-7.157530785E-1,-9.954142570E0
1.428441037E1,-1.369891018E-1,-6.990033388E-1,-9.923035622E0
1.429412360E1,-9.840483218E-2,-6.990033388E-1,-9.870094299E0
1.430383761E1,-8.644071966E-2,-6.966105103E-1,-9.853344917E0
1.431355079E1,-9.122636169E-2,-6.750751138E-1,-9.874879837E0
1.432326313E1,-1.322034448E-1,-6.439684033E-1,-9.923035622E0
1.433297636E1,-1.609173268E-1,-6.317051649E-1,-9.946963310E0
1.434269037E1,-1.633101404E-1,-6.317051649E-1,-9.908379555E0
1.435240355E1,-1.537388563E-1,-6.197410822E-1,-9.874879837E0
1.436211589E1,-1.776670814E-1,-6.487540603E-1,-9.891630173E0
1.437182912E1,-2.111666054E-1,-7.157530785E-1,-9.843772888E0
1.438154313E1,-1.968096644E-1,-7.683951855E-1,-9.879665375E0
1.439125631E1,-1.848455518E-1,-8.186444640E-1,-9.994820595E0
1.440096865E1,-1.752742529E-1,-8.545367718E-1,-1.006660461E1
1.441068194E1,-1.441675574E-1,-8.904291391E-1,-1.006181908E1
1.442039589E1,-1.127617657E-1,-8.784649968E-1,-1.007856941E1
1.443010907E1,-1.175474152E-1,-8.330013752E-1,-1.006181908E1
1.443982147E1,-1.127617657E-1,-7.731808424E-1,-1.002353382E1
1.444953470E1,-1.175474152E-1,-7.109674215E-1,-9.944570541E0
1.445924865E1,-1.441675574E-1,-6.364908218E-1,-9.850952148E0
1.446896188E1,-1.848455518E-1,-5.862415433E-1,-9.724132538E0
1.447867423E1,-2.255235314E-1,-5.790630579E-1,-9.614062309E0
1.448838746E1,-1.800599098E-1,-6.125625968E-1,-9.697811127E0
1.449810147E1,-8.165507019E-2,-6.269195080E-1,-9.905986786E0
1.450781464E1,5.712864175E-2,-6.702894568E-1,-9.961320877E0
1.451752699E1,1.504487246E-1,-7.325028181E-1,-9.858130455E0
1.452724022E1,1.887338907E-1,-7.516453862E-1,-9.783952713E0
1.453695423E1,2.222333997E-1,-6.990033388E-1,-9.774381638E0
1.454666740E1,1.456630826E-1,-6.173482537E-1,-9.831809044E0
1.455637975E1,2.093719784E-3,-5.958128572E-1,-9.886843681E0
1.456609303E1,-1.393819153E-1,-6.053841114E-1,-9.894022942E0
1.457580699E1,-2.829512656E-1,-6.173482537E-1,-9.901201248E0
1.458552022E1,-3.834498227E-1,-6.269195080E-1,-9.963713646E0
1.459523256E1,-4.959124923E-1,-6.077769399E-1,-9.992427826E0
1.460494579E1,-5.246263742E-1,-6.439684033E-1,-1.002831936E1
1.461465980E1,-4.432703853E-1,-7.013961077E-1,-9.997213364E0
1.462437298E1,-2.853440940E-1,-7.636095285E-1,-9.980463028E0
1.463408532E1,-1.322034448E-1,-8.306085467E-1,-9.942177773E0
1.464379860E1,-2.691925503E-3,-8.712865710E-1,-9.874879837E0
1.465351256E1,2.602194622E-2,-9.143573642E-1,-9.817452431E0
1.466322574E1,2.093719784E-3,-9.071788788E-1,-9.810274124E0
1.467293813E1,-7.447660714E-2,-8.617152572E-1,-9.882058144E0
1.468265136E1,-1.633101404E-1,-7.971090674E-1,-9.884450912E0
1.469236537E1,-2.733799815E-1,-7.181459069E-1,-9.978070259E0
1.470207855E1,-3.547359705E-1,-6.918248534E-1,-1.003789139E1
1.471179089E1,-3.188436031E-1,-7.133602500E-1,-1.003549862E1
1.472150418E1,-2.614158690E-1,-7.277171612E-1,-9.994820595E0
1.473121813E1,-2.207378894E-1,-7.660023570E-1,-9.862915993E0
1.474093131E1,-1.561316848E-1,-7.803592682E-1,-9.836594582E0
1.475064371E1,-1.489532143E-1,-7.947162390E-1,-9.894022942E0
1.476035694E1,-1.776670814E-1,-7.636095285E-1,-9.927821159E0
1.477007095E1,-1.441675574E-1,-7.396813035E-1,-9.961320877E0
1.477978412E1,-1.151545867E-1,-7.037889361E-1,-9.975677490E0
1.478949647E1,-9.601201117E-2,-6.726822853E-1,-9.932606697E0
1.479920975E1,-1.103689447E-1,-6.894320250E-1,-9.862915993E0
1.480892371E1,-1.752742529E-1,-6.894320250E-1,-9.850952148E0
1.481863694E1,-1.944168359E-1,-6.774678826E-1,-9.862915993E0
1.482834928E1,-2.303091735E-1,-6.870391965E-1,-9.858130455E0
1.483806251E1,-2.518445849E-1,-7.013961077E-1,-9.860523224E0
1.484777652E1,-2.350948304E-1,-7.277171612E-1,-9.910772324E0
1.485748970E1,-1.298106313E-1,-7.157530785E-1,-9.975677490E0
1.486720209E1,-6.251249462E-2,-7.325028181E-1,-9.946963310E0
1.487691532E1,-4.097708687E-2,-7.468597889E-1,-9.896415710E0
1.488662933E1,-7.686942816E-2,-7.325028181E-1,-9.927821159E0
1.489634251E1,-1.728814393E-1,-6.966105103E-1,-9.920642853E0
1.490605485E1,-2.590230405E-1,-6.822535396E-1,-9.925428391E0
1.491576813E1,-2.685943544E-1,-6.870391965E-1,-9.870094299E0
1.492548209E1,-2.542374134E-1,-6.990033388E-1,-9.838987350E0
1.493519532E1,-2.255235314E-1,-7.181459069E-1,-9.872487068E0
1.494490766E1,-1.848455518E-1,-7.061817646E-1,-9.905986786E0
1.495462089E1,-1.441675574E-1,-7.348956466E-1,-9.927821159E0
1.496433490E1,-1.680957973E-1,-7.396813035E-1,-9.918250084E0
1.497404813E1,-1.992024779E-1,-7.636095285E-1,-9.905986786E0
1.498376048E1,-1.704886109E-1,-7.707880139E-1,-9.850952148E0
1.499347371E1,-1.704886109E-1,-7.827520967E-1,-9.877272606E0
1.500318772E1,-1.417747438E-1,-7.827520967E-1,-9.968499184E0
1.501290089E1,-1.103689447E-1,-7.516453862E-1,-1.005703354E1
1.502261329E1,-1.175474152E-1,-7.253243923E-1,-1.004506969E1
1.503232652E1,-1.465603858E-1,-6.918248534E-1,-9.930213928E0
1.504204053E1,-2.255235314E-1,-6.535396576E-1,-9.877272606E0
1.505175371E1,-2.518445849E-1,-6.774678826E-1,-9.824630737E0
1.506146610E1,-2.446661144E-1,-7.109674215E-1,-9.736096382E0
