"Time (s)","Gyroscope x (rad/s)","Gyroscope y (rad/s)","Gyroscope z (rad/s)"
1.685606340E-1,-9.620844387E-3,-5.803049076E-3,1.221694518E-3
1.784680290E-1,-1.068982761E-3,-4.581354558E-3,-1.221694518E-3
1.883754770E-1,9.926267900E-3,-2.137965523E-3,-3.665083554E-3
1.982829250E-1,1.481304597E-2,-9.468132630E-3,-7.330167107E-3
2.081903210E-1,1.359135192E-2,-2.046338283E-2,-9.773556143E-3
2.180977170E-1,1.603474095E-2,-3.023693897E-2,-8.551862091E-3
2.280051130E-1,1.969982497E-2,-3.878879920E-2,-4.886778072E-3
2.379125090E-1,1.969982497E-2,-3.512371704E-2,-1.221694518E-3
2.478199040E-1,1.725643501E-2,-2.901524492E-2,2.443389036E-3
2.577273000E-1,1.847812906E-2,-3.023693897E-2,3.665083554E-3
2.676346960E-1,1.969982497E-2,-2.901524492E-2,1.221694518E-3
2.775420920E-1,2.092151903E-2,-2.046338283E-2,4.886778072E-3
2.874494880E-1,2.336490713E-2,-7.024743594E-3,7.330167107E-3
2.973568840E-1,1.725643501E-2,1.527118147E-3,1.343864016E-2
3.072642790E-1,3.817795310E-3,1.527118147E-3,1.710372418E-2
3.171716750E-1,-9.620844387E-3,-4.581354558E-3,1.710372418E-2
3.270790710E-1,-1.206423342E-2,-7.024743594E-3,1.343864016E-2
3.369864670E-1,-1.084253844E-2,5.192201585E-3,7.330167107E-3
3.468938630E-1,-5.955760833E-3,1.618745178E-2,1.221694518E-3
3.568012590E-1,5.039489828E-3,1.374406368E-2,-3.665083554E-3
3.667086540E-1,1.481304597E-2,1.252236869E-2,-6.108472589E-3
3.766160500E-1,1.359135192E-2,1.252236869E-2,-7.330167107E-3
3.865234460E-1,1.374406274E-3,1.374406368E-2,-4.886778072E-3
3.964308420E-1,-1.328592747E-2,6.413896102E-3,-1.221694518E-3
4.063382380E-1,-2.183778957E-2,8.857285604E-3,3.665083554E-3
4.162456340E-1,-2.305948362E-2,8.857285604E-3,4.886778072E-3
4.261530290E-1,-1.939439960E-2,1.252236869E-2,4.886778072E-3
4.360604250E-1,-8.399149403E-3,1.130067464E-2,2.443389036E-3
4.459678210E-1,-2.290677279E-3,3.054236295E-4,-2.443389036E-3
4.558752170E-1,1.374406274E-3,-5.803049076E-3,-7.330167107E-3
4.657826130E-1,1.527118147E-4,-5.803049076E-3,-8.551862091E-3
4.756900090E-1,2.596100792E-3,3.970507067E-3,-6.108472589E-3
4.855974040E-1,5.039489828E-3,7.635590620E-3,-1.221694518E-3
4.955048000E-1,3.817795310E-3,5.192201585E-3,0.000000000E0
5.054121960E-1,1.527118147E-4,5.192201585E-3,-1.221694518E-3
5.153195920E-1,1.374406274E-3,1.527118147E-3,-1.221694518E-3
5.252269880E-1,6.261184346E-3,-1.679829881E-2,-2.443389036E-3
5.351343840E-1,9.926267900E-3,-3.145863488E-2,-3.665083554E-3
5.450417790E-1,1.236965694E-2,-3.512371704E-2,-3.665083554E-3
5.549437070E-1,1.114796288E-2,-3.023693897E-2,-1.221694518E-3
5.646559460E-1,1.236965694E-2,-2.657185495E-2,2.443389036E-3
5.743691230E-1,1.114796288E-2,-1.435491070E-2,2.443389036E-3
5.840830290E-1,5.039489828E-3,6.413896102E-3,1.221694518E-3
5.937960500E-1,-4.734066315E-3,2.107422985E-2,1.221694518E-3
6.035083940E-1,-1.572931744E-2,1.740914769E-2,-2.443389036E-3
6.132215710E-1,-2.061609551E-2,8.857285604E-3,-3.665083554E-3
6.229354250E-1,-1.939439960E-2,5.192201585E-3,0.000000000E0
6.326484980E-1,-1.084253844E-2,3.970507067E-3,3.665083554E-3
6.423608420E-1,-2.290677279E-3,7.635590620E-3,2.443389036E-3
6.520739150E-1,3.817795310E-3,1.618745178E-2,-1.221694518E-3
6.617878730E-1,6.261184346E-3,1.985253580E-2,-6.108472589E-3
6.715009460E-1,6.261184346E-3,1.618745178E-2,-9.773556143E-3
6.812132380E-1,7.482878864E-3,8.857285604E-3,-8.551862091E-3
6.909264150E-1,5.039489828E-3,-4.581354558E-3,-2.443389036E-3
7.006403210E-1,1.374406274E-3,-1.313321572E-2,4.886778072E-3
7.103533940E-1,1.527118147E-4,-1.435491070E-2,8.551862091E-3
7.200656860E-1,1.527118147E-4,-1.068982668E-2,6.108472589E-3
7.297788630E-1,1.527118147E-4,-4.581354558E-3,0.000000000E0
7.394927690E-1,1.527118147E-4,-2.137965523E-3,-4.886778072E-3
7.492058420E-1,-1.068982761E-3,-2.137965523E-3,-9.773556143E-3
7.589181340E-1,-8.399149403E-3,6.413896102E-3,-8.551862091E-3
7.686313110E-1,-1.328592747E-2,1.496575773E-2,-7.330167107E-3
7.783452170E-1,-1.328592747E-2,1.985253580E-2,-4.886778072E-3
7.880582380E-1,-1.084253844E-2,2.718270384E-2,-2.443389036E-3
7.977705820E-1,-7.177455351E-3,2.718270384E-2,0.000000000E0
8.074837590E-1,-7.177455351E-3,1.007897966E-2,2.443389036E-3
8.171976130E-1,-1.084253844E-2,-2.137965523E-3,0.000000000E0
8.269106860E-1,-1.206423342E-2,6.413896102E-3,-1.221694518E-3
8.366230290E-1,-8.399149403E-3,1.740914769E-2,-3.665083554E-3
8.463362070E-1,-5.955760833E-3,1.863084175E-2,-7.330167107E-3
8.560500610E-1,-3.512371797E-3,8.857285604E-3,-1.099525020E-2
8.657631340E-1,1.374406274E-3,2.748812549E-3,-8.551862091E-3
8.754754770E-1,8.704573847E-3,-3.359660041E-3,-3.665083554E-3
8.851886540E-1,9.926267900E-3,-1.557660475E-2,1.221694518E-3
8.949025090E-1,8.704573847E-3,-1.801999472E-2,3.665083554E-3
9.046155820E-1,6.261184346E-3,-1.191152167E-2,6.108472589E-3
9.143279250E-1,6.261184346E-3,-7.024743594E-3,6.108472589E-3
9.240411020E-1,5.039489828E-3,-9.468132630E-3,6.108472589E-3
9.337549570E-1,3.817795310E-3,-9.468132630E-3,3.665083554E-3
9.434680290E-1,-2.290677279E-3,-7.024743594E-3,-2.443389036E-3
9.531803730E-1,-7.177455351E-3,-9.162708884E-4,-4.886778072E-3
9.628935500E-1,-7.177455351E-3,1.007897966E-2,-6.108472589E-3
9.726074570E-1,3.817795310E-3,2.473931387E-2,-2.443389036E-3
9.823204770E-1,1.481304597E-2,3.084778599E-2,0.000000000E0
9.920328210E-1,1.603474095E-2,2.962609194E-2,4.886778072E-3
1.001745998E0,9.926267900E-3,2.718270384E-2,8.551862091E-3
1.011459904E0,1.374406274E-3,1.985253580E-2,9.773556143E-3
1.021172977E0,-5.955760833E-3,1.496575773E-2,1.099525020E-2
1.030885269E0,-9.620844387E-3,1.618745178E-2,1.466033421E-2
1.040598446E0,-1.206423342E-2,1.496575773E-2,1.588202827E-2
1.050312352E0,-1.084253844E-2,8.857285604E-3,1.588202827E-2
1.060025425E0,-9.620844387E-3,1.527118147E-3,1.343864016E-2
1.069737717E0,-2.290677279E-3,-1.068982668E-2,6.108472589E-3
1.079450894E0,3.817795310E-3,-1.557660475E-2,-3.665083554E-3
1.089164800E0,3.817795310E-3,-1.313321572E-2,-8.551862091E-3
1.098877873E0,3.817795310E-3,-1.801999472E-2,-1.221694518E-2
1.108590217E0,7.482878864E-3,-2.535016090E-2,-1.221694518E-2
1.118303394E0,1.114796288E-2,-2.657185495E-2,-9.773556143E-3
1.128017300E0,7.482878864E-3,-2.290677279E-2,-7.330167107E-3
1.137730373E0,6.261184346E-3,-1.679829881E-2,-6.108472589E-3
1.147442665E0,8.704573847E-3,-4.581354558E-3,-6.108472589E-3
1.157155842E0,6.261184346E-3,2.748812549E-3,-4.886778072E-3
1.166869748E0,1.374406274E-3,2.748812549E-3,-1.221694518E-3
1.176582821E0,-3.512371797E-3,3.970507067E-3,0.000000000E0
1.186295165E0,-4.734066315E-3,1.007897966E-2,0.000000000E0
1.196008238E0,-3.512371797E-3,1.007897966E-2,-1.221694518E-3
1.205722196E0,-4.734066315E-3,1.007897966E-2,-3.665083554E-3
1.215435269E0,-2.290677279E-3,1.007897966E-2,-3.665083554E-3
1.225147613E0,-2.290677279E-3,6.413896102E-3,-1.221694518E-3
1.234860790E0,-7.177455351E-3,5.192201585E-3,0.000000000E0
1.244574696E0,-1.084253844E-2,6.413896102E-3,1.221694518E-3
1.254287769E0,-9.620844387E-3,1.007897966E-2,1.221694518E-3
1.264000113E0,-2.290677279E-3,1.374406368E-2,1.221694518E-3
1.273713186E0,8.704573847E-3,1.863084175E-2,-1.221694518E-3
1.283427144E0,1.114796288E-2,1.496575773E-2,-1.221694518E-3
1.293140217E0,6.261184346E-3,1.527118147E-3,-2.443389036E-3
1.302852561E0,-1.068982761E-3,-4.581354558E-3,-2.443389036E-3
1.312565738E0,-8.399149403E-3,-9.162708884E-4,1.221694518E-3
1.322279644E0,-7.177455351E-3,3.970507067E-3,3.665083554E-3
1.331992717E0,-5.955760833E-3,5.192201585E-3,6.108472589E-3
1.341705061E0,1.527118147E-4,-4.581354558E-3,7.330167107E-3
1.351418238E0,6.261184346E-3,-1.924168877E-2,8.551862091E-3
1.361132144E0,9.926267900E-3,-3.023693897E-2,2.443389036E-3
1.370845165E0,8.704573847E-3,-3.023693897E-2,-2.443389036E-3
1.380557509E0,1.374406274E-3,-1.801999472E-2,-7.330167107E-3
1.390270686E0,-2.290677279E-3,-3.359660041E-3,-1.099525020E-2
1.399984592E0,-4.734066315E-3,6.413896102E-3,-9.773556143E-3
1.409697665E0,-7.177455351E-3,-4.581354558E-3,-3.665083554E-3
1.419410009E0,-1.084253844E-2,-1.801999472E-2,3.665083554E-3
1.429123186E0,-1.328592747E-2,-2.046338283E-2,7.330167107E-3
1.438837092E0,-1.206423342E-2,-1.557660475E-2,9.773556143E-3
1.448550165E0,-1.206423342E-2,-1.068982668E-2,1.221694518E-2
1.458262509E0,-1.084253844E-2,-9.468132630E-3,1.099525020E-2
1.467975686E0,-1.084253844E-2,-7.024743594E-3,8.551862091E-3
1.477689592E0,-9.620844387E-3,-3.359660041E-3,6.108472589E-3
1.487402665E0,-5.955760833E-3,1.527118147E-3,3.665083554E-3
1.497114957E0,-1.068982761E-3,2.748812549E-3,1.221694518E-3
1.506828134E0,5.039489828E-3,3.970507067E-3,-1.221694518E-3
1.516542040E0,8.704573847E-3,1.496575773E-2,0.000000000E0
1.526255113E0,8.704573847E-3,2.351761982E-2,1.221694518E-3
1.535967457E0,7.482878864E-3,2.351761982E-2,-3.665083554E-3
1.545680634E0,6.261184346E-3,1.618745178E-2,-4.886778072E-3
1.555394540E0,2.596100792E-3,1.007897966E-2,-3.665083554E-3
1.565107613E0,-4.734066315E-3,1.130067464E-2,-2.443389036E-3
1.574819957E0,-1.328592747E-2,1.130067464E-2,-3.665083554E-3
1.584533134E0,-1.206423342E-2,3.970507067E-3,-4.886778072E-3
1.594247040E0,-1.084253844E-2,3.054236295E-4,-8.551862091E-3
1.603960113E0,-7.177455351E-3,7.635590620E-3,-8.551862091E-3
1.613672457E0,-1.068982761E-3,1.496575773E-2,-7.330167107E-3
1.623385634E0,2.596100792E-3,1.374406368E-2,-6.108472589E-3
1.633099540E0,3.817795310E-3,1.007897966E-2,-3.665083554E-3
1.642812613E0,2.596100792E-3,8.857285604E-3,0.000000000E0
1.652524957E0,1.527118147E-4,2.748812549E-3,4.886778072E-3
1.662238134E0,-3.512371797E-3,-2.137965523E-3,1.099525020E-2
1.671952040E0,-4.734066315E-3,-5.803049076E-3,1.588202827E-2
1.681665113E0,-7.177455351E-3,-9.468132630E-3,1.832541823E-2
1.691377457E0,-1.084253844E-2,-8.246437646E-3,1.588202827E-2
1.701090634E0,-1.328592747E-2,-9.162708884E-4,9.773556143E-3
1.710804540E0,-8.399149403E-3,1.007897966E-2,3.665083554E-3
1.720517613E0,-1.068982761E-3,1.252236869E-2,-4.886778072E-3
1.730229957E0,3.817795310E-3,6.413896102E-3,-9.773556143E-3
1.739943134E0,9.926267900E-3,3.054236295E-4,-1.099525020E-2
1.749657040E0,1.603474095E-2,-3.359660041E-3,-8.551862091E-3
1.759370113E0,1.603474095E-2,-4.581354558E-3,-4.886778072E-3
1.769082457E0,1.481304597E-2,-4.581354558E-3,1.221694518E-3
1.778795634E0,8.704573847E-3,-2.137965523E-3,6.108472589E-3
1.788509540E0,1.527118147E-4,3.054236295E-4,6.108472589E-3
1.798222613E0,-4.734066315E-3,-5.803049076E-3,8.551862091E-3
1.807934957E0,-1.068982761E-3,-1.191152167E-2,8.551862091E-3
1.817648134E0,3.817795310E-3,-9.468132630E-3,6.108472589E-3
1.827362040E0,7.482878864E-3,-5.803049076E-3,1.221694518E-3
1.837075113E0,5.039489828E-3,-5.803049076E-3,-4.886778072E-3
1.846787457E0,-3.512371797E-3,-5.803049076E-3,-6.108472589E-3
1.856500634E0,-9.620844387E-3,-5.803049076E-3,-7.330167107E-3
1.866214592E0,-1.206423342E-2,2.748812549E-3,-7.330167107E-3
1.875927665E0,-1.328592747E-2,1.985253580E-2,-7.330167107E-3
1.885639957E0,-1.695101149E-2,2.962609194E-2,-3.665083554E-3
1.895353134E0,-2.550287358E-2,3.695625812E-2,1.221694518E-3
1.905067092E0,-3.649812192E-2,4.062134400E-2,6.108472589E-3
1.914780165E0,-3.771981969E-2,3.695625812E-2,6.108472589E-3
1.924492509E0,-3.405473381E-2,3.329117596E-2,6.108472589E-3
1.934205686E0,-2.794626169E-2,3.329117596E-2,3.665083554E-3
1.943919592E0,-1.695101149E-2,2.718270384E-2,3.665083554E-3
1.953632665E0,-5.955760833E-3,1.130067464E-2,4.886778072E-3
1.963345009E0,2.596100792E-3,-9.162708884E-4,3.665083554E-3
1.973058186E0,1.603474095E-2,1.527118147E-3,4.886778072E-3
1.982772092E0,2.702999115E-2,3.970507067E-3,7.330167107E-3
1.992485165E0,2.825168520E-2,-2.137965523E-3,8.551862091E-3
2.002197509E0,2.580829710E-2,-1.435491070E-2,9.773556143E-3
2.011910686E0,1.969982497E-2,-3.145863488E-2,9.773556143E-3
2.021624592E0,1.481304597E-2,-5.100574717E-2,1.099525020E-2
2.031337769E0,1.114796288E-2,-6.933116168E-2,8.551862091E-3
2.041050061E0,8.704573847E-3,-6.688777357E-2,6.108472589E-3
2.050763238E0,6.261184346E-3,-5.222744122E-2,2.443389036E-3
2.060477144E0,6.261184346E-3,-3.390202299E-2,0.000000000E0
2.070190217E0,5.039489828E-3,-9.468132630E-3,-3.665083554E-3
2.079902561E0,1.527118147E-4,1.252236869E-2,-6.108472589E-3
2.089615738E0,-4.734066315E-3,2.473931387E-2,-8.551862091E-3
2.099329644E0,-9.620844387E-3,2.962609194E-2,-8.551862091E-3
2.109042717E0,-1.572931744E-2,2.962609194E-2,-7.330167107E-3
2.118755061E0,-1.939439960E-2,2.718270384E-2,-4.886778072E-3
2.128468238E0,-2.305948362E-2,2.840439789E-2,-4.886778072E-3
2.138182196E0,-2.061609551E-2,2.473931387E-2,-6.108472589E-3
2.147895269E0,-1.084253844E-2,2.107422985E-2,-6.108472589E-3
2.157607613E0,-2.290677279E-3,1.740914769E-2,-6.108472589E-3
2.167320790E0,2.596100792E-3,6.413896102E-3,-7.330167107E-3
2.177034696E0,3.817795310E-3,-9.162708884E-4,-7.330167107E-3
2.186747769E0,7.482878864E-3,-4.581354558E-3,-4.886778072E-3
2.196460113E0,1.359135192E-2,-8.246437646E-3,-3.665083554E-3
2.206173290E0,1.603474095E-2,-1.068982668E-2,0.000000000E0
2.215887196E0,1.481304597E-2,-1.313321572E-2,6.108472589E-3
2.225600373E0,7.482878864E-3,-1.679829881E-2,1.099525020E-2
2.235312665E0,1.374406274E-3,-2.168507688E-2,1.221694518E-2
2.245025842E0,-4.734066315E-3,-2.535016090E-2,1.099525020E-2
2.254739748E0,-5.955760833E-3,-2.412846684E-2,7.330167107E-3
2.264452821E0,-2.290677279E-3,-1.801999472E-2,6.108472589E-3
2.274165165E0,-1.068982761E-3,-2.137965523E-3,3.665083554E-3
2.283878342E0,-5.955760833E-3,1.130067464E-2,2.443389036E-3
2.293592248E0,-8.399149403E-3,2.107422985E-2,-2.443389036E-3
2.303305425E0,-8.399149403E-3,3.206948191E-2,-9.773556143E-3
2.313017665E0,-3.512371797E-3,4.306473210E-2,-1.343864016E-2
2.322730894E0,-2.290677279E-3,5.283828825E-2,-1.466033421E-2
2.332444800E0,-2.290677279E-3,5.650337040E-2,-1.343864016E-2
2.342157873E0,-2.290677279E-3,4.672981426E-2,-9.773556143E-3
2.351870217E0,1.374406274E-3,2.718270384E-2,-1.221694518E-3
2.361583394E0,1.374406274E-3,5.192201585E-3,1.099525020E-2
2.371297300E0,-7.177455351E-3,-2.046338283E-2,1.832541823E-2
2.381010477E0,-1.206423342E-2,-4.856235534E-2,1.832541823E-2
2.390722769E0,-1.084253844E-2,-6.810946763E-2,1.343864016E-2
2.400435946E0,-1.084253844E-2,-7.421794534E-2,8.551862091E-3
2.410149852E0,-8.399149403E-3,-6.566607952E-2,1.221694518E-3
2.419862925E0,-1.068982761E-3,-4.489727318E-2,-2.443389036E-3
2.429575269E0,9.926267900E-3,-2.290677279E-2,-3.665083554E-3
2.439288446E0,1.969982497E-2,-1.191152167E-2,-8.551862091E-3
2.449002404E0,1.725643501E-2,-4.581354558E-3,-9.773556143E-3
2.458715477E0,8.704573847E-3,5.192201585E-3,-8.551862091E-3
2.468427821E0,-1.068982761E-3,1.985253580E-2,-8.551862091E-3
2.478140998E0,-4.734066315E-3,3.329117596E-2,-8.551862091E-3
2.487854904E0,1.527118147E-4,4.184303805E-2,-4.886778072E-3
2.497567977E0,8.704573847E-3,4.672981426E-2,0.000000000E0
2.507280321E0,1.359135192E-2,4.428642616E-2,3.665083554E-3
2.516993498E0,9.926267900E-3,2.840439789E-2,4.886778072E-3
2.526707457E0,-2.290677279E-3,8.857285604E-3,4.886778072E-3
2.536420529E0,-1.328592747E-2,-2.137965523E-3,9.773556143E-3
2.546132873E0,-1.817270555E-2,-9.162708884E-4,1.343864016E-2
2.555846050E0,-1.206423342E-2,1.527118147E-3,1.221694518E-2
2.565559957E0,-2.290677279E-3,-9.162708884E-4,8.551862091E-3
2.575273029E0,5.039489828E-3,3.054236295E-4,3.665083554E-3
2.584985373E0,1.359135192E-2,-5.803049076E-3,-2.443389036E-3
2.594698550E0,1.969982497E-2,-2.657185495E-2,-7.330167107E-3
2.604412509E0,1.603474095E-2,-3.390202299E-2,-1.099525020E-2
2.614125582E0,1.359135192E-2,-2.290677279E-2,-8.551862091E-3
2.623837925E0,1.236965694E-2,-1.435491070E-2,-7.330167107E-3
2.633551102E0,6.261184346E-3,-7.024743594E-3,-3.665083554E-3
2.643265009E0,5.039489828E-3,2.748812549E-3,0.000000000E0
2.652978082E0,9.926267900E-3,1.527118147E-3,3.665083554E-3
2.662690425E0,1.359135192E-2,-8.246437646E-3,4.886778072E-3
2.672403654E0,1.114796288E-2,-1.679829881E-2,2.443389036E-3
2.682117561E0,7.482878864E-3,-2.290677279E-2,-1.221694518E-3
2.691830634E0,2.596100792E-3,-1.679829881E-2,-4.886778072E-3
2.701542977E0,-2.290677279E-3,-4.581354558E-3,-7.330167107E-3
2.711256154E0,-5.955760833E-3,-2.137965523E-3,-8.551862091E-3
2.720970061E0,-1.084253844E-2,-9.162708884E-4,-7.330167107E-3
2.730683238E0,-1.328592747E-2,5.192201585E-3,-3.665083554E-3
2.740395529E0,-1.206423342E-2,6.413896102E-3,0.000000000E0
2.750108707E0,-8.399149403E-3,6.413896102E-3,0.000000000E0
2.759822613E0,-3.512371797E-3,1.496575773E-2,-1.221694518E-3
2.769535686E0,1.527118147E-4,1.740914769E-2,-2.443389036E-3
2.779248029E0,1.527118147E-4,1.496575773E-2,-2.443389036E-3
2.788961207E0,1.374406274E-3,1.007897966E-2,1.221694518E-3
2.798675165E0,5.039489828E-3,6.413896102E-3,6.108472589E-3
2.808388238E0,8.704573847E-3,3.054236295E-4,7.330167107E-3
2.818100582E0,9.926267900E-3,-4.581354558E-3,6.108472589E-3
2.827813759E0,9.926267900E-3,-8.246437646E-3,2.443389036E-3
2.837527665E0,2.596100792E-3,-1.679829881E-2,-2.443389036E-3
2.847240738E0,-3.512371797E-3,-3.268032894E-2,-7.330167107E-3
2.856953082E0,-3.512371797E-3,-2.779355086E-2,-8.551862091E-3
2.866666259E0,-3.512371797E-3,-1.068982668E-2,-1.099525020E-2
2.876380217E0,-5.955760833E-3,-8.246437646E-3,-8.551862091E-3
2.886093290E0,-1.068982761E-3,-1.924168877E-2,-4.886778072E-3
2.895805634E0,5.039489828E-3,-1.679829881E-2,-2.443389036E-3
2.905518811E0,6.261184346E-3,-5.803049076E-3,2.443389036E-3
2.915232717E0,6.261184346E-3,-3.359660041E-3,4.886778072E-3
2.924945790E0,2.596100792E-3,-5.803049076E-3,8.551862091E-3
2.934658134E0,-2.290677279E-3,6.413896102E-3,8.551862091E-3
2.944371363E0,-4.734066315E-3,2.473931387E-2,6.108472589E-3
2.954085269E0,-2.290677279E-3,3.451287001E-2,4.886778072E-3
2.963798342E0,-1.068982761E-3,4.428642616E-2,1.221694518E-3
2.973510686E0,-3.512371797E-3,5.650337040E-2,0.000000000E0
2.983223863E0,-8.399149403E-3,5.528167635E-2,0.000000000E0
2.992937821E0,-1.695101149E-2,4.672981426E-2,2.443389036E-3
3.002650894E0,-2.183778957E-2,4.306473210E-2,6.108472589E-3
3.012363238E0,-2.183778957E-2,3.817795217E-2,1.221694518E-2
3.022076415E0,-1.939439960E-2,2.229592577E-2,1.710372418E-2
3.031790321E0,-1.695101149E-2,1.527118147E-3,2.076880634E-2
3.041503394E0,-1.695101149E-2,-1.557660475E-2,1.954711229E-2
3.051215738E0,-1.450762246E-2,-2.657185495E-2,1.221694518E-2
3.060928915E0,-9.620844387E-3,-2.412846684E-2,1.221694518E-3
3.070642873E0,-8.399149403E-3,-1.557660475E-2,-1.221694518E-2
3.080355946E0,-3.512371797E-3,-1.191152167E-2,-2.443389036E-2
3.090068290E0,9.926267900E-3,-1.435491070E-2,-2.932066843E-2
3.099781467E0,2.336490713E-2,-1.313321572E-2,-2.687728032E-2
3.109495373E0,2.336490713E-2,-1.679829881E-2,-1.832541823E-2
3.119208446E0,1.847812906E-2,-2.779355086E-2,-1.099525020E-2
3.128920790E0,1.359135192E-2,-3.390202299E-2,-4.886778072E-3
3.138633967E0,7.482878864E-3,-3.390202299E-2,0.000000000E0
3.148347925E0,2.596100792E-3,-2.657185495E-2,1.221694518E-3
3.158060998E0,3.817795310E-3,-5.803049076E-3,4.886778072E-3
3.167773342E0,1.359135192E-2,1.496575773E-2,8.551862091E-3
3.177486519E0,2.092151903E-2,2.107422985E-2,9.773556143E-3
3.187200425E0,2.092151903E-2,1.007897966E-2,9.773556143E-3
3.196913498E0,9.926267900E-3,-3.359660041E-3,1.099525020E-2
3.206625842E0,-7.177455351E-3,-8.246437646E-3,8.551862091E-3
3.216339019E0,-1.695101149E-2,-3.359660041E-3,2.443389036E-3
3.226052977E0,-1.817270555E-2,3.970507067E-3,-1.221694518E-3
3.235766050E0,-1.572931744E-2,1.252236869E-2,-3.665083554E-3
3.245478394E0,-1.450762246E-2,1.985253580E-2,-3.665083554E-3
3.255191571E0,-7.177455351E-3,2.718270384E-2,-2.443389036E-3
3.264905477E0,2.596100792E-3,3.084778599E-2,-4.886778072E-3
3.274618550E0,3.817795310E-3,3.695625812E-2,-8.551862091E-3
3.284330894E0,1.527118147E-4,4.550812021E-2,-1.221694518E-2
3.294044071E0,-2.290677279E-3,3.939964995E-2,-1.466033421E-2
3.303758029E0,-5.955760833E-3,2.229592577E-2,-1.466033421E-2
3.313471102E0,-8.399149403E-3,1.496575773E-2,-1.343864016E-2
3.323183446E0,-1.084253844E-2,1.252236869E-2,-1.099525020E-2
3.332896623E0,-7.177455351E-3,1.374406368E-2,-8.551862091E-3
3.342610529E0,-2.290677279E-3,8.857285604E-3,-6.108472589E-3
3.352323602E0,-1.068982761E-3,-1.191152167E-2,-4.886778072E-3
3.362035946E0,-4.734066315E-3,-3.390202299E-2,-3.665083554E-3
3.371749123E0,-7.177455351E-3,-4.489727318E-2,-3.665083554E-3
3.381463082E0,-3.512371797E-3,-3.878879920E-2,-2.443389036E-3
3.391176154E0,1.527118147E-4,-2.535016090E-2,-1.221694518E-3
3.400888498E0,1.527118147E-4,-2.290677279E-2,0.000000000E0
3.410601675E0,-2.290677279E-3,-2.168507688E-2,1.221694518E-3
3.420315582E0,-1.084253844E-2,-1.801999472E-2,0.000000000E0
3.430028654E0,-1.572931744E-2,-1.557660475E-2,0.000000000E0
3.439740998E0,-1.572931744E-2,-1.924168877E-2,-2.443389036E-3
3.449454175E0,-1.084253844E-2,-2.412846684E-2,-3.665083554E-3
3.459168134E0,-4.734066315E-3,-1.801999472E-2,-4.886778072E-3
3.468881207E0,-3.512371797E-3,-2.137965523E-3,-3.665083554E-3
3.478593550E0,-2.290677279E-3,3.970507067E-3,-3.665083554E-3
3.488306727E0,-1.068982761E-3,-3.359660041E-3,-4.886778072E-3
3.498020634E0,-2.290677279E-3,-7.024743594E-3,-6.108472589E-3
3.507733707E0,-1.068982761E-3,-7.024743594E-3,-7.330167107E-3
3.517446050E0,5.039489828E-3,-5.803049076E-3,-6.108472589E-3
3.527159227E0,7.482878864E-3,-2.137965523E-3,-3.665083554E-3
3.536873134E0,6.261184346E-3,1.527118147E-3,-2.443389036E-3
3.546586311E0,1.527118147E-4,1.527118147E-3,2.443389036E-3
3.556298602E0,-7.177455351E-3,-2.137965523E-3,4.886778072E-3
3.566011779E0,-1.206423342E-2,-9.162708884E-4,3.665083554E-3
3.575725686E0,-9.620844387E-3,1.130067464E-2,-2.443389036E-3
3.585438759E0,-3.512371797E-3,3.329117596E-2,-8.551862091E-3
3.595151102E0,3.817795310E-3,4.428642616E-2,-9.773556143E-3
3.604864279E0,5.039489828E-3,4.062134400E-2,-7.330167107E-3
3.614578186E0,1.527118147E-4,3.573456407E-2,-2.443389036E-3
3.624291363E0,1.527118147E-4,3.329117596E-2,2.443389036E-3
3.634003602E0,7.482878864E-3,2.107422985E-2,4.886778072E-3
3.643716832E0,1.236965694E-2,2.748812549E-3,6.108472589E-3
3.653430738E0,1.236965694E-2,-3.359660041E-3,7.330167107E-3
3.663143811E0,1.236965694E-2,-8.246437646E-3,6.108472589E-3
3.672856154E0,1.603474095E-2,-2.046338283E-2,1.221694518E-3
3.682569332E0,1.481304597E-2,-2.412846684E-2,-1.221694518E-3
3.692283238E0,1.236965694E-2,-1.557660475E-2,-2.443389036E-3
3.701996311E0,5.039489828E-3,-5.803049076E-3,-2.443389036E-3
3.711708654E0,1.374406274E-3,3.054236295E-4,-2.443389036E-3
3.721421832E0,-1.068982761E-3,3.970507067E-3,-1.221694518E-3
3.731135790E0,1.527118147E-4,3.970507067E-3,2.443389036E-3
3.740848863E0,1.374406274E-3,-2.137965523E-3,1.221694518E-3
3.750561207E0,3.817795310E-3,-4.581354558E-3,3.665083554E-3
3.760274384E0,7.482878864E-3,-3.359660041E-3,4.886778072E-3
3.769988290E0,9.926267900E-3,-3.359660041E-3,3.665083554E-3
3.779701363E0,7.482878864E-3,-5.803049076E-3,4.886778072E-3
3.789413707E0,1.374406274E-3,-3.359660041E-3,4.886778072E-3
3.799126884E0,1.527118147E-4,-4.581354558E-3,4.886778072E-3
3.808840790E0,1.527118147E-4,-1.557660475E-2,3.665083554E-3
3.818553863E0,1.527118147E-4,-2.290677279E-2,2.443389036E-3
3.828266207E0,-4.734066315E-3,-2.290677279E-2,0.000000000E0
3.837979384E0,-1.084253844E-2,-2.412846684E-2,-3.665083554E-3
3.847693342E0,-1.328592747E-2,-1.679829881E-2,-6.108472589E-3
3.857406415E0,-8.399149403E-3,-7.024743594E-3,-1.099525020E-2
3.867118759E0,-3.512371797E-3,-9.162708884E-4,-1.343864016E-2
3.876831936E0,3.817795310E-3,-4.581354558E-3,-1.099525020E-2
3.886545842E0,9.926267900E-3,-1.191152167E-2,-4.886778072E-3
3.896258915E0,1.236965694E-2,-1.557660475E-2,0.000000000E0
3.905971259E0,1.359135192E-2,-1.435491070E-2,1.221694518E-3
3.915684436E0,1.359135192E-2,-1.313321572E-2,1.221694518E-3
3.925398342E0,8.704573847E-3,-5.803049076E-3,-2.443389036E-3
3.935111519E0,1.374406274E-3,6.413896102E-3,-3.665083554E-3
3.944823759E0,-2.290677279E-3,1.985253580E-2,-4.886778072E-3
3.954536988E0,-2.290677279E-3,2.229592577E-2,-3.665083554E-3
3.964250894E0,-2.290677279E-3,1.496575773E-2,-1.221694518E-3
3.973963967E0,-3.512371797E-3,5.192201585E-3,1.221694518E-3
3.983676311E0,-4.734066315E-3,3.054236295E-4,0.000000000E0
3.993389488E0,-5.955760833E-3,2.748812549E-3,0.000000000E0
4.003103394E0,-8.399149403E-3,1.863084175E-2,-1.221694518E-3
4.012816467E0,-5.955760833E-3,3.084778599E-2,-3.665083554E-3
4.022528811E0,-4.734066315E-3,3.573456407E-2,0.000000000E0
4.032241988E0,-5.955760833E-3,3.206948191E-2,0.000000000E0
4.041955894E0,-5.955760833E-3,1.496575773E-2,1.221694518E-3
4.051669071E0,-5.955760833E-3,8.857285604E-3,1.221694518E-3
4.061381311E0,-5.955760833E-3,7.635590620E-3,1.221694518E-3
4.071094488E0,-8.399149403E-3,6.413896102E-3,0.000000000E0
4.080808446E0,-5.955760833E-3,7.635590620E-3,-4.886778072E-3
4.090521519E0,1.527118147E-4,1.496575773E-2,-9.773556143E-3
4.100233863E0,2.596100792E-3,1.863084175E-2,-9.773556143E-3
4.109947040E0,5.039489828E-3,7.635590620E-3,-7.330167107E-3
4.119660946E0,3.817795310E-3,2.748812549E-3,-2.443389036E-3
4.129374019E0,-2.290677279E-3,3.970507067E-3,2.443389036E-3
4.139086363E0,-5.955760833E-3,1.527118147E-3,1.221694518E-3
4.148799540E0,-9.620844387E-3,3.054236295E-4,-1.221694518E-3
4.158513446E0,-8.399149403E-3,7.635590620E-3,-1.221694518E-3
4.168226519E0,-7.177455351E-3,1.863084175E-2,0.000000000E0
4.177938863E0,-9.620844387E-3,1.618745178E-2,1.221694518E-3
4.187652040E0,-9.620844387E-3,1.374406368E-2,1.221694518E-3
4.197365998E0,-7.177455351E-3,1.618745178E-2,2.443389036E-3
4.207079071E0,2.596100792E-3,1.496575773E-2,1.221694518E-3
4.216791415E0,7.482878864E-3,2.748812549E-3,1.221694518E-3
4.226504592E0,7.482878864E-3,-1.313321572E-2,1.221694518E-3
4.236218498E0,3.817795310E-3,-2.290677279E-2,3.665083554E-3
4.245931571E0,3.817795310E-3,-2.412846684E-2,1.221694518E-3
4.255643915E0,3.817795310E-3,-1.801999472E-2,-1.221694518E-3
4.265357092E0,3.817795310E-3,-9.468132630E-3,-3.665083554E-3
4.275070998E0,2.596100792E-3,-8.246437646E-3,-3.665083554E-3
4.284784071E0,3.817795310E-3,-2.046338283E-2,-3.665083554E-3
4.294496415E0,3.817795310E-3,-3.512371704E-2,-1.221694518E-3
4.304209592E0,1.374406274E-3,-3.634541109E-2,2.443389036E-3
4.313923550E0,-1.068982761E-3,-2.412846684E-2,4.886778072E-3
4.323636623E0,1.527118147E-4,-7.024743594E-3,7.330167107E-3
4.333348967E0,1.374406274E-3,1.130067464E-2,4.886778072E-3
4.343062144E0,-1.068982761E-3,1.252236869E-2,0.000000000E0
4.352776050E0,-2.290677279E-3,1.527118147E-3,-1.221694518E-3
4.362489123E0,-4.734066315E-3,-2.137965523E-3,-2.443389036E-3
4.372201467E0,-7.177455351E-3,-4.581354558E-3,0.000000000E0
4.381914644E0,-5.955760833E-3,-4.581354558E-3,-1.221694518E-3
4.391628550E0,-1.068982761E-3,-7.024743594E-3,-3.665083554E-3
4.401341623E0,8.704573847E-3,-8.246437646E-3,-7.330167107E-3
4.411053967E0,1.481304597E-2,-3.359660041E-3,-1.343864016E-2
4.420767144E0,2.092151903E-2,-9.468132630E-3,-2.076880634E-2
4.430481050E0,2.825168520E-2,-2.290677279E-2,-2.443389036E-2
4.440194123E0,3.069507517E-2,-3.023693897E-2,-2.076880634E-2
4.449906467E0,3.191677108E-2,-4.367557913E-2,-1.343864016E-2
4.459619644E0,2.580829710E-2,-5.711421743E-2,-3.665083554E-3
4.469333602E0,1.847812906E-2,-6.444438547E-2,6.108472589E-3
4.479046675E0,1.236965694E-2,-7.299624383E-2,1.221694518E-2
4.488759019E0,5.039489828E-3,-8.399149776E-2,1.221694518E-2
4.498472196E0,-2.290677279E-3,-7.666133344E-2,9.773556143E-3
4.508186102E0,-7.177455351E-3,-4.489727318E-2,7.330167107E-3
4.517899175E0,-9.620844387E-3,-1.191152167E-2,2.443389036E-3
4.527611519E0,-7.177455351E-3,8.857285604E-3,1.221694518E-3
4.537324696E0,-7.177455351E-3,2.229592577E-2,-1.221694518E-3
4.547038602E0,-8.399149403E-3,3.206948191E-2,-1.221694518E-3
4.556751675E0,-5.955760833E-3,4.428642616E-2,-1.221694518E-3
4.566464019E0,-5.955760833E-3,5.528167635E-2,-1.221694518E-3
4.576177196E0,-5.955760833E-3,5.039490014E-2,-3.665083554E-3
4.585891102E0,-5.955760833E-3,4.795150831E-2,-3.665083554E-3
4.595604175E0,-8.399149403E-3,5.283828825E-2,-2.443389036E-3
4.605316519E0,-5.955760833E-3,4.917320609E-2,-2.443389036E-3
4.615029696E0,-4.734066315E-3,3.451287001E-2,-1.221694518E-3
4.624743654E0,-8.399149403E-3,1.863084175E-2,-2.443389036E-3
4.634456727E0,-1.328592747E-2,1.007897966E-2,-3.665083554E-3
4.644169071E0,-1.939439960E-2,1.007897966E-2,-6.108472589E-3
4.653882248E0,-2.305948362E-2,1.863084175E-2,-8.551862091E-3
4.663596154E0,-2.061609551E-2,3.084778599E-2,-8.551862091E-3
4.673309227E0,-1.817270555E-2,2.840439789E-2,-6.108472589E-3
4.683021571E0,-1.084253844E-2,1.496575773E-2,-3.665083554E-3
4.692734748E0,-4.734066315E-3,5.192201585E-3,-1.221694518E-3
4.702448654E0,1.374406274E-3,-4.581354558E-3,1.221694518E-3
4.712161727E0,6.261184346E-3,-1.068982668E-2,4.886778072E-3
4.721874071E0,7.482878864E-3,-1.435491070E-2,6.108472589E-3
4.731587248E0,3.817795310E-3,-7.024743594E-3,4.886778072E-3
4.741301154E0,1.527118147E-4,3.970507067E-3,2.443389036E-3
4.751014332E0,3.817795310E-3,1.007897966E-2,0.000000000E0
4.760726571E0,2.596100792E-3,2.229592577E-2,-3.665083554E-3
4.770439748E0,-1.068982761E-3,3.084778599E-2,-6.108472589E-3
4.780153707E0,-3.512371797E-3,2.229592577E-2,-4.886778072E-3
4.789866779E0,-1.068982761E-3,1.374406368E-2,-3.665083554E-3
4.799579123E0,-2.290677279E-3,1.496575773E-2,0.000000000E0
4.809292300E0,-8.399149403E-3,1.252236869E-2,1.221694518E-3
4.819006207E0,-8.399149403E-3,3.970507067E-3,1.221694518E-3
4.828719279E0,-7.177455351E-3,-9.162708884E-4,1.221694518E-3
4.838431623E0,-2.290677279E-3,2.748812549E-3,-1.221694518E-3
4.848144800E0,2.596100792E-3,7.635590620E-3,-3.665083554E-3
4.857858707E0,1.236965694E-2,7.635590620E-3,-4.886778072E-3
4.867571779E0,1.603474095E-2,2.748812549E-3,-6.108472589E-3
4.877284123E0,7.482878864E-3,2.748812549E-3,-3.665083554E-3
4.886997300E0,-2.290677279E-3,3.054236295E-4,-1.221694518E-3
4.896711207E0,-1.084253844E-2,-3.359660041E-3,2.443389036E-3
4.906424279E0,-1.695101149E-2,-8.246437646E-3,8.551862091E-3
4.916136623E0,-2.061609551E-2,-8.246437646E-3,9.773556143E-3
4.925849800E0,-1.939439960E-2,-4.581354558E-3,8.551862091E-3
4.935563707E0,-8.399149403E-3,-4.581354558E-3,6.108472589E-3
4.945276884E0,2.596100792E-3,-4.581354558E-3,0.000000000E0
4.954989123E0,9.926267900E-3,-9.162708884E-4,-4.886778072E-3
4.964702300E0,1.969982497E-2,3.054236295E-4,-4.886778072E-3
4.974416259E0,2.458660305E-2,3.970507067E-3,-3.665083554E-3
4.984129332E0,2.092151903E-2,6.413896102E-3,-1.221694518E-3
4.993841675E0,1.603474095E-2,3.054236295E-4,1.221694518E-3
5.003554852E0,7.482878864E-3,3.054236295E-4,3.665083554E-3
5.013268759E0,1.374406274E-3,2.748812549E-3,3.665083554E-3
5.022981832E0,-4.734066315E-3,3.054236295E-4,1.221694518E-3
5.032694175E0,-8.399149403E-3,-5.803049076E-3,-1.221694518E-3
5.042407352E0,-7.177455351E-3,-4.581354558E-3,0.000000000E0
5.052121259E0,-1.068982761E-3,2.748812549E-3,2.443389036E-3
5.061834332E0,5.039489828E-3,7.635590620E-3,1.221694518E-3
5.071546675E0,8.704573847E-3,1.252236869E-2,-1.221694518E-3
5.081259852E0,7.482878864E-3,1.863084175E-2,0.000000000E0
5.090973759E0,-1.068982761E-3,1.740914769E-2,1.221694518E-3
5.100686832E0,-9.620844387E-3,2.748812549E-3,3.665083554E-3
5.110399175E0,-1.206423342E-2,-1.801999472E-2,3.665083554E-3
5.120112352E0,-1.206423342E-2,-1.801999472E-2,2.443389036E-3
5.129826259E0,-9.620844387E-3,-9.162708884E-4,-1.221694518E-3
5.139539332E0,-4.734066315E-3,1.252236869E-2,-3.665083554E-3
5.149251675E0,-1.068982761E-3,1.496575773E-2,-6.108472589E-3
5.158964852E0,1.527118147E-4,1.496575773E-2,-9.773556143E-3
5.168678759E0,-3.512371797E-3,1.007897966E-2,-6.108472589E-3
5.178391832E0,-9.620844387E-3,-1.557660475E-2,0.000000000E0
5.188104175E0,-1.206423342E-2,-4.001049697E-2,4.886778072E-3
5.197817352E0,-8.399149403E-3,-4.856235534E-2,1.099525020E-2
5.207531259E0,3.817795310E-3,-5.222744122E-2,1.099525020E-2
5.217244436E0,1.236965694E-2,-4.245388508E-2,9.773556143E-3
5.226956675E0,1.481304597E-2,-3.268032894E-2,6.108472589E-3
5.236669852E0,1.847812906E-2,-3.023693897E-2,-1.221694518E-3
5.246383811E0,2.580829710E-2,-2.535016090E-2,-7.330167107E-3
5.256096884E0,2.702999115E-2,-1.191152167E-2,-1.099525020E-2
5.265809227E0,1.969982497E-2,-2.137965523E-3,-1.221694518E-2
5.275522404E0,1.359135192E-2,1.527118147E-3,-7.330167107E-3
5.285236311E0,9.926267900E-3,-9.162708884E-4,0.000000000E0
5.294949384E0,6.261184346E-3,-7.024743594E-3,7.330167107E-3
5.304661727E0,5.039489828E-3,-2.168507688E-2,1.221694518E-2
5.314374904E0,1.374406274E-3,-2.535016090E-2,1.221694518E-2
5.324088811E0,-7.177455351E-3,-1.435491070E-2,9.773556143E-3
5.333801884E0,-1.084253844E-2,-7.024743594E-3,4.886778072E-3
5.343514227E0,-1.206423342E-2,3.054236295E-4,-1.221694518E-3
5.353227404E0,-1.206423342E-2,1.252236869E-2,-7.330167107E-3
5.362941311E0,-7.177455351E-3,2.229592577E-2,-1.221694518E-2
5.372654384E0,-1.068982761E-3,2.962609194E-2,-1.221694518E-2
5.382366727E0,1.374406274E-3,3.084778599E-2,-4.886778072E-3
5.392079904E0,5.039489828E-3,2.107422985E-2,1.221694518E-3
5.401793811E0,3.817795310E-3,6.413896102E-3,4.886778072E-3
5.411506884E0,-2.290677279E-3,1.527118147E-3,7.330167107E-3
5.421219227E0,-4.734066315E-3,-1.191152167E-2,9.773556143E-3
5.430932404E0,-1.084253844E-2,-2.901524492E-2,7.330167107E-3
5.440646311E0,-1.450762246E-2,-3.756710514E-2,3.665083554E-3
5.450359384E0,-9.620844387E-3,-4.489727318E-2,-1.221694518E-3
5.460071727E0,-4.734066315E-3,-3.756710514E-2,-4.886778072E-3
5.469784904E0,-1.068982761E-3,-1.313321572E-2,-6.108472589E-3
5.479498811E0,5.039489828E-3,1.252236869E-2,-9.773556143E-3
5.489211884E0,1.236965694E-2,2.351761982E-2,-8.551862091E-3
5.498924227E0,1.725643501E-2,2.962609194E-2,-2.443389036E-3
5.508637404E0,1.114796288E-2,3.206948191E-2,1.221694518E-3
5.518351311E0,1.527118147E-4,2.229592577E-2,4.886778072E-3
5.528064384E0,-3.512371797E-3,7.635590620E-3,8.551862091E-3
5.537776727E0,-7.177455351E-3,-5.803049076E-3,6.108472589E-3
5.547489904E0,-5.955760833E-3,-1.313321572E-2,-1.221694518E-3
5.557203811E0,-1.068982761E-3,-1.679829881E-2,-4.886778072E-3
5.566916884E0,3.817795310E-3,-1.679829881E-2,-7.330167107E-3
5.576629227E0,3.817795310E-3,-1.801999472E-2,-7.330167107E-3
5.586342404E0,5.039489828E-3,-1.801999472E-2,-4.886778072E-3
5.596056311E0,7.482878864E-3,-1.435491070E-2,0.000000000E0
5.605769384E0,8.704573847E-3,-5.803049076E-3,6.108472589E-3
5.615481727E0,7.482878864E-3,6.413896102E-3,6.108472589E-3
5.625194904E0,3.817795310E-3,1.618745178E-2,3.665083554E-3
5.634908811E0,-2.290677279E-3,2.107422985E-2,1.221694518E-3
5.644621884E0,-4.734066315E-3,1.374406368E-2,-1.221694518E-3
5.654334227E0,-3.512371797E-3,1.527118147E-3,-2.443389036E-3
5.664047404E0,-2.290677279E-3,-3.359660041E-3,-1.221694518E-3
5.673761311E0,-1.068982761E-3,1.527118147E-3,1.221694518E-3
5.683474384E0,1.374406274E-3,1.007897966E-2,2.443389036E-3
5.693186727E0,2.596100792E-3,1.618745178E-2,3.665083554E-3
5.702899904E0,3.817795310E-3,2.107422985E-2,1.221694518E-3
5.712613811E0,3.817795310E-3,1.740914769E-2,2.443389036E-3
5.722326884E0,5.039489828E-3,1.863084175E-2,2.443389036E-3
5.732039227E0,3.817795310E-3,2.351761982E-2,4.886778072E-3
5.741752404E0,6.261184346E-3,2.840439789E-2,3.665083554E-3
5.751466311E0,3.817795310E-3,3.206948191E-2,1.221694518E-3
5.761179384E0,-3.512371797E-3,2.962609194E-2,-2.443389036E-3
5.770891727E0,-7.177455351E-3,2.107422985E-2,-1.221694518E-3
5.780604904E0,-3.512371797E-3,1.374406368E-2,3.665083554E-3
5.790318811E0,2.596100792E-3,3.970507067E-3,8.551862091E-3
5.800031988E0,5.039489828E-3,3.970507067E-3,1.221694518E-2
5.809744227E0,8.704573847E-3,2.748812549E-3,1.588202827E-2
5.819457404E0,1.114796288E-2,-5.803049076E-3,1.954711229E-2
5.829171363E0,6.261184346E-3,-1.435491070E-2,1.954711229E-2
5.838884436E0,-3.512371797E-3,-2.046338283E-2,1.832541823E-2
5.848596727E0,-4.734066315E-3,-2.657185495E-2,1.343864016E-2
5.858309904E0,-1.068982761E-3,-2.657185495E-2,4.886778072E-3
5.868023811E0,3.817795310E-3,-1.924168877E-2,-6.108472589E-3
5.877736988E0,7.482878864E-3,-2.137965523E-3,-1.221694518E-2
5.887449227E0,7.482878864E-3,5.192201585E-3,-1.710372418E-2
5.897162404E0,6.261184346E-3,6.413896102E-3,-1.588202827E-2
5.906876363E0,3.817795310E-3,3.970507067E-3,-1.343864016E-2
5.916589436E0,2.596100792E-3,3.970507067E-3,-8.551862091E-3
5.926301727E0,3.817795310E-3,6.413896102E-3,-4.886778072E-3
5.936014904E0,-1.068982761E-3,6.413896102E-3,1.221694518E-3
5.945728811E0,-9.620844387E-3,5.192201585E-3,6.108472589E-3
5.955441988E0,-1.450762246E-2,3.054236295E-4,7.330167107E-3
5.965154227E0,-1.450762246E-2,2.748812549E-3,4.886778072E-3
5.974867404E0,-9.620844387E-3,1.374406368E-2,1.221694518E-3
5.984581363E0,-1.068982761E-3,1.496575773E-2,-4.886778072E-3
5.994294436E0,5.039489828E-3,1.130067464E-2,-9.773556143E-3
6.004006727E0,3.817795310E-3,1.252236869E-2,-9.773556143E-3
6.013719904E0,-1.068982761E-3,8.857285604E-3,-7.330167107E-3
6.023433863E0,-4.734066315E-3,-9.162708884E-4,-3.665083554E-3
6.033146936E0,-9.620844387E-3,-3.359660041E-3,-1.221694518E-3
6.042859227E0,-1.572931744E-2,3.970507067E-3,0.000000000E0
6.052572404E0,-1.450762246E-2,1.252236869E-2,-1.221694518E-3
6.062286311E0,-8.399149403E-3,2.596100792E-2,-3.665083554E-3
6.071999488E0,-1.068982761E-3,4.550812021E-2,-6.108472589E-3
6.081711727E0,5.039489828E-3,5.650337040E-2,-4.886778072E-3
6.091424904E0,7.482878864E-3,5.528167635E-2,-3.665083554E-3
6.101138863E0,6.261184346E-3,4.550812021E-2,-2.443389036E-3
6.110851936E0,1.374406274E-3,2.962609194E-2,0.000000000E0
6.120564227E0,-2.290677279E-3,1.740914769E-2,2.443389036E-3
6.130277404E0,1.374406274E-3,1.527118147E-3,3.665083554E-3
6.139991363E0,5.039489828E-3,-1.191152167E-2,2.443389036E-3
6.149704436E0,8.704573847E-3,-1.068982668E-2,2.443389036E-3
6.159416727E0,6.261184346E-3,-9.468132630E-3,2.443389036E-3
6.169129904E0,2.596100792E-3,-1.313321572E-2,2.443389036E-3
6.178843863E0,2.596100792E-3,-1.557660475E-2,3.665083554E-3
6.188556884E0,1.527118147E-4,-1.557660475E-2,3.665083554E-3
6.198269227E0,-1.068982761E-3,-5.803049076E-3,2.443389036E-3
6.207982404E0,3.817795310E-3,1.130067464E-2,-1.221694518E-3
6.217696363E0,7.482878864E-3,3.573456407E-2,-3.665083554E-3
6.227409436E0,3.817795310E-3,5.772506446E-2,-4.886778072E-3
6.237121727E0,-2.290677279E-3,5.894676223E-2,-4.886778072E-3
6.246834904E0,-8.399149403E-3,4.795150831E-2,-4.886778072E-3
6.256548863E0,-7.177455351E-3,3.695625812E-2,0.000000000E0
6.266261936E0,-4.734066315E-3,2.473931387E-2,4.886778072E-3
6.275974227E0,-5.955760833E-3,1.007897966E-2,4.886778072E-3
6.285687404E0,-9.620844387E-3,5.192201585E-3,2.443389036E-3
6.295401363E0,-8.399149403E-3,5.192201585E-3,0.000000000E0
6.305114436E0,-2.290677279E-3,5.192201585E-3,-1.221694518E-3
6.314826779E0,3.817795310E-3,5.192201585E-3,-3.665083554E-3
6.324539852E0,6.261184346E-3,1.527118147E-3,-8.551862091E-3
6.334253863E0,8.704573847E-3,-1.068982668E-2,-1.343864016E-2
6.343966936E0,7.482878864E-3,-2.535016090E-2,-1.221694518E-2
6.353679227E0,3.817795310E-3,-3.268032894E-2,-7.330167107E-3
6.363392404E0,2.596100792E-3,-3.390202299E-2,-7.330167107E-3
6.373106363E0,5.039489828E-3,-2.901524492E-2,-4.886778072E-3
6.382819436E0,7.482878864E-3,-1.801999472E-2,-2.443389036E-3
6.392531779E0,5.039489828E-3,-5.803049076E-3,1.221694518E-3
6.402244957E0,1.527118147E-4,-9.162708884E-4,4.886778072E-3
6.411958863E0,-2.290677279E-3,2.748812549E-3,4.886778072E-3
6.421671936E0,-4.734066315E-3,5.192201585E-3,7.330167107E-3
6.431384279E0,-5.955760833E-3,1.007897966E-2,9.773556143E-3
6.441097457E0,-5.955760833E-3,1.252236869E-2,1.099525020E-2
6.450811363E0,-5.955760833E-3,6.413896102E-3,9.773556143E-3
6.460524436E0,-7.177455351E-3,6.413896102E-3,8.551862091E-3
6.470236779E0,-3.512371797E-3,1.740914769E-2,6.108472589E-3
6.479949957E0,1.527118147E-4,2.351761982E-2,3.665083554E-3
6.489663863E0,-2.290677279E-3,2.229592577E-2,0.000000000E0
6.499376936E0,-5.955760833E-3,2.107422985E-2,-1.221694518E-3
6.509089279E0,-1.084253844E-2,2.596100792E-2,-1.221694518E-3
6.518802457E0,-1.206423342E-2,2.840439789E-2,-2.443389036E-3
6.528516363E0,-1.450762246E-2,2.229592577E-2,-1.221694518E-3
6.538229436E0,-1.572931744E-2,1.130067464E-2,-1.221694518E-3
6.547941779E0,-1.206423342E-2,2.748812549E-3,-1.221694518E-3
6.557654957E0,1.374406274E-3,1.527118147E-3,2.443389036E-3
6.567368863E0,1.603474095E-2,2.748812549E-3,8.551862091E-3
6.577081936E0,2.214321308E-2,-2.137965523E-3,1.099525020E-2
6.586794279E0,2.336490713E-2,-1.801999472E-2,1.221694518E-2
6.596507457E0,2.214321308E-2,-4.245388508E-2,1.221694518E-2
6.606221363E0,1.481304597E-2,-5.711421743E-2,8.551862091E-3
6.615934436E0,5.039489828E-3,-5.711421743E-2,4.886778072E-3
6.625646779E0,-2.290677279E-3,-5.222744122E-2,1.221694518E-3
6.635359957E0,-2.290677279E-3,-4.611896724E-2,-4.886778072E-3
6.645073863E0,-3.512371797E-3,-3.634541109E-2,-6.108472589E-3
6.654786936E0,-1.068982761E-3,-1.801999472E-2,-8.551862091E-3
6.664499279E0,1.374406274E-3,-9.162708884E-4,-7.330167107E-3
6.674212457E0,1.527118147E-4,6.413896102E-3,-6.108472589E-3
6.683926363E0,-1.068982761E-3,1.130067464E-2,-4.886778072E-3
6.693639436E0,-2.290677279E-3,1.740914769E-2,-1.221694518E-3
6.703351779E0,-3.512371797E-3,1.863084175E-2,2.443389036E-3
6.713064957E0,-7.177455351E-3,1.496575773E-2,2.443389036E-3
6.722778863E0,-9.620844387E-3,1.130067464E-2,1.221694518E-3
6.732492040E0,-9.620844387E-3,1.618745178E-2,1.221694518E-3
6.742204279E0,-9.620844387E-3,2.473931387E-2,2.443389036E-3
6.751917457E0,-1.450762246E-2,2.596100792E-2,3.665083554E-3
6.761631415E0,-1.817270555E-2,2.229592577E-2,6.108472589E-3
6.771344488E0,-1.817270555E-2,1.740914769E-2,8.551862091E-3
6.781056832E0,-9.620844387E-3,7.635590620E-3,8.551862091E-3
6.790770009E0,-3.512371797E-3,1.527118147E-3,8.551862091E-3
6.800483915E0,1.527118147E-4,3.054236295E-4,3.665083554E-3
6.810196988E0,3.817795310E-3,1.527118147E-3,2.443389036E-3
6.819909332E0,5.039489828E-3,-5.803049076E-3,-1.221694518E-3
6.829622509E0,7.482878864E-3,-1.924168877E-2,-4.886778072E-3
6.839336415E0,1.114796288E-2,-2.046338283E-2,-4.886778072E-3
6.849049488E0,1.481304597E-2,-1.435491070E-2,0.000000000E0
6.858761832E0,1.603474095E-2,-1.679829881E-2,3.665083554E-3
6.868475009E0,1.603474095E-2,-1.924168877E-2,4.886778072E-3
6.878188915E0,1.481304597E-2,-1.924168877E-2,6.108472589E-3
6.887901988E0,1.236965694E-2,-1.801999472E-2,6.108472589E-3
6.897614332E0,1.236965694E-2,-1.924168877E-2,3.665083554E-3
6.907327509E0,8.704573847E-3,-1.313321572E-2,4.886778072E-3
6.917041415E0,2.596100792E-3,-3.359660041E-3,7.330167107E-3
6.926754488E0,1.527118147E-4,3.970507067E-3,7.330167107E-3
6.936466832E0,-2.290677279E-3,6.413896102E-3,6.108472589E-3
6.946180009E0,-5.955760833E-3,8.857285604E-3,3.665083554E-3
6.955893915E0,-1.084253844E-2,1.007897966E-2,1.221694518E-3
6.965606988E0,-1.450762246E-2,1.007897966E-2,-2.443389036E-3
6.975319332E0,-1.450762246E-2,1.496575773E-2,-4.886778072E-3
6.985032509E0,-1.206423342E-2,1.863084175E-2,-4.886778072E-3
6.994746467E0,-7.177455351E-3,1.252236869E-2,-2.443389036E-3
7.004459540E0,-2.290677279E-3,7.635590620E-3,0.000000000E0
7.014171884E0,5.039489828E-3,2.748812549E-3,4.886778072E-3
7.023885061E0,8.704573847E-3,-7.024743594E-3,6.108472589E-3
7.033598967E0,8.704573847E-3,-1.801999472E-2,4.886778072E-3
7.043312040E0,9.926267900E-3,-2.779355086E-2,4.886778072E-3
7.053024384E0,1.481304597E-2,-3.268032894E-2,3.665083554E-3
7.062737561E0,1.969982497E-2,-4.123219103E-2,2.443389036E-3
7.072451467E0,2.092151903E-2,-4.856235534E-2,2.443389036E-3
7.082164540E0,1.481304597E-2,-4.978405312E-2,2.443389036E-3
7.091876884E0,9.926267900E-3,-4.367557913E-2,4.886778072E-3
7.101590061E0,5.039489828E-3,-3.145863488E-2,4.886778072E-3
7.111303967E0,1.527118147E-4,-2.779355086E-2,7.330167107E-3
7.121017040E0,-1.068982761E-3,-3.023693897E-2,8.551862091E-3
7.130729384E0,-2.290677279E-3,-3.023693897E-2,8.551862091E-3
7.140442561E0,1.527118147E-4,-2.168507688E-2,3.665083554E-3
7.150156519E0,1.527118147E-4,-2.137965523E-3,-1.221694518E-3
7.159869592E0,-1.068982761E-3,1.496575773E-2,-6.108472589E-3
7.169581936E0,-3.512371797E-3,2.718270384E-2,-9.773556143E-3
7.179295113E0,-2.290677279E-3,3.817795217E-2,-9.773556143E-3
7.189009019E0,-4.734066315E-3,3.329117596E-2,-9.773556143E-3
7.198722092E0,-1.084253844E-2,1.496575773E-2,-8.551862091E-3
7.208434436E0,-1.939439960E-2,6.413896102E-3,-1.099525020E-2
7.218147613E0,-2.550287358E-2,7.635590620E-3,-1.221694518E-2
7.227861519E0,-2.794626169E-2,1.252236869E-2,-1.588202827E-2
7.237574592E0,-2.428117767E-2,2.107422985E-2,-1.588202827E-2
7.247286936E0,-9.620844387E-3,1.740914769E-2,-9.773556143E-3
7.257000113E0,1.527118147E-4,5.192201585E-3,-1.221694518E-3
7.266714019E0,1.527118147E-4,-7.024743594E-3,4.886778072E-3
7.276427092E0,3.817795310E-3,-2.137965523E-3,1.099525020E-2
7.286139436E0,1.114796288E-2,-4.581354558E-3,1.343864016E-2
7.295852613E0,1.603474095E-2,-2.168507688E-2,1.343864016E-2
7.305566519E0,2.092151903E-2,-4.489727318E-2,1.343864016E-2
7.315279696E0,2.825168520E-2,-5.833591148E-2,1.343864016E-2
7.324991988E0,2.825168520E-2,-6.077930331E-2,1.221694518E-2
7.334705165E0,1.847812906E-2,-4.734066129E-2,1.099525020E-2
7.344419071E0,6.261184346E-3,-2.290677279E-2,1.221694518E-2
7.354132144E0,-2.290677279E-3,-9.162708884E-4,1.221694518E-2
7.363844488E0,-9.620844387E-3,8.857285604E-3,9.773556143E-3
7.373557665E0,-1.450762246E-2,3.970507067E-3,3.665083554E-3
7.383271571E0,-1.939439960E-2,3.054236295E-4,-1.221694518E-3
7.392984644E0,-2.183778957E-2,3.970507067E-3,-4.886778072E-3
7.402696988E0,-2.061609551E-2,2.748812549E-3,-9.773556143E-3
7.412410165E0,-1.817270555E-2,3.970507067E-3,-1.466033421E-2
7.422124071E0,-1.206423342E-2,1.740914769E-2,-1.466033421E-2
7.431837144E0,-7.177455351E-3,3.206948191E-2,-1.099525020E-2
7.441549488E0,1.374406274E-3,3.206948191E-2,-8.551862091E-3
7.451262665E0,5.039489828E-3,2.718270384E-2,-7.330167107E-3
7.460976623E0,3.817795310E-3,2.229592577E-2,-6.108472589E-3
7.470689696E0,3.817795310E-3,1.007897966E-2,-4.886778072E-3
7.480402040E0,3.817795310E-3,-1.435491070E-2,-1.221694518E-3
7.490115217E0,1.374406274E-3,-3.756710514E-2,1.221694518E-3
7.499829123E0,-3.512371797E-3,-4.734066129E-2,4.886778072E-3
7.509542196E0,-7.177455351E-3,-4.245388508E-2,8.551862091E-3
7.519254540E0,-3.512371797E-3,-3.268032894E-2,7.330167107E-3
7.528967717E0,2.596100792E-3,-2.535016090E-2,4.886778072E-3
7.538681623E0,6.261184346E-3,-4.581354558E-3,4.886778072E-3
7.548394696E0,8.704573847E-3,1.252236869E-2,2.443389036E-3
7.558107040E0,8.704573847E-3,1.496575773E-2,2.443389036E-3
7.567820217E0,5.039489828E-3,1.007897966E-2,6.108472589E-3
7.577534123E0,1.374406274E-3,8.857285604E-3,7.330167107E-3
7.587247196E0,-1.068982761E-3,1.130067464E-2,7.330167107E-3
7.596959540E0,-1.068982761E-3,6.413896102E-3,7.330167107E-3
7.606672717E0,1.527118147E-4,-4.581354558E-3,3.665083554E-3
7.616386675E0,3.817795310E-3,-1.557660475E-2,1.221694518E-3
7.626099748E0,7.482878864E-3,-2.535016090E-2,1.221694518E-3
7.635812092E0,5.039489828E-3,-2.779355086E-2,1.221694518E-3
7.645525269E0,-2.290677279E-3,-2.535016090E-2,0.000000000E0
7.655239175E0,-9.620844387E-3,-2.535016090E-2,0.000000000E0
7.664952248E0,-9.620844387E-3,-2.290677279E-2,0.000000000E0
7.674664592E0,-5.955760833E-3,-1.557660475E-2,0.000000000E0
7.684377769E0,1.527118147E-4,-7.024743594E-3,0.000000000E0
7.694091675E0,5.039489828E-3,1.527118147E-3,2.443389036E-3
7.703804748E0,9.926267900E-3,1.496575773E-2,2.443389036E-3
7.713517092E0,1.114796288E-2,2.718270384E-2,3.665083554E-3
7.723230269E0,7.482878864E-3,3.206948191E-2,2.443389036E-3
7.732944175E0,-2.290677279E-3,2.962609194E-2,4.886778072E-3
7.742657248E0,-1.084253844E-2,2.840439789E-2,6.108472589E-3
7.752369592E0,-1.450762246E-2,2.107422985E-2,7.330167107E-3
7.762082769E0,-1.206423342E-2,1.618745178E-2,9.773556143E-3
7.771796727E0,-7.177455351E-3,1.374406368E-2,6.108472589E-3
7.781509800E0,-4.734066315E-3,8.857285604E-3,3.665083554E-3
7.791222144E0,-1.068982761E-3,3.970507067E-3,3.665083554E-3
7.800935321E0,2.596100792E-3,-4.581354558E-3,3.665083554E-3
7.810649227E0,3.817795310E-3,-7.024743594E-3,3.665083554E-3
7.820362300E0,2.596100792E-3,-8.246437646E-3,3.665083554E-3
7.830074644E0,1.527118147E-4,-5.803049076E-3,2.443389036E-3
7.839787821E0,-2.290677279E-3,2.748812549E-3,2.443389036E-3
7.849501727E0,-3.512371797E-3,1.007897966E-2,2.443389036E-3
7.859214800E0,-3.512371797E-3,1.496575773E-2,0.000000000E0
7.868927144E0,-4.734066315E-3,1.374406368E-2,-3.665083554E-3
7.878640321E0,-2.290677279E-3,5.192201585E-3,-4.886778072E-3
7.888354227E0,8.704573847E-3,-4.581354558E-3,-3.665083554E-3
7.898067300E0,1.359135192E-2,-9.468132630E-3,-3.665083554E-3
7.907779644E0,1.359135192E-2,-8.246437646E-3,-4.886778072E-3
7.917492821E0,1.114796288E-2,-2.137965523E-3,-4.886778072E-3
7.927206779E0,1.114796288E-2,8.857285604E-3,-6.108472589E-3
7.936919852E0,8.704573847E-3,2.107422985E-2,-7.330167107E-3
7.946632196E0,3.817795310E-3,2.840439789E-2,-6.108472589E-3
7.956345373E0,1.527118147E-4,2.351761982E-2,-1.221694518E-3
7.966059279E0,-1.068982761E-3,8.857285604E-3,4.886778072E-3
7.975772352E0,2.596100792E-3,-9.162708884E-4,1.099525020E-2
7.985484696E0,5.039489828E-3,-4.581354558E-3,1.099525020E-2
7.995197873E0,5.039489828E-3,-1.191152167E-2,9.773556143E-3
8.004911779E0,7.482878864E-3,-1.924168877E-2,6.108472589E-3
8.014624852E0,6.261184346E-3,-2.412846684E-2,1.221694518E-3
8.024337196E0,6.261184346E-3,-2.535016090E-2,-2.443389036E-3
8.034050373E0,8.704573847E-3,-2.290677279E-2,-3.665083554E-3
8.043764279E0,9.926267900E-3,-1.801999472E-2,-6.108472589E-3
8.053477352E0,7.482878864E-3,-1.557660475E-2,-7.330167107E-3
8.063189696E0,5.039489828E-3,-1.313321572E-2,-9.773556143E-3
8.072902873E0,2.596100792E-3,-5.803049076E-3,-1.221694518E-2
8.082616832E0,-2.290677279E-3,5.192201585E-3,-9.773556143E-3
8.092329904E0,-1.068982761E-3,1.130067464E-2,-4.886778072E-3
8.102042248E0,3.817795310E-3,8.857285604E-3,0.000000000E0
8.111755425E0,7.482878864E-3,-9.162708884E-4,3.665083554E-3
8.121469332E0,7.482878864E-3,-1.068982668E-2,6.108472589E-3
8.131182404E0,3.817795310E-3,-2.046338283E-2,6.108472589E-3
8.140894748E0,-2.290677279E-3,-1.801999472E-2,3.665083554E-3
8.150607925E0,-3.512371797E-3,-2.137965523E-3,2.443389036E-3
8.160321832E0,-3.512371797E-3,1.252236869E-2,0.000000000E0
8.170034904E0,-5.955760833E-3,1.374406368E-2,-3.665083554E-3
8.179747248E0,-4.734066315E-3,1.007897966E-2,-7.330167107E-3
8.189460425E0,1.527118147E-4,7.635590620E-3,-1.099525020E-2
8.199174332E0,2.596100792E-3,8.857285604E-3,-7.330167107E-3
8.208887404E0,3.817795310E-3,1.007897966E-2,-3.665083554E-3
8.218599748E0,3.817795310E-3,3.054236295E-4,0.000000000E0
8.228312925E0,5.039489828E-3,-1.068982668E-2,2.443389036E-3
8.238026884E0,6.261184346E-3,-1.191152167E-2,4.886778072E-3
8.247739957E0,7.482878864E-3,-9.162708884E-4,6.108472589E-3
8.257452300E0,8.704573847E-3,-9.162708884E-4,2.443389036E-3
8.267165477E0,9.926267900E-3,2.748812549E-3,1.221694518E-3
8.276879384E0,7.482878864E-3,1.130067464E-2,-2.443389036E-3
8.286592457E0,2.596100792E-3,1.985253580E-2,-2.443389036E-3
8.296304800E0,-2.290677279E-3,1.863084175E-2,-4.886778072E-3
8.306017977E0,-8.399149403E-3,1.496575773E-2,-6.108472589E-3
8.315731884E0,-1.328592747E-2,1.252236869E-2,-6.108472589E-3
8.325444957E0,-1.328592747E-2,7.635590620E-3,-4.886778072E-3
8.335157300E0,-7.177455351E-3,3.970507067E-3,-1.221694518E-3
8.344870477E0,1.374406274E-3,3.054236295E-4,0.000000000E0
8.354584384E0,5.039489828E-3,-9.162708884E-4,1.221694518E-3
8.364297457E0,3.817795310E-3,3.970507067E-3,1.221694518E-3
8.374009800E0,7.482878864E-3,3.054236295E-4,0.000000000E0
8.383722977E0,1.114796288E-2,-9.468132630E-3,0.000000000E0
8.393436936E0,3.817795310E-3,-1.557660475E-2,-1.221694518E-3
8.403150009E0,-9.620844387E-3,-1.801999472E-2,-2.443389036E-3
8.412862352E0,-1.450762246E-2,-1.557660475E-2,-2.443389036E-3
8.422575529E0,-1.328592747E-2,-1.435491070E-2,-2.443389036E-3
8.432289436E0,-1.572931744E-2,-9.468132630E-3,-2.443389036E-3
8.442002509E0,-1.939439960E-2,-9.162708884E-4,-1.221694518E-3
8.451714852E0,-2.428117767E-2,2.748812549E-3,1.221694518E-3
8.461428029E0,-2.428117767E-2,-7.024743594E-3,1.221694518E-3
8.471141936E0,-1.572931744E-2,-1.557660475E-2,-1.221694518E-3
8.480855009E0,-1.068982761E-3,-9.468132630E-3,-3.665083554E-3
8.490567352E0,9.926267900E-3,3.054236295E-4,-1.221694518E-3
8.500280529E0,1.359135192E-2,-3.359660041E-3,-1.221694518E-3
8.509994436E0,2.596100792E-3,-9.468132630E-3,-6.108472589E-3
8.519707509E0,-1.450762246E-2,-2.137965523E-3,-8.551862091E-3
8.529419852E0,-2.550287358E-2,3.970507067E-3,-1.099525020E-2
8.539133029E0,-2.550287358E-2,1.527118147E-3,-1.466033421E-2
8.548846936E0,-1.328592747E-2,-9.162708884E-4,-1.954711229E-2
8.558560113E0,2.596100792E-3,8.857285604E-3,-2.076880634E-2
8.568272352E0,1.481304597E-2,1.740914769E-2,-1.832541823E-2
8.577985529E0,1.847812906E-2,1.496575773E-2,-1.588202827E-2
8.587699488E0,2.092151903E-2,1.130067464E-2,-1.099525020E-2
8.597412561E0,2.702999115E-2,7.635590620E-3,-2.443389036E-3
8.607124904E0,2.825168520E-2,7.635590620E-3,2.443389036E-3
8.616838082E0,1.969982497E-2,1.130067464E-2,6.108472589E-3
8.626551988E0,5.039489828E-3,1.007897966E-2,7.330167107E-3
8.636265061E0,-5.955760833E-3,1.496575773E-2,6.108472589E-3
8.645977404E0,-7.177455351E-3,2.962609194E-2,3.665083554E-3
8.655690582E0,-8.399149403E-3,4.550812021E-2,0.000000000E0
8.665404488E0,-1.084253844E-2,4.917320609E-2,-4.886778072E-3
8.675117561E0,-1.084253844E-2,4.428642616E-2,-8.551862091E-3
8.684829904E0,-9.620844387E-3,4.428642616E-2,-7.330167107E-3
8.694543082E0,-2.290677279E-3,3.695625812E-2,-6.108472589E-3
8.704256988E0,6.261184346E-3,2.718270384E-2,-8.551862091E-3
8.713970061E0,1.359135192E-2,2.351761982E-2,-8.551862091E-3
8.723682404E0,1.847812906E-2,2.229592577E-2,-8.551862091E-3
8.733395582E0,1.603474095E-2,2.229592577E-2,-7.330167107E-3
8.743109540E0,1.236965694E-2,1.863084175E-2,-1.221694518E-3
8.752822613E0,7.482878864E-3,7.635590620E-3,4.886778072E-3
8.762534957E0,3.817795310E-3,-9.162708884E-4,7.330167107E-3
8.772248134E0,1.374406274E-3,-5.803049076E-3,7.330167107E-3
8.781962040E0,-2.290677279E-3,-1.068982668E-2,3.665083554E-3
8.791675113E0,-1.084253844E-2,-1.557660475E-2,1.221694518E-3
8.801387457E0,-1.695101149E-2,-2.412846684E-2,-1.221694518E-3
8.811100634E0,-1.939439960E-2,-3.268032894E-2,1.221694518E-3
8.820814540E0,-1.328592747E-2,-3.512371704E-2,4.886778072E-3
8.830527613E0,-2.290677279E-3,-3.512371704E-2,7.330167107E-3
8.840239957E0,5.039489828E-3,-3.145863488E-2,9.773556143E-3
8.849953134E0,9.926267900E-3,-2.168507688E-2,7.330167107E-3
8.859667040E0,1.603474095E-2,-1.435491070E-2,3.665083554E-3
8.869380113E0,2.092151903E-2,-1.191152167E-2,2.443389036E-3
8.879092457E0,2.092151903E-2,-1.313321572E-2,1.221694518E-3
8.888805634E0,1.481304597E-2,-1.679829881E-2,3.665083554E-3
8.898519540E0,6.261184346E-3,-1.801999472E-2,4.886778072E-3
8.908232613E0,1.527118147E-4,-1.924168877E-2,4.886778072E-3
8.917944957E0,-1.068982761E-3,-1.924168877E-2,4.886778072E-3
8.927658134E0,1.374406274E-3,-2.168507688E-2,1.221694518E-3
8.937372092E0,1.527118147E-4,-2.168507688E-2,0.000000000E0
8.947085165E0,-1.068982761E-3,-1.313321572E-2,1.221694518E-3
8.956797457E0,1.527118147E-4,-3.359660041E-3,3.665083554E-3
8.966510634E0,1.374406274E-3,5.192201585E-3,4.886778072E-3
8.976224592E0,1.374406274E-3,1.374406368E-2,2.443389036E-3
8.985937665E0,3.817795310E-3,1.863084175E-2,-2.443389036E-3
8.995650009E0,1.374406274E-3,2.229592577E-2,-7.330167107E-3
9.005363186E0,-1.068982761E-3,2.229592577E-2,-1.099525020E-2
9.015077092E0,-3.512371797E-3,1.252236869E-2,-1.466033421E-2
9.024790165E0,-4.734066315E-3,2.748812549E-3,-1.466033421E-2
9.034502509E0,-4.734066315E-3,1.527118147E-3,-1.099525020E-2
9.044215686E0,-4.734066315E-3,3.054236295E-4,-8.551862091E-3
9.053929592E0,-3.512371797E-3,-9.162708884E-4,-6.108472589E-3
9.063642665E0,-3.512371797E-3,-2.137965523E-3,-3.665083554E-3
9.073355009E0,1.374406274E-3,-2.137965523E-3,0.000000000E0
9.083068186E0,2.596100792E-3,-4.581354558E-3,-2.443389036E-3
9.092782092E0,-2.290677279E-3,-1.068982668E-2,-4.886778072E-3
9.102495165E0,-7.177455351E-3,-1.801999472E-2,-6.108472589E-3
9.112207509E0,-5.955760833E-3,-1.801999472E-2,-3.665083554E-3
9.121920686E0,-3.512371797E-3,-9.468132630E-3,-2.443389036E-3
9.131634592E0,-1.068982761E-3,-4.581354558E-3,0.000000000E0
9.141347769E0,6.261184346E-3,-1.435491070E-2,-1.221694518E-3
9.151060009E0,6.261184346E-3,-2.046338283E-2,-4.886778072E-3
9.160773186E0,-2.290677279E-3,-1.557660475E-2,-8.551862091E-3
9.170487144E0,-2.290677279E-3,-9.162708884E-4,-6.108472589E-3
9.180200217E0,1.374406274E-3,1.130067464E-2,-2.443389036E-3
9.189912509E0,1.527118147E-4,3.970507067E-3,4.886778072E-3
9.199625738E0,-1.068982761E-3,-1.679829881E-2,1.099525020E-2
9.209339644E0,-5.955760833E-3,-3.756710514E-2,1.221694518E-2
9.219052717E0,-9.620844387E-3,-4.489727318E-2,6.108472589E-3
9.228765061E0,-8.399149403E-3,-4.001049697E-2,-1.221694518E-3
9.238478238E0,-5.955760833E-3,-2.901524492E-2,-9.773556143E-3
9.248192144E0,-7.177455351E-3,-8.246437646E-3,-1.710372418E-2
9.257905217E0,-8.399149403E-3,2.229592577E-2,-2.076880634E-2
9.267617561E0,-2.290677279E-3,3.573456407E-2,-1.954711229E-2
9.277330738E0,2.596100792E-3,2.840439789E-2,-1.710372418E-2
9.287044644E0,1.527118147E-4,1.374406368E-2,-1.221694518E-2
9.296757717E0,-1.068982761E-3,3.970507067E-3,-4.886778072E-3
9.306470061E0,3.817795310E-3,1.496575773E-2,1.221694518E-3
9.316183238E0,8.704573847E-3,3.206948191E-2,4.886778072E-3
9.325897144E0,9.926267900E-3,3.573456407E-2,4.886778072E-3
9.335610217E0,5.039489828E-3,4.184303805E-2,3.665083554E-3
9.345322561E0,1.527118147E-4,5.161659420E-2,3.665083554E-3
9.355035738E0,-2.290677279E-3,4.795150831E-2,3.665083554E-3
9.364749644E0,-5.955760833E-3,3.084778599E-2,2.443389036E-3
9.374462717E0,-7.177455351E-3,1.863084175E-2,3.665083554E-3
9.384175061E0,-2.290677279E-3,1.496575773E-2,1.221694518E-3
9.393888238E0,3.817795310E-3,1.007897966E-2,0.000000000E0
9.403602196E0,5.039489828E-3,3.054236295E-4,-1.221694518E-3
9.413315269E0,6.261184346E-3,-8.246437646E-3,-1.221694518E-3
9.423027613E0,8.704573847E-3,-1.924168877E-2,0.000000000E0
9.432740790E0,8.704573847E-3,-3.634541109E-2,1.221694518E-3
9.442454696E0,7.482878864E-3,-4.611896724E-2,0.000000000E0
9.452167769E0,1.114796288E-2,-3.878879920E-2,0.000000000E0
9.461880113E0,9.926267900E-3,-2.535016090E-2,-4.886778072E-3
9.471593290E0,1.374406274E-3,-1.557660475E-2,-1.099525020E-2
9.481307196E0,-7.177455351E-3,-1.068982668E-2,-1.710372418E-2
9.491020269E0,-1.084253844E-2,-1.068982668E-2,-2.443389036E-2
9.500732613E0,-7.177455351E-3,-3.359660041E-3,-2.809897438E-2
9.510445790E0,-1.068982761E-3,1.740914769E-2,-2.565558441E-2
9.520159696E0,2.596100792E-3,3.695625812E-2,-2.076880634E-2
9.529872769E0,1.374406274E-3,5.283828825E-2,-1.099525020E-2
9.539585113E0,2.596100792E-3,6.749862432E-2,3.665083554E-3
9.549298290E0,8.704573847E-3,6.872031838E-2,1.710372418E-2
9.559012196E0,9.926267900E-3,5.894676223E-2,2.443389036E-2
9.568725269E0,8.704573847E-3,4.672981426E-2,2.687728032E-2
9.578437613E0,1.114796288E-2,2.473931387E-2,2.321219631E-2
9.588150790E0,1.114796288E-2,2.748812549E-3,1.466033421E-2
9.597864696E0,9.926267900E-3,-2.137965523E-3,4.886778072E-3
9.607577769E0,5.039489828E-3,-2.137965523E-3,0.000000000E0
9.617290113E0,-1.068982761E-3,-2.290677279E-2,-4.886778072E-3
9.627003290E0,-2.290677279E-3,-4.123219103E-2,-8.551862091E-3
9.636717248E0,-1.068982761E-3,-3.512371704E-2,-8.551862091E-3
9.646430269E0,-1.068982761E-3,-2.412846684E-2,-8.551862091E-3
9.656142613E0,1.374406274E-3,-2.168507688E-2,-9.773556143E-3
9.665855790E0,5.039489828E-3,-1.924168877E-2,-8.551862091E-3
9.675569748E0,8.704573847E-3,-9.468132630E-3,-4.886778072E-3
9.685282821E0,7.482878864E-3,-9.162708884E-4,-2.443389036E-3
9.694995165E0,-2.290677279E-3,-4.581354558E-3,0.000000000E0
9.704708342E0,-8.399149403E-3,-1.679829881E-2,-1.221694518E-3
9.714422248E0,-7.177455351E-3,-1.679829881E-2,-3.665083554E-3
9.724135321E0,-2.290677279E-3,7.635590620E-3,-3.665083554E-3
9.733847665E0,3.817795310E-3,3.206948191E-2,-2.443389036E-3
9.743560842E0,5.039489828E-3,4.184303805E-2,0.000000000E0
9.753274748E0,1.527118147E-4,4.062134400E-2,0.000000000E0
9.762987821E0,-9.620844387E-3,3.695625812E-2,0.000000000E0
9.772700165E0,-2.550287358E-2,2.718270384E-2,-2.443389036E-3
9.782413342E0,-3.283303976E-2,8.857285604E-3,-2.443389036E-3
9.792127248E0,-2.794626169E-2,-3.359660041E-3,-3.665083554E-3
9.801840321E0,-1.695101149E-2,-2.137965523E-3,-4.886778072E-3
9.811552665E0,-2.290677279E-3,-9.468132630E-3,-6.108472589E-3
9.821265842E0,5.039489828E-3,-2.779355086E-2,-3.665083554E-3
9.830979748E0,8.704573847E-3,-4.001049697E-2,1.221694518E-3
9.840692821E0,1.236965694E-2,-4.367557913E-2,8.551862091E-3
9.850405165E0,1.481304597E-2,-3.878879920E-2,1.343864016E-2
9.860118342E0,1.481304597E-2,-2.290677279E-2,1.466033421E-2
9.869832248E0,9.926267900E-3,-5.803049076E-3,1.343864016E-2
9.879545321E0,6.261184346E-3,-2.137965523E-3,9.773556143E-3
9.889257665E0,3.817795310E-3,-1.068982668E-2,6.108472589E-3
9.898970842E0,2.596100792E-3,-2.046338283E-2,1.221694518E-3
9.908684748E0,3.817795310E-3,-2.779355086E-2,-3.665083554E-3
9.918397821E0,6.261184346E-3,-2.290677279E-2,-8.551862091E-3
9.928110165E0,1.359135192E-2,-9.162708884E-4,-1.221694518E-2
9.937823342E0,1.847812906E-2,2.718270384E-2,-1.343864016E-2
9.947537300E0,1.481304597E-2,3.695625812E-2,-1.221694518E-2
9.957250373E0,5.039489828E-3,2.596100792E-2,-6.108472589E-3
9.966962665E0,-9.620844387E-3,5.192201585E-3,-1.221694518E-3
9.976675894E0,-1.939439960E-2,-3.359660041E-3,3.665083554E-3
9.986389800E0,-2.183778957E-2,1.527118147E-3,7.330167107E-3
9.996102873E0,-1.695101149E-2,5.192201585E-3,7.330167107E-3
1.000581522E1,-1.206423342E-2,1.252236869E-2,3.665083554E-3
1.001552839E1,-4.734066315E-3,2.596100792E-2,1.221694518E-3
1.002524230E1,-1.068982761E-3,3.573456407E-2,-1.221694518E-3
1.003495537E1,-3.512371797E-3,3.206948191E-2,-1.221694518E-3
1.004466772E1,-9.620844387E-3,1.863084175E-2,-1.221694518E-3
1.005438089E1,-1.206423342E-2,-2.137965523E-3,2.443389036E-3
1.006409480E1,-9.620844387E-3,-2.168507688E-2,6.108472589E-3
1.007380787E1,1.374406274E-3,-1.801999472E-2,2.443389036E-3
1.008352022E1,1.359135192E-2,-5.803049076E-3,0.000000000E0
1.009323339E1,2.214321308E-2,-8.246437646E-3,-2.443389036E-3
1.010294730E1,2.214321308E-2,-1.924168877E-2,-2.443389036E-3
1.011266037E1,1.236965694E-2,-2.168507688E-2,-1.221694518E-3
1.012237272E1,7.482878864E-3,-2.412846684E-2,2.443389036E-3
1.013208589E1,6.261184346E-3,-2.657185495E-2,4.886778072E-3
1.014179980E1,-2.290677279E-3,-2.412846684E-2,3.665083554E-3
1.015151287E1,-8.399149403E-3,-1.801999472E-2,2.443389036E-3
1.016122522E1,-9.620844387E-3,-1.557660475E-2,0.000000000E0
1.017093839E1,-8.399149403E-3,-1.191152167E-2,-2.443389036E-3
1.018065230E1,-7.177455351E-3,-7.024743594E-3,-2.443389036E-3
1.019036537E1,-4.734066315E-3,1.527118147E-3,-2.443389036E-3
1.020007772E1,-2.290677279E-3,6.413896102E-3,-1.221694518E-3
1.020979089E1,-1.068982761E-3,1.252236869E-2,0.000000000E0
1.021950485E1,-1.068982761E-3,2.107422985E-2,0.000000000E0
1.022921792E1,2.596100792E-3,1.863084175E-2,-2.443389036E-3
1.023893022E1,6.261184346E-3,1.740914769E-2,-3.665083554E-3
1.024864345E1,1.374406274E-3,2.107422985E-2,-3.665083554E-3
1.025835735E1,-3.512371797E-3,1.740914769E-2,0.000000000E0
1.026807043E1,-5.955760833E-3,5.192201585E-3,3.665083554E-3
1.027778277E1,-1.084253844E-2,-9.162708884E-4,6.108472589E-3
1.028749595E1,-1.450762246E-2,3.054236295E-4,6.108472589E-3
1.029720985E1,-1.206423342E-2,3.054236295E-4,6.108472589E-3
1.030692292E1,-5.955760833E-3,3.970507067E-3,4.886778072E-3
1.031663527E1,-2.290677279E-3,1.130067464E-2,3.665083554E-3
1.032634845E1,1.374406274E-3,8.857285604E-3,0.000000000E0
1.033606235E1,2.596100792E-3,1.527118147E-3,-1.221694518E-3
1.034577543E1,2.596100792E-3,3.054236295E-4,-2.443389036E-3
1.035548777E1,5.039489828E-3,3.054236295E-4,-4.886778072E-3
1.036520095E1,6.261184346E-3,2.748812549E-3,-7.330167107E-3
1.037491485E1,3.817795310E-3,6.413896102E-3,-8.551862091E-3
1.038462792E1,1.527118147E-4,1.740914769E-2,-9.773556143E-3
1.039434027E1,-3.512371797E-3,3.695625812E-2,-7.330167107E-3
1.040405345E1,-1.068982761E-3,5.161659420E-2,-4.886778072E-3
1.041376735E1,1.527118147E-4,4.917320609E-2,0.000000000E0
1.042348043E1,-7.177455351E-3,3.817795217E-2,6.108472589E-3
1.043319277E1,-1.695101149E-2,1.985253580E-2,9.773556143E-3
1.044290595E1,-1.695101149E-2,1.527118147E-3,1.343864016E-2
1.045261985E1,-1.450762246E-2,-8.246437646E-3,1.466033421E-2
1.046233292E1,-9.620844387E-3,-1.313321572E-2,1.221694518E-2
1.047204527E1,-2.290677279E-3,-1.191152167E-2,4.886778072E-3
1.048175845E1,8.704573847E-3,-7.024743594E-3,-1.221694518E-3
1.049147235E1,1.725643501E-2,-5.803049076E-3,-7.330167107E-3
1.050118543E1,2.580829710E-2,-4.581354558E-3,-8.551862091E-3
1.051089777E1,2.702999115E-2,-2.137965523E-3,-7.330167107E-3
1.052061095E1,2.336490713E-2,-3.359660041E-3,-3.665083554E-3
1.053032485E1,1.603474095E-2,-9.468132630E-3,1.221694518E-3
1.054003803E1,3.817795310E-3,-2.168507688E-2,4.886778072E-3
1.054975027E1,-4.734066315E-3,-3.268032894E-2,7.330167107E-3
1.055946345E1,-7.177455351E-3,-3.756710514E-2,1.221694518E-2
1.056917740E1,-7.177455351E-3,-3.878879920E-2,1.466033421E-2
1.057889048E1,-7.177455351E-3,-3.145863488E-2,1.221694518E-2
1.058860282E1,1.374406274E-3,-1.679829881E-2,7.330167107E-3
1.059831600E1,5.039489828E-3,-3.359660041E-3,3.665083554E-3
1.060802990E1,2.596100792E-3,6.413896102E-3,-1.221694518E-3
1.061774298E1,2.596100792E-3,1.496575773E-2,-2.443389036E-3
1.062745532E1,-2.290677279E-3,2.351761982E-2,-3.665083554E-3
1.063716850E1,-8.399149403E-3,3.451287001E-2,-4.886778072E-3
1.064688240E1,-1.328592747E-2,3.939964995E-2,-4.886778072E-3
1.065659548E1,-1.572931744E-2,3.084778599E-2,-6.108472589E-3
1.066630782E1,-1.450762246E-2,1.130067464E-2,-4.886778072E-3
1.067602100E1,-1.572931744E-2,-2.137965523E-3,-2.443389036E-3
1.068573490E1,-1.939439960E-2,-3.359660041E-3,1.221694518E-3
1.069544798E1,-1.572931744E-2,1.527118147E-3,4.886778072E-3
1.070516032E1,-5.955760833E-3,8.857285604E-3,7.330167107E-3
1.071487350E1,-1.068982761E-3,7.635590620E-3,7.330167107E-3
1.072458740E1,1.374406274E-3,-9.468132630E-3,6.108472589E-3
1.073430048E1,2.596100792E-3,-2.046338283E-2,7.330167107E-3
1.074401282E1,1.527118147E-4,-1.801999472E-2,8.551862091E-3
1.075372600E1,-7.177455351E-3,-1.191152167E-2,9.773556143E-3
1.076343990E1,-1.328592747E-2,-1.679829881E-2,6.108472589E-3
1.077315298E1,-1.328592747E-2,-1.068982668E-2,3.665083554E-3
1.078286532E1,-4.734066315E-3,5.192201585E-3,0.000000000E0
1.079257850E1,2.596100792E-3,1.130067464E-2,-2.443389036E-3
1.080229240E1,3.817795310E-3,6.413896102E-3,-4.886778072E-3
1.081200548E1,-1.068982761E-3,-3.359660041E-3,-3.665083554E-3
1.082171782E1,-2.290677279E-3,-4.581354558E-3,-1.221694518E-3
1.083143100E1,1.527118147E-4,5.192201585E-3,2.443389036E-3
1.084114490E1,1.527118147E-4,1.252236869E-2,7.330167107E-3
1.085085798E1,-2.290677279E-3,1.863084175E-2,7.330167107E-3
1.086057032E1,-5.955760833E-3,1.985253580E-2,4.886778072E-3
1.087028350E1,-7.177455351E-3,1.252236869E-2,3.665083554E-3
1.087999740E1,-3.512371797E-3,3.970507067E-3,6.108472589E-3
1.088971048E1,5.039489828E-3,-9.468132630E-3,9.773556143E-3
1.089942282E1,1.236965694E-2,-2.779355086E-2,1.099525020E-2
1.090913600E1,1.481304597E-2,-4.367557913E-2,1.099525020E-2
1.091884990E1,1.359135192E-2,-5.833591148E-2,7.330167107E-3
1.092856298E1,9.926267900E-3,-6.077930331E-2,3.665083554E-3
1.093827532E1,7.482878864E-3,-4.611896724E-2,0.000000000E0
1.094798850E1,3.817795310E-3,-2.779355086E-2,-4.886778072E-3
1.095770240E1,1.374406274E-3,-9.468132630E-3,-9.773556143E-3
1.096741548E1,-1.068982761E-3,2.748812549E-3,-8.551862091E-3
1.097712782E1,-3.512371797E-3,1.007897966E-2,-8.551862091E-3
1.098684100E1,-5.955760833E-3,2.107422985E-2,-7.330167107E-3
1.099655490E1,-1.084253844E-2,3.329117596E-2,-6.108472589E-3
1.100626798E1,-1.817270555E-2,3.939964995E-2,-3.665083554E-3
1.101598032E1,-2.428117767E-2,3.817795217E-2,1.221694518E-3
1.102569350E1,-2.305948362E-2,3.451287001E-2,8.551862091E-3
1.103540740E1,-1.084253844E-2,1.985253580E-2,1.343864016E-2
1.104512048E1,-1.068982761E-3,1.007897966E-2,1.221694518E-2
1.105483282E1,3.817795310E-3,1.130067464E-2,8.551862091E-3
1.106454600E1,1.114796288E-2,1.130067464E-2,4.886778072E-3
1.107425990E1,9.926267900E-3,3.054236295E-4,1.221694518E-3
1.108397298E1,2.596100792E-3,-1.679829881E-2,-1.221694518E-3
1.109368532E1,-2.290677279E-3,-2.412846684E-2,-1.221694518E-3
1.110339850E1,-2.290677279E-3,-2.535016090E-2,0.000000000E0
1.111311240E1,1.374406274E-3,-2.290677279E-2,2.443389036E-3
1.112282548E1,5.039489828E-3,-2.046338283E-2,2.443389036E-3
1.113253782E1,6.261184346E-3,-2.046338283E-2,-1.221694518E-3
1.114225100E1,8.704573847E-3,-1.924168877E-2,0.000000000E0
1.115196496E1,1.481304597E-2,-1.068982668E-2,0.000000000E0
1.116167798E1,1.725643501E-2,-9.162708884E-4,1.221694518E-3
1.117139032E1,1.359135192E-2,1.252236869E-2,1.221694518E-3
1.118110350E1,6.261184346E-3,2.596100792E-2,-1.221694518E-3
1.119081746E1,-1.068982761E-3,3.329117596E-2,0.000000000E0
1.120053053E1,-7.177455351E-3,3.084778599E-2,4.886778072E-3
1.121024287E1,-1.328592747E-2,1.496575773E-2,7.330167107E-3
1.121995605E1,-1.572931744E-2,-9.162708884E-4,8.551862091E-3
1.122966996E1,-1.328592747E-2,-7.024743594E-3,7.330167107E-3
1.123938303E1,-8.399149403E-3,-9.162708884E-4,4.886778072E-3
1.124909537E1,-1.068982761E-3,1.374406368E-2,1.221694518E-3
1.125880855E1,5.039489828E-3,2.840439789E-2,1.221694518E-3
1.126852246E1,1.114796288E-2,3.695625812E-2,2.443389036E-3
1.127823553E1,1.114796288E-2,3.573456407E-2,2.443389036E-3
1.128794787E1,3.817795310E-3,2.718270384E-2,2.443389036E-3
1.129766105E1,2.596100792E-3,2.229592577E-2,4.886778072E-3
1.130737496E1,3.817795310E-3,1.252236869E-2,7.330167107E-3
1.131708803E1,6.261184346E-3,2.748812549E-3,8.551862091E-3
1.132680037E1,3.817795310E-3,-8.246437646E-3,8.551862091E-3
1.133651355E1,2.596100792E-3,-1.924168877E-2,6.108472589E-3
1.134622746E1,5.039489828E-3,-2.657185495E-2,6.108472589E-3
1.135594053E1,9.926267900E-3,-3.145863488E-2,4.886778072E-3
1.136565287E1,1.359135192E-2,-2.901524492E-2,3.665083554E-3
1.137536605E1,1.725643501E-2,-2.412846684E-2,2.443389036E-3
1.138507996E1,1.481304597E-2,-2.412846684E-2,0.000000000E0
1.139479303E1,5.039489828E-3,-2.901524492E-2,-3.665083554E-3
1.140450537E1,1.374406274E-3,-2.901524492E-2,-7.330167107E-3
1.141421855E1,-2.290677279E-3,-2.168507688E-2,-1.099525020E-2
1.142393246E1,-3.512371797E-3,-1.557660475E-2,-1.343864016E-2
1.143364553E1,-8.399149403E-3,-8.246437646E-3,-1.221694518E-2
1.144335787E1,-1.450762246E-2,2.748812549E-3,-7.330167107E-3
1.145307105E1,-1.817270555E-2,1.496575773E-2,-2.443389036E-3
1.146278501E1,-1.939439960E-2,1.985253580E-2,-1.221694518E-3
1.147249808E1,-1.450762246E-2,1.252236869E-2,0.000000000E0
1.148221042E1,-5.955760833E-3,1.527118147E-3,2.443389036E-3
1.149192360E1,-1.068982761E-3,-3.359660041E-3,4.886778072E-3
1.150163751E1,-2.290677279E-3,-4.581354558E-3,7.330167107E-3
1.151135058E1,-5.955760833E-3,-1.679829881E-2,8.551862091E-3
1.152106292E1,-5.955760833E-3,-3.390202299E-2,7.330167107E-3
1.153077610E1,-7.177455351E-3,-4.245388508E-2,6.108472589E-3
1.154049001E1,-5.955760833E-3,-3.878879920E-2,1.221694518E-3
1.155020308E1,-1.068982761E-3,-3.390202299E-2,-3.665083554E-3
1.155991543E1,1.527118147E-4,-3.023693897E-2,-6.108472589E-3
1.156962860E1,-1.068982761E-3,-3.023693897E-2,-1.099525020E-2
1.157934256E1,1.527118147E-4,-2.046338283E-2,-1.466033421E-2
1.158905563E1,1.374406274E-3,-2.137965523E-3,-1.588202827E-2
1.159876798E1,2.596100792E-3,1.252236869E-2,-1.588202827E-2
1.160848115E1,-1.068982761E-3,1.130067464E-2,-1.710372418E-2
1.161819506E1,-1.068982761E-3,1.007897966E-2,-1.588202827E-2
1.162790813E1,1.374406274E-3,2.473931387E-2,-1.221694518E-2
1.163762048E1,3.817795310E-3,3.817795217E-2,-9.773556143E-3
1.164733365E1,3.817795310E-3,3.451287001E-2,-7.330167107E-3
1.165704756E1,2.596100792E-3,2.718270384E-2,-1.221694518E-3
1.166676063E1,1.527118147E-4,3.084778599E-2,2.443389036E-3
1.167647303E1,-1.068982761E-3,3.329117596E-2,4.886778072E-3
1.168618621E1,1.527118147E-4,2.473931387E-2,4.886778072E-3
1.169590011E1,-1.068982761E-3,2.107422985E-2,6.108472589E-3
1.170561319E1,1.527118147E-4,2.107422985E-2,7.330167107E-3
1.171532553E1,6.261184346E-3,1.740914769E-2,8.551862091E-3
1.172503871E1,1.236965694E-2,1.496575773E-2,1.343864016E-2
1.173475261E1,1.114796288E-2,8.857285604E-3,1.710372418E-2
1.174446579E1,1.114796288E-2,2.748812549E-3,1.954711229E-2
1.175417808E1,1.114796288E-2,-9.162708884E-4,2.443389036E-2
1.176389126E1,1.114796288E-2,-7.024743594E-3,2.321219631E-2
1.177360517E1,7.482878864E-3,-1.068982668E-2,1.710372418E-2
1.178331824E1,5.039489828E-3,-1.313321572E-2,7.330167107E-3
1.179303058E1,3.817795310E-3,-1.313321572E-2,-3.665083554E-3
1.180274376E1,7.482878864E-3,-9.162708884E-4,-1.099525020E-2
1.181245772E1,9.926267900E-3,1.527118147E-3,-1.343864016E-2
1.182217079E1,5.039489828E-3,-3.359660041E-3,-1.099525020E-2
1.183188313E1,-2.290677279E-3,-9.162708884E-4,-6.108472589E-3
1.184159631E1,-1.068982761E-3,2.748812549E-3,-1.221694518E-3
1.185131027E1,-1.068982761E-3,5.192201585E-3,0.000000000E0
1.186102334E1,-3.512371797E-3,2.748812549E-3,0.000000000E0
1.187073569E1,-8.399149403E-3,-9.162708884E-4,0.000000000E0
1.188044886E1,-8.399149403E-3,-9.162708884E-4,-3.665083554E-3
1.189016282E1,-2.290677279E-3,5.192201585E-3,-4.886778072E-3
1.189987589E1,5.039489828E-3,1.740914769E-2,-6.108472589E-3
1.190958824E1,7.482878864E-3,2.107422985E-2,-6.108472589E-3
1.191930142E1,7.482878864E-3,8.857285604E-3,-4.886778072E-3
1.192901532E1,5.039489828E-3,-5.803049076E-3,-3.665083554E-3
1.193872850E1,1.374406274E-3,-8.246437646E-3,-3.665083554E-3
1.194844079E1,-3.512371797E-3,-3.359660041E-3,-2.443389036E-3
1.195815397E1,-2.290677279E-3,1.527118147E-3,-1.221694518E-3
1.196786787E1,-3.512371797E-3,5.192201585E-3,0.000000000E0
1.197758095E1,-7.177455351E-3,6.413896102E-3,1.221694518E-3
1.198729334E1,-8.399149403E-3,8.857285604E-3,4.886778072E-3
1.199700652E1,-2.290677279E-3,1.130067464E-2,8.551862091E-3
1.200672043E1,3.817795310E-3,1.252236869E-2,9.773556143E-3
1.201643360E1,5.039489828E-3,1.252236869E-2,6.108472589E-3
1.202614589E1,1.374406274E-3,1.007897966E-2,4.886778072E-3
1.203585907E1,1.527118147E-4,6.413896102E-3,3.665083554E-3
1.204557298E1,-5.955760833E-3,-2.137965523E-3,0.000000000E0
1.205528615E1,-1.817270555E-2,-8.246437646E-3,-4.886778072E-3
1.206499845E1,-2.794626169E-2,-3.359660041E-3,-1.099525020E-2
1.207471162E1,-2.550287358E-2,1.130067464E-2,-1.221694518E-2
1.208442553E1,-1.695101149E-2,1.740914769E-2,-1.099525020E-2
1.209413871E1,-1.084253844E-2,1.252236869E-2,-9.773556143E-3
1.210385100E1,-7.177455351E-3,3.970507067E-3,-6.108472589E-3
1.211356418E1,1.527118147E-4,-2.137965523E-3,-1.221694518E-3
1.212327813E1,6.261184346E-3,-7.024743594E-3,3.665083554E-3
1.213299121E1,6.261184346E-3,-9.468132630E-3,1.221694518E-3
1.214270355E1,2.596100792E-3,-9.468132630E-3,-1.221694518E-3
1.215241673E1,3.817795310E-3,-5.803049076E-3,-2.443389036E-3
1.216213069E1,8.704573847E-3,-5.803049076E-3,-2.443389036E-3
1.217184376E1,7.482878864E-3,-4.581354558E-3,-1.221694518E-3
1.218155610E1,3.817795310E-3,-4.581354558E-3,0.000000000E0
1.219126933E1,1.374406274E-3,-7.024743594E-3,-1.221694518E-3
1.220098324E1,2.596100792E-3,-7.024743594E-3,-2.443389036E-3
1.221069642E1,1.374406274E-3,3.054236295E-4,-3.665083554E-3
1.222040871E1,-4.734066315E-3,7.635590620E-3,-2.443389036E-3
1.223012188E1,-8.399149403E-3,7.635590620E-3,-2.443389036E-3
1.223983584E1,-4.734066315E-3,1.007897966E-2,-2.443389036E-3
1.224954892E1,2.596100792E-3,1.740914769E-2,-4.886778072E-3
1.225926131E1,5.039489828E-3,2.229592577E-2,-4.886778072E-3
1.226897449E1,2.596100792E-3,2.351761982E-2,-1.221694518E-3
1.227868839E1,-1.068982761E-3,1.863084175E-2,-1.221694518E-3
1.228840157E1,-4.734066315E-3,1.252236869E-2,-1.221694518E-3
1.229811386E1,-7.177455351E-3,1.130067464E-2,-1.221694518E-3
1.230782704E1,-9.620844387E-3,1.740914769E-2,-2.443389036E-3
1.231754100E1,-8.399149403E-3,2.473931387E-2,-3.665083554E-3
1.232725407E1,-8.399149403E-3,2.596100792E-2,-6.108472589E-3
1.233696647E1,-1.084253844E-2,2.351761982E-2,-6.108472589E-3
1.234667964E1,-1.084253844E-2,1.374406368E-2,-4.886778072E-3
1.235639360E1,-1.206423342E-2,2.748812549E-3,-3.665083554E-3
1.236610668E1,-1.084253844E-2,-2.137965523E-3,-1.221694518E-3
1.237581902E1,-1.068982761E-3,-9.162708884E-4,-1.221694518E-3
1.238553225E1,8.704573847E-3,-3.359660041E-3,-2.443389036E-3
1.239524615E1,1.603474095E-2,-7.024743594E-3,-3.665083554E-3
1.240495933E1,1.969982497E-2,-1.679829881E-2,-2.443389036E-3
1.241467162E1,1.725643501E-2,-2.901524492E-2,0.000000000E0
1.242438485E1,1.114796288E-2,-3.512371704E-2,1.221694518E-3
1.243409876E1,3.817795310E-3,-4.001049697E-2,2.443389036E-3
1.244381194E1,-3.512371797E-3,-4.611896724E-2,1.221694518E-3
1.245352423E1,-5.955760833E-3,-4.367557913E-2,-3.665083554E-3
1.246323740E1,-5.955760833E-3,-3.023693897E-2,-8.551862091E-3
1.247295136E1,-3.512371797E-3,-1.435491070E-2,-1.099525020E-2
1.248266454E1,-2.290677279E-3,-3.359660041E-3,-1.343864016E-2
1.249237683E1,1.374406274E-3,5.192201585E-3,-1.221694518E-2
1.250209001E1,9.926267900E-3,8.857285604E-3,-7.330167107E-3
1.251180397E1,1.725643501E-2,7.635590620E-3,-2.443389036E-3
1.252151714E1,1.603474095E-2,8.857285604E-3,1.221694518E-3
1.253122944E1,7.482878864E-3,8.857285604E-3,7.330167107E-3
1.254094261E1,2.596100792E-3,-2.137965523E-3,8.551862091E-3
1.255065657E1,3.817795310E-3,-1.679829881E-2,1.099525020E-2
1.256036975E1,7.482878864E-3,-2.290677279E-2,8.551862091E-3
1.257008204E1,8.704573847E-3,-1.435491070E-2,3.665083554E-3
1.257979527E1,1.236965694E-2,2.748812549E-3,-1.221694518E-3
1.258950918E1,1.359135192E-2,1.374406368E-2,-6.108472589E-3
1.259922235E1,9.926267900E-3,3.970507067E-3,-8.551862091E-3
1.260893464E1,-1.068982761E-3,-1.191152167E-2,-9.773556143E-3
1.261864787E1,-1.206423342E-2,-2.290677279E-2,-8.551862091E-3
1.262836178E1,-2.183778957E-2,-1.924168877E-2,-7.330167107E-3
1.263807496E1,-2.916795574E-2,-1.435491070E-2,-6.108472589E-3
1.264778725E1,-3.038965166E-2,-2.290677279E-2,-1.343864016E-2
1.265750048E1,-2.916795574E-2,-2.901524492E-2,-2.321219631E-2
1.266721444E1,-2.550287358E-2,-3.145863488E-2,-3.420744836E-2
1.267692751E1,-1.695101149E-2,-2.535016090E-2,-4.153761268E-2
1.268663990E1,-5.955760833E-3,-1.191152167E-2,-4.398100078E-2
1.269635308E1,3.817795310E-3,2.748812549E-3,-4.275930673E-2
1.270606704E1,8.704573847E-3,2.748812549E-3,-3.542914242E-2
1.271578022E1,1.236965694E-2,-1.679829881E-2,-2.565558441E-2
1.272549251E1,1.114796288E-2,-2.535016090E-2,-1.343864016E-2
1.273520574E1,9.926267900E-3,-1.679829881E-2,-2.443389036E-3
1.274491970E1,9.926267900E-3,-1.801999472E-2,4.886778072E-3
1.275463277E1,9.926267900E-3,-1.679829881E-2,1.099525020E-2
1.276434516E1,1.114796288E-2,-1.191152167E-2,1.588202827E-2
1.277405834E1,9.926267900E-3,-9.468132630E-3,1.466033421E-2
1.278377230E1,7.482878864E-3,-9.468132630E-3,9.773556143E-3
1.279348548E1,9.926267900E-3,-7.024743594E-3,4.886778072E-3
1.280319777E1,1.236965694E-2,-3.359660041E-3,2.443389036E-3
1.281291100E1,1.236965694E-2,-9.162708884E-4,2.443389036E-3
1.282262496E1,9.926267900E-3,1.527118147E-3,3.665083554E-3
1.283233803E1,6.261184346E-3,2.748812549E-3,7.330167107E-3
1.284205042E1,5.039489828E-3,1.130067464E-2,9.773556143E-3
1.285176365E1,3.817795310E-3,1.740914769E-2,1.221694518E-2
1.286147756E1,-1.068982761E-3,2.473931387E-2,1.466033421E-2
1.287119074E1,-3.512371797E-3,3.451287001E-2,1.343864016E-2
1.288090308E1,-3.512371797E-3,4.184303805E-2,1.221694518E-2
1.289061626E1,-2.290677279E-3,4.917320609E-2,4.886778072E-3
1.290033022E1,1.527118147E-4,4.917320609E-2,-4.886778072E-3
1.291004339E1,1.374406274E-3,3.206948191E-2,-1.343864016E-2
1.291975569E1,3.817795310E-3,7.635590620E-3,-1.832541823E-2
1.292946892E1,3.817795310E-3,-1.557660475E-2,-1.954711229E-2
1.293918287E1,1.374406274E-3,-3.878879920E-2,-1.588202827E-2
1.294889605E1,-2.290677279E-3,-5.222744122E-2,-8.551862091E-3
1.295860834E1,-5.955760833E-3,-5.589252338E-2,0.000000000E0
1.296832157E1,-8.399149403E-3,-4.123219103E-2,2.443389036E-3
1.297803553E1,-5.955760833E-3,-1.557660475E-2,2.443389036E-3
1.298774860E1,1.527118147E-4,1.527118147E-3,1.221694518E-3
1.299746100E1,7.482878864E-3,1.130067464E-2,3.665083554E-3
1.300717423E1,9.926267900E-3,1.740914769E-2,3.665083554E-3
1.301688819E1,7.482878864E-3,1.618745178E-2,6.108472589E-3
1.302660126E1,6.261184346E-3,1.374406368E-2,9.773556143E-3
1.303631365E1,6.261184346E-3,1.374406368E-2,1.343864016E-2
1.304602688E1,1.374406274E-3,1.252236869E-2,1.832541823E-2
1.305574084E1,-2.290677279E-3,2.748812549E-3,1.832541823E-2
1.306545392E1,-9.620844387E-3,-7.024743594E-3,1.343864016E-2
1.307516631E1,-1.450762246E-2,-3.359660041E-3,7.330167107E-3
1.308487954E1,-1.084253844E-2,8.857285604E-3,3.665083554E-3
1.309459350E1,-5.955760833E-3,1.374406368E-2,1.221694518E-3
1.310430657E1,-1.068982761E-3,1.130067464E-2,0.000000000E0
1.311401897E1,-3.512371797E-3,1.130067464E-2,-1.221694518E-3
1.312373220E1,-7.177455351E-3,1.130067464E-2,-2.443389036E-3
1.313344615E1,-4.734066315E-3,7.635590620E-3,-3.665083554E-3
1.314315933E1,1.374406274E-3,2.748812549E-3,-2.443389036E-3
1.315287162E1,5.039489828E-3,5.192201585E-3,-1.221694518E-3
1.316258485E1,8.704573847E-3,1.252236869E-2,0.000000000E0
1.317229881E1,7.482878864E-3,1.252236869E-2,1.221694518E-3
1.318201199E1,6.261184346E-3,7.635590620E-3,0.000000000E0
1.319172428E1,-1.068982761E-3,5.192201585E-3,-2.443389036E-3
1.320143751E1,-7.177455351E-3,7.635590620E-3,-2.443389036E-3
1.321115147E1,-7.177455351E-3,1.496575773E-2,0.000000000E0
1.322086464E1,-4.734066315E-3,2.107422985E-2,-2.443389036E-3
1.323057699E1,-5.955760833E-3,2.962609194E-2,-2.443389036E-3
1.324029017E1,-9.620844387E-3,2.473931387E-2,-3.665083554E-3
1.325000418E1,-1.084253844E-2,2.748812549E-3,-6.108472589E-3
1.325971725E1,-4.734066315E-3,-1.801999472E-2,-3.665083554E-3
1.326942964E1,-1.068982761E-3,-2.412846684E-2,0.000000000E0
1.327914287E1,-2.290677279E-3,-2.412846684E-2,3.665083554E-3
1.328885683E1,-4.734066315E-3,-1.924168877E-2,4.886778072E-3
1.329857001E1,-3.512371797E-3,-1.191152167E-2,4.886778072E-3
1.330828230E1,-1.068982761E-3,3.054236295E-4,3.665083554E-3
1.331799553E1,-3.512371797E-3,3.970507067E-3,1.221694518E-3
1.332770949E1,-7.177455351E-3,-3.359660041E-3,-1.221694518E-3
1.333742266E1,-8.399149403E-3,-1.068982668E-2,-4.886778072E-3
1.334713501E1,-5.955760833E-3,-7.024743594E-3,-6.108472589E-3
1.335684824E1,-5.955760833E-3,5.192201585E-3,-6.108472589E-3
1.336656220E1,-5.955760833E-3,1.252236869E-2,-6.108472589E-3
1.337627537E1,1.527118147E-4,1.374406368E-2,-7.330167107E-3
1.338598766E1,5.039489828E-3,1.252236869E-2,-4.886778072E-3
1.339570089E1,7.482878864E-3,1.374406368E-2,-2.443389036E-3
1.340541485E1,2.596100792E-3,1.496575773E-2,-2.443389036E-3
1.341512803E1,-3.512371797E-3,1.618745178E-2,-1.221694518E-3
1.342484037E1,-8.399149403E-3,1.130067464E-2,1.221694518E-3
1.343455360E1,-1.450762246E-2,-3.359660041E-3,3.665083554E-3
1.344426756E1,-2.305948362E-2,-1.435491070E-2,4.886778072E-3
1.345398074E1,-2.183778957E-2,-1.313321572E-2,4.886778072E-3
1.346369308E1,-1.450762246E-2,-5.803049076E-3,2.443389036E-3
1.347340631E1,-5.955760833E-3,3.970507067E-3,-1.221694518E-3
1.348312027E1,-1.068982761E-3,8.857285604E-3,-3.665083554E-3
1.349283345E1,3.817795310E-3,1.252236869E-2,-6.108472589E-3
1.350254574E1,7.482878864E-3,1.740914769E-2,-6.108472589E-3
1.351225897E1,7.482878864E-3,1.863084175E-2,-4.886778072E-3
1.352197292E1,7.482878864E-3,7.635590620E-3,0.000000000E0
1.353168610E1,3.817795310E-3,-9.468132630E-3,2.443389036E-3
1.354139845E1,1.527118147E-4,-1.557660475E-2,4.886778072E-3
1.355111168E1,-1.068982761E-3,-1.313321572E-2,4.886778072E-3
1.356082563E1,-1.068982761E-3,-5.803049076E-3,4.886778072E-3
1.357053881E1,-1.068982761E-3,-4.581354558E-3,3.665083554E-3
1.358025115E1,-1.068982761E-3,-5.803049076E-3,0.000000000E0
1.358996438E1,-1.068982761E-3,3.054236295E-4,0.000000000E0
1.359967834E1,1.374406274E-3,3.970507067E-3,-1.221694518E-3
1.360939152E1,2.596100792E-3,-7.024743594E-3,-2.443389036E-3
1.361910386E1,3.817795310E-3,-2.168507688E-2,-4.886778072E-3
1.362881709E1,1.527118147E-4,-2.412846684E-2,-6.108472589E-3
1.363853105E1,-3.512371797E-3,-1.924168877E-2,-2.443389036E-3
1.364824423E1,-5.955760833E-3,-1.068982668E-2,0.000000000E0
1.365795657E1,-5.955760833E-3,-5.803049076E-3,2.443389036E-3
1.366766980E1,-4.734066315E-3,3.054236295E-4,3.665083554E-3
1.367738376E1,-1.068982761E-3,1.007897966E-2,1.221694518E-3
1.368709694E1,3.817795310E-3,2.107422985E-2,-1.221694518E-3
1.369680928E1,5.039489828E-3,2.229592577E-2,-6.108472589E-3
1.370652251E1,3.817795310E-3,1.007897966E-2,-7.330167107E-3
1.371623647E1,-1.068982761E-3,1.527118147E-3,-8.551862091E-3
1.372594964E1,-5.955760833E-3,3.970507067E-3,-6.108472589E-3
1.373566199E1,-7.177455351E-3,1.130067464E-2,-4.886778072E-3
1.374537522E1,-7.177455351E-3,1.618745178E-2,-3.665083554E-3
1.375508918E1,-3.512371797E-3,2.229592577E-2,-3.665083554E-3
1.376480240E1,-1.068982761E-3,2.718270384E-2,-2.443389036E-3
1.377451470E1,1.374406274E-3,2.351761982E-2,-1.221694518E-3
1.378422798E1,1.374406274E-3,1.130067464E-2,0.000000000E0
1.379394194E1,-4.734066315E-3,3.054236295E-4,2.443389036E-3
1.380365511E1,-1.084253844E-2,-5.803049076E-3,6.108472589E-3
1.381336746E1,-1.450762246E-2,-7.024743594E-3,6.108472589E-3
1.382308069E1,-1.328592747E-2,-5.803049076E-3,7.330167107E-3
1.383279464E1,-8.399149403E-3,-3.359660041E-3,4.886778072E-3
1.384250782E1,-4.734066315E-3,-2.137965523E-3,3.665083554E-3
1.385222016E1,1.527118147E-4,-3.359660041E-3,-1.221694518E-3
1.386193339E1,2.596100792E-3,-9.162708884E-4,-4.886778072E-3
1.387164735E1,7.482878864E-3,1.007897966E-2,-8.551862091E-3
1.388136053E1,8.704573847E-3,1.496575773E-2,-8.551862091E-3
1.389107287E1,5.039489828E-3,1.130067464E-2,-7.330167107E-3
1.390078615E1,2.596100792E-3,5.192201585E-3,-4.886778072E-3
1.391050011E1,1.527118147E-4,1.527118147E-3,-1.221694518E-3
1.392021329E1,-2.290677279E-3,-7.024743594E-3,2.443389036E-3
1.392992563E1,-1.068982761E-3,-1.191152167E-2,3.665083554E-3
1.393963886E1,2.596100792E-3,-1.068982668E-2,3.665083554E-3
1.394935282E1,2.596100792E-3,-1.679829881E-2,4.886778072E-3
1.395906600E1,-2.290677279E-3,-2.290677279E-2,2.443389036E-3
1.396877834E1,-3.512371797E-3,-2.412846684E-2,1.221694518E-3
1.397849162E1,1.527118147E-4,-2.290677279E-2,0.000000000E0
1.398820558E1,6.261184346E-3,-1.191152167E-2,-1.221694518E-3
1.399791876E1,9.926267900E-3,-9.162708884E-4,-1.221694518E-3
1.400763110E1,9.926267900E-3,1.527118147E-3,0.000000000E0
1.401734433E1,8.704573847E-3,-2.137965523E-3,1.221694518E-3
1.402705834E1,5.039489828E-3,-4.581354558E-3,2.443389036E-3
1.403677152E1,2.596100792E-3,-4.581354558E-3,2.443389036E-3
1.404648386E1,-1.068982761E-3,-4.581354558E-3,2.443389036E-3
1.405619709E1,-4.734066315E-3,-7.024743594E-3,0.000000000E0
1.406591105E1,-3.512371797E-3,-8.246437646E-3,-2.443389036E-3
1.407562423E1,1.527118147E-4,-9.162708884E-4,-1.221694518E-3
1.408533662E1,1.527118147E-4,6.413896102E-3,0.000000000E0
1.409504985E1,-2.290677279E-3,5.192201585E-3,1.221694518E-3
1.410476381E1,-3.512371797E-3,1.527118147E-3,2.443389036E-3
1.411447699E1,-4.734066315E-3,-2.137965523E-3,2.443389036E-3
1.412418933E1,-1.068982761E-3,-7.024743594E-3,3.665083554E-3
1.413390261E1,-1.068982761E-3,-1.435491070E-2,1.221694518E-3
1.414361657E1,1.527118147E-4,-1.679829881E-2,-2.443389036E-3
1.415332975E1,1.374406274E-3,-8.246437646E-3,-3.665083554E-3
1.416304209E1,2.596100792E-3,3.970507067E-3,-3.665083554E-3
1.417275532E1,2.596100792E-3,1.007897966E-2,-2.443389036E-3
1.418246933E1,1.527118147E-4,6.413896102E-3,-2.443389036E-3
1.419218251E1,-4.734066315E-3,5.192201585E-3,0.000000000E0
1.420189485E1,-4.734066315E-3,5.192201585E-3,0.000000000E0
1.421160808E1,-2.290677279E-3,3.970507067E-3,1.221694518E-3
1.422132209E1,-1.068982761E-3,-9.162708884E-4,-2.443389036E-3
1.423103527E1,1.374406274E-3,-5.803049076E-3,-4.886778072E-3
1.424074761E1,3.817795310E-3,3.054236295E-4,-6.108472589E-3
1.425046084E1,5.039489828E-3,6.413896102E-3,-4.886778072E-3
1.426017485E1,3.817795310E-3,7.635590620E-3,-2.443389036E-3
1.426988803E1,1.527118147E-4,2.748812549E-3,1.221694518E-3
1.427960037E1,-1.068982761E-3,2.748812549E-3,4.886778072E-3
1.428931360E1,-1.068982761E-3,8.857285604E-3,3.665083554E-3
1.429902761E1,1.527118147E-4,1.007897966E-2,3.665083554E-3
1.430874079E1,1.527118147E-4,6.413896102E-3,0.000000000E0
1.431845313E1,1.527118147E-4,-9.162708884E-4,-1.221694518E-3
1.432816636E1,-2.290677279E-3,-3.359660041E-3,0.000000000E0
1.433788037E1,-2.290677279E-3,1.527118147E-3,1.221694518E-3
1.434759355E1,1.374406274E-3,1.007897966E-2,1.221694518E-3
1.435730589E1,3.817795310E-3,1.618745178E-2,2.443389036E-3
1.436701912E1,3.817795310E-3,1.985253580E-2,2.443389036E-3
1.437673313E1,8.704573847E-3,1.863084175E-2,3.665083554E-3
1.438644631E1,1.359135192E-2,1.374406368E-2,4.886778072E-3
1.439615865E1,1.114796288E-2,7.635590620E-3,6.108472589E-3
1.440587194E1,5.039489828E-3,1.527118147E-3,8.551862091E-3
1.441558589E1,2.596100792E-3,-3.359660041E-3,9.773556143E-3
1.442529907E1,1.527118147E-4,1.527118147E-3,6.108472589E-3
1.443501147E1,-3.512371797E-3,6.413896102E-3,4.886778072E-3
1.444472470E1,-5.955760833E-3,1.618745178E-2,2.443389036E-3
1.445443865E1,-1.206423342E-2,2.596100792E-2,1.221694518E-3
1.446415188E1,-1.572931744E-2,3.084778599E-2,1.221694518E-3
1.447386423E1,-1.206423342E-2,3.329117596E-2,4.886778072E-3
1.448357746E1,-2.290677279E-3,2.351761982E-2,9.773556143E-3
1.449329147E1,5.039489828E-3,1.130067464E-2,1.466033421E-2
1.450300464E1,2.596100792E-3,8.857285604E-3,1.588202827E-2
1.451271699E1,-1.068982761E-3,1.374406368E-2,1.221694518E-2
1.452243022E1,1.374406274E-3,1.252236869E-2,4.886778072E-3
1.453214423E1,6.261184346E-3,3.970507067E-3,-4.886778072E-3
1.454185740E1,8.704573847E-3,-1.313321572E-2,-1.710372418E-2
1.455156975E1,6.261184346E-3,-3.268032894E-2,-2.443389036E-2
1.456128303E1,6.261184346E-3,-5.589252338E-2,-2.687728032E-2
1.457099699E1,1.114796288E-2,-8.399149776E-2,-2.809897438E-2
1.458071022E1,2.580829710E-2,-9.987352788E-2,-2.321219631E-2
1.459042256E1,4.413371533E-2,-9.376505762E-2,-1.466033421E-2
1.460013579E1,5.268557742E-2,-8.765657991E-2,0.000000000E0
1.460984980E1,5.024218559E-2,-8.643488586E-2,1.588202827E-2
1.461956298E1,4.535540938E-2,-8.399149776E-2,2.687728032E-2
1.462927532E1,3.558185324E-2,-7.543963939E-2,3.176405653E-2
1.463898860E1,2.458660305E-2,-6.566607952E-2,3.176405653E-2
1.464870256E1,1.236965694E-2,-5.711421743E-2,2.443389036E-2
1.465841574E1,5.039489828E-3,-4.856235534E-2,1.466033421E-2
1.466812813E1,1.374406274E-3,-3.512371704E-2,6.108472589E-3
1.467784136E1,-3.512371797E-3,-1.557660475E-2,-3.665083554E-3
1.468755537E1,-4.734066315E-3,-5.803049076E-3,-9.773556143E-3
1.469726855E1,-7.177455351E-3,6.413896102E-3,-1.099525020E-2
1.470698089E1,-1.206423342E-2,1.985253580E-2,-6.108472589E-3
1.471669418E1,-1.572931744E-2,3.206948191E-2,0.000000000E0
1.472640813E1,-1.695101149E-2,4.306473210E-2,3.665083554E-3
1.473612131E1,-1.206423342E-2,4.550812021E-2,4.886778072E-3
1.474583371E1,-7.177455351E-3,4.062134400E-2,4.886778072E-3
1.475554694E1,-9.620844387E-3,3.084778599E-2,2.443389036E-3
1.476526095E1,-1.450762246E-2,1.740914769E-2,1.221694518E-3
1.477497412E1,-1.817270555E-2,1.496575773E-2,-1.221694518E-3
1.478468647E1,-1.817270555E-2,2.229592577E-2,-3.665083554E-3
1.479439975E1,-1.695101149E-2,3.329117596E-2,-4.886778072E-3
1.480411371E1,-1.084253844E-2,3.206948191E-2,-1.099525020E-2
1.481382694E1,-4.734066315E-3,2.962609194E-2,-1.099525020E-2
1.482353928E1,1.374406274E-3,3.084778599E-2,-9.773556143E-3
1.483325251E1,5.039489828E-3,2.351761982E-2,-7.330167107E-3
1.484296652E1,3.817795310E-3,2.748812549E-3,-3.665083554E-3
1.485267970E1,1.374406274E-3,-1.313321572E-2,1.221694518E-3
1.486239209E1,-3.512371797E-3,-1.557660475E-2,1.221694518E-3
1.487210532E1,-1.068982761E-3,-1.191152167E-2,-1.221694518E-3
1.488181933E1,2.596100792E-3,-9.468132630E-3,-6.108472589E-3
1.489153251E1,3.817795310E-3,-4.581354558E-3,-8.551862091E-3
1.490124485E1,3.817795310E-3,1.527118147E-3,-6.108472589E-3
1.491095813E1,1.527118147E-4,3.054236295E-4,-2.443389036E-3
1.492067209E1,-2.290677279E-3,-4.581354558E-3,3.665083554E-3
1.493038532E1,1.374406274E-3,-3.359660041E-3,6.108472589E-3
1.494009767E1,2.596100792E-3,-2.137965523E-3,8.551862091E-3
1.494981089E1,1.527118147E-4,-3.359660041E-3,8.551862091E-3
1.495952490E1,-1.068982761E-3,-9.162708884E-4,4.886778072E-3
1.496923813E1,1.527118147E-4,2.748812549E-3,4.886778072E-3
1.497895048E1,1.527118147E-4,5.192201585E-3,6.108472589E-3
1.498866371E1,2.596100792E-3,3.970507067E-3,3.665083554E-3
1.499837772E1,6.261184346E-3,2.748812549E-3,1.221694518E-3
1.500809089E1,3.817795310E-3,5.192201585E-3,-2.443389036E-3
1.501780329E1,-2.290677279E-3,1.252236869E-2,-6.108472589E-3
1.502751652E1,-7.177455351E-3,1.740914769E-2,-7.330167107E-3
1.503723053E1,-8.399149403E-3,1.374406368E-2,-6.108472589E-3
1.504694371E1,-8.399149403E-3,1.252236869E-2,-2.443389036E-3
1.505665610E1,-4.734066315E-3,8.857285604E-3,1.221694518E-3
