"Time (s)","Acceleration x (m/s^2)","Acceleration y (m/s^2)","Acceleration z (m/s^2)"
5.198167700E-2,-1.755135417E0,-1.004776096E1,5.286941528E0
6.169454200E-2,-1.544566989E0,-9.980762482E0,5.234000206E0
7.140646900E-2,-1.384247899E0,-9.887442589E0,4.147359848E0
8.111766700E-2,-1.087238789E0,-9.930513382E0,1.875374794E0
9.082969800E-2,-9.723833203E-1,-9.885049820E0,-1.016949654E0
1.005425100E-1,-1.017846942E0,-9.703194618E0,-3.101995468E0
1.102544900E-1,-1.391426325E0,-9.544969559E0,-3.870689631E0
1.199656870E-1,-1.867897153E0,-9.516255379E0,-3.604787350E0
1.296776670E-1,-2.253141642E0,-9.530612946E0,-2.556132793E0
1.393905310E-1,-2.269891262E0,-9.451649666E0,-1.332802176E0
1.491024580E-1,-2.033001900E0,-9.159725189E0,-3.032902777E-1
1.588137080E-1,-1.649851203E0,-8.795717239E0,3.406781256E-1
1.685256870E-1,-1.365105271E0,-8.245068550E0,5.871388316E-1
1.782385000E-1,-1.209272742E0,-7.689634800E0,5.751747489E-1
1.879504790E-1,-1.101595759E0,-7.239484787E0,5.919244885E-1
1.976616770E-1,-1.211665511E0,-6.705586433E0,6.732804775E-1
2.073737080E-1,-1.331605792E0,-6.274878502E0,7.549355626E-1
2.170865210E-1,-1.379462242E0,-5.879763603E0,7.573283911E-1
2.267984480E-1,-1.635494232E0,-5.513362408E0,7.091727853E-1
2.365096980E-1,-2.255534410E0,-5.115854740E0,8.243274093E-1
2.462216770E-1,-2.954836845E0,-4.768895626E0,6.134598851E-1
2.559344900E-1,-3.299403429E0,-4.622933388E0,4.339981973E-1
2.656464690E-1,-3.299403429E0,-4.615755081E0,3.382852972E-1
2.753576670E-1,-3.186940670E0,-4.716253281E0,1.971087605E-1
2.850696980E-1,-3.029014349E0,-4.960321426E0,8.673982322E-2
2.947825100E-1,-2.801397085E0,-5.312365532E0,2.377867550E-1
3.044944370E-1,-2.454437733E0,-5.680860043E0,-5.922235921E-2
3.142056870E-1,-2.042573214E0,-6.102295876E0,-8.132606149E-1
3.239176670E-1,-1.513460279E0,-6.442375660E0,-1.471585870E0
3.336305310E-1,-1.008275628E0,-6.810870647E0,-2.154138565E0
3.433424580E-1,-4.911268353E-1,-7.261020184E0,-3.485146284E0
3.530536560E-1,5.952146277E-2,-7.742276669E0,-5.352445126E0
3.627656870E-1,5.575276613E-1,-8.625826836E0,-7.243971348E0
3.724785000E-1,3.538386524E-1,-1.024187946E1,-9.731310844E0
3.821904270E-1,-4.121637046E-1,-1.200150108E1,-1.242233849E1
3.919016770E-1,-1.609173268E-1,-1.239870930E1,-1.361217022E1
4.016136560E-1,1.600200087E-1,-1.350957775E1,-1.365524101E1
4.113265210E-1,2.198405862E-1,-1.454148197E1,-1.264008522E1
4.210384480E-1,-2.662015259E-1,-1.419691563E1,-1.041356373E1
4.307496460E-1,-1.022632599E0,-1.311954784E1,-8.172685623E0
4.404616770E-1,-1.389033556E0,-1.200867939E1,-6.484848499E0
4.501744900E-1,-1.427318692E0,-1.166620636E1,-5.316552639E0
4.598864690E-1,-1.702493310E0,-1.211157131E1,-4.691727161E0
4.695976670E-1,-1.810469389E0,-1.260479164E1,-3.499503136E0
4.793096460E-1,-1.113559842E0,-1.244447231E1,-1.826022744E0
4.890225100E-1,1.048355460E0,-1.218335533E1,-1.395015597E0
4.987344370E-1,2.879761934E0,-1.243011570E1,-1.579562068E0
5.084456350E-1,2.886940479E0,-1.272443295E1,-2.038984060E0
5.181576670E-1,1.938784599E0,-1.222403336E1,-3.652643681E0
5.278704790E-1,-8.670991063E-1,-1.072522926E1,-3.559323788E0
5.375824580E-1,-3.976871252E0,-9.133403778E0,-2.048555374E0
5.472936560E-1,-5.523531914E0,-8.963214874E0,1.085145116E0
5.570056350E-1,-6.174678802E0,-8.450851440E0,3.371487141E0
5.667185000E-1,-5.372784138E0,-8.015357971E0,2.729911566E0
5.764304270E-1,-4.170989037E0,-7.732705593E0,1.571187139E0
5.861416250E-1,-3.692125320E0,-7.402495861E0,1.188036442E0
5.958536560E-1,-4.010370731E0,-6.849454880E0,8.602197170E-1
6.055664690E-1,-4.462913513E0,-6.365805626E0,4.268197417E-1
6.152784480E-1,-4.369593143E0,-6.492625237E0,-3.535395563E-1
6.249896460E-1,-3.478864908E0,-7.045666218E0,-1.435693622E0
6.347016250E-1,-2.128714800E0,-7.426424026E0,-1.747059584E0
6.444144900E-1,-1.036989570E0,-7.960322857E0,-1.541276932E0
6.541264170E-1,-4.671986103E-1,-8.664112091E0,-1.057627559E0
6.638376670E-1,-3.954139352E-1,-9.449256897E0,-5.596213937E-1
6.735496460E-1,-7.139584422E-1,-1.007647514E1,-4.351946115E-1
6.832624580E-1,-1.135095239E0,-1.054098225E1,-7.414759398E-1
6.929744370E-1,-1.420140266E0,-1.063908768E1,-7.558328509E-1
7.026856350E-1,-1.245165110E0,-1.065583706E1,-7.247261405E-1
7.123976150E-1,-1.204487085E0,-1.057687473E1,-6.505486369E-1
7.221104790E-1,-6.924230456E-1,-1.056730270E1,-1.357926875E-1
7.318224060E-1,-1.441675574E-1,-1.060319519E1,4.962115884E-1
7.415336560E-1,6.173482537E-1,-1.065105152E1,1.255035520E0
7.512456350E-1,1.117747307E0,-1.043091202E1,1.367797256E0
7.609585000E-1,1.223031521E0,-1.023470020E1,7.402794957E-1
7.706704270E-1,9.738788009E-1,-9.949655533E0,6.041877344E-2
7.803816250E-1,4.546363056E-1,-9.657731056E0,-3.008974493E-1
7.900936560E-1,-1.369891018E-1,-9.305686951E0,-5.141577721E-1
7.998064690E-1,-7.067800164E-1,-8.869894028E0,-6.864410043E-1
8.095184480E-1,-1.242772222E0,-8.486743927E0,-7.606185079E-1
8.192296460E-1,-1.499103427E0,-8.190033913E0,-7.223333120E-1
8.289416250E-1,-1.680957913E0,-7.885846138E0,-5.141577721E-1
8.386544900E-1,-2.001895189E0,-7.668099403E0,-2.530409992E-1
8.483664690E-1,-2.351247311E0,-7.689634800E0,-2.578266263E-1
8.580776670E-1,-2.418545485E0,-7.962715626E0,-4.088735580E-1
8.677896460E-1,-2.174178362E0,-8.240283012E0,-1.094716340E-1
8.775025100E-1,-1.616351724E0,-8.671290398E0,1.704886109E-1
8.872144370E-1,-9.125627279E-1,-9.207581520E0,2.452643216E-2
8.969256350E-1,-6.083751321E-1,-9.537791252E0,-2.865405083E-1
9.066376670E-1,-4.073780477E-1,-9.844371796E0,-5.931209326E-1
9.163504790E-1,-3.619144261E-1,-1.010758209E1,-7.630113363E-1
9.260624580E-1,-6.346961856E-1,-1.018205833E1,-8.563314080E-1
9.357736560E-1,-1.154237866E0,-1.006690407E1,-9.738788009E-1
9.454856870E-1,-1.716850281E0,-9.844371796E0,-1.253839016E0
9.551985000E-1,-2.111965179E0,-9.700801849E0,-1.318445325E0
9.649104790E-1,-2.356033087E0,-9.518648148E0,-1.052842021E0
9.746216770E-1,-2.377867460E0,-9.518648148E0,-7.271189690E-1
9.843336560E-1,-1.805384636E0,-9.739087105E0,-6.290132403E-1
9.940465210E-1,-8.814560175E-1,-9.932906151E0,-5.691927075E-1
1.003758500E0,1.405783277E-2,-1.017458057E1,-2.291127741E-1
1.013469698E0,6.149554253E-1,-1.048116112E1,6.206383705E-1
1.023181677E0,8.398807645E-1,-1.075663471E1,1.975873351E0
1.032894542E0,5.144568682E-1,-1.086670494E1,3.153740168E0
1.042606469E0,-1.489532143E-1,-1.075902748E1,3.342773199E0
1.052317719E0,-7.474579811E-1,-1.062951660E1,2.653341293E0
1.062029698E0,-1.022632599E0,-1.046441174E1,1.592722535E0
1.071742562E0,-1.154237866E0,-1.039980507E1,1.345962733E-1
1.081454490E0,-1.180558920E0,-1.049551868E1,-1.715952992E0
1.091165740E0,-1.065703392E0,-1.137428284E1,-2.922533751E0
1.100877719E0,-1.053739309E0,-1.261675549E1,-2.055733681E0
1.110590583E0,-1.206879973E0,-1.369651699E1,4.845465720E-2
1.120302510E0,-1.278963685E0,-1.455105400E1,8.123632669E-1
1.130013760E0,-1.534995675E0,-1.487916946E1,9.272187948E-1
1.139725740E0,-2.052144527E0,-1.490070438E1,1.875374764E-1
1.149438604E0,-2.411366940E0,-1.497727489E1,-1.866700768E0
1.159150531E0,-2.825325251E0,-1.465394497E1,-4.150650024E0
1.168861781E0,-3.249154091E0,-1.404347610E1,-5.831308842E0
1.178573760E0,-3.337688446E0,-1.336600780E1,-6.872784615E0
1.188286625E0,-3.172583818E0,-1.278664589E1,-6.899106026E0
1.197998604E0,-2.698505640E0,-1.236760330E1,-5.458028316E0
1.207709802E0,-2.341675997E0,-1.209242821E1,-3.339184046E0
1.217421781E0,-2.202892303E0,-1.169013500E1,-2.005484581E0
1.227134646E0,-2.262712955E0,-1.119691467E1,-3.702892959E-1
1.236846625E0,-2.514258385E0,-1.066780186E1,1.197607756E0
1.246557823E0,-2.631506681E0,-1.026580715E1,2.322832584E0
1.256269854E0,-2.906681299E0,-9.983155251E0,2.679662228E0
1.265982667E0,-3.306581736E0,-9.825228691E0,2.617448807E0
1.275694646E0,-3.742374659E0,-9.820443153E0,2.380260229E0
1.285405844E0,-3.862015724E0,-1.003340435E1,2.236690998E0
1.295117875E0,-3.323331594E0,-1.030409241E1,2.054836512E0
1.304830687E0,-2.188535452E0,-1.037109184E1,1.853540182E0
1.314542667E0,-8.814560175E-1,-1.065822983E1,1.324726462E0
1.324253865E0,-2.662015148E-2,-1.103420258E1,7.956135273E-1
1.333965896E0,-1.728814393E-1,-1.106770229E1,3.741776347E-1
1.343678760E0,-1.226022482E0,-1.071805096E1,-2.386840582E-1
1.353390687E0,-2.320140600E0,-1.026819992E1,-1.127019525E0
1.363101937E0,-3.292224884E0,-9.815657616E0,-1.950449586E0
1.372813917E0,-3.706482172E0,-9.602396965E0,-2.096710920E0
1.382526781E0,-3.656233072E0,-9.430113792E0,-1.950449586E0
1.392238708E0,-3.107977629E0,-9.308079720E0,-1.871486425E0
1.401949958E0,-2.387438774E0,-9.245866776E0,-1.744666815E0
1.411661990E0,-1.894218206E0,-9.013463974E0,-1.627418518E0
1.421374802E0,-1.508674622E0,-8.726325035E0,-1.548455358E0
1.431086781E0,-1.329213023E0,-8.417351723E0,-1.277767301E0
1.440797979E0,-1.317248821E0,-8.034500122E0,-8.898309469E-1
1.450510010E0,-1.563709617E0,-7.558029652E0,-5.548357368E-1
1.460222875E0,-1.906182289E0,-7.033702374E0,-2.865405083E-1
1.469934802E0,-2.317747831E0,-6.528517246E0,-4.486542568E-2
1.479646052E0,-2.693720102E0,-6.030511379E0,4.366901144E-2
1.489358031E0,-2.844467878E0,-5.616253853E0,-4.187439568E-3
1.499070896E0,-2.861217737E0,-5.298008442E0,-1.142572835E-1
1.508782875E0,-2.760719061E0,-5.128118038E0,-1.884347796E-1
1.518494073E0,-2.708076954E0,-4.941178799E0,-2.147558331E-1
1.528206104E0,-2.794218540E0,-4.823930264E0,-2.937189937E-1
1.537918917E0,-2.918645382E0,-4.766502857E0,-3.777668774E-1
1.547630896E0,-3.076870918E0,-4.840680122E0,-3.777668774E-1
1.557342146E0,-3.093620539E0,-5.065605640E0,-4.998008311E-1
1.567054125E0,-2.983550787E0,-5.319543839E0,-7.031907439E-1
1.576766990E0,-2.808575630E0,-5.613861084E0,-1.019342422E0
1.586478917E0,-2.464009047E0,-5.867799282E0,-1.476371527E0
1.596190167E0,-2.049751759E0,-6.154938221E0,-2.091925144E0
1.605902198E0,-1.489532113E0,-6.547659874E0,-3.092424154E0
1.615615010E0,-8.958129883E-1,-7.093522549E0,-4.184149265E0
1.625326990E0,-3.068794906E-1,-7.914559841E0,-5.352445126E0
1.635038240E0,8.344969153E-2,-9.104690552E0,-6.669394970E0
1.644750219E0,4.516452923E-2,-1.010279655E1,-8.002795219E0
1.654463083E0,-8.883354068E-2,-1.064865875E1,-9.934999466E0
1.664175062E0,-1.561316848E-1,-1.138385391E1,-1.166112232E1
1.673886260E0,-1.465603858E-1,-1.209482098E1,-1.157707405E1
1.683598292E0,-2.991028305E-4,-1.264786243E1,-1.028913784E1
1.693311156E0,-2.422732860E-2,-1.317697525E1,-8.860024452E0
1.703023083E0,-2.853440940E-1,-1.320329666E1,-7.220043182E0
1.712734333E0,-5.557330847E-1,-1.258804131E1,-5.742774487E0
1.722446312E0,-4.073780477E-1,-1.182652569E1,-5.529813290E0
1.732159177E0,-1.609173268E-1,-1.098873901E1,-5.563312531E0
1.741871156E0,-3.308077157E-1,-1.032323551E1,-4.701298237E0
1.751582354E0,-1.068096161E0,-1.070847988E1,-4.521836758E0
1.761294385E0,-1.846361756E0,-1.094566822E1,-2.781357288E0
1.771007250E0,-2.217249393E0,-1.087866879E1,-7.271189690E-1
1.780719177E0,-1.403390527E0,-1.103898811E1,-1.088734269E0
1.790430427E0,-3.044866920E-1,-1.105095196E1,-2.774178743E0
1.800142458E0,-5.533402413E-2,-1.093848991E1,-4.969593525E0
1.809855271E0,-8.910273314E-1,-1.069890785E1,-6.317350864E0
1.819567250E0,-3.091227770E0,-1.028973579E1,-5.582455158E0
1.829278448E0,-4.383950233E0,-9.863513947E0,-4.452444553E0
1.838990479E0,-4.312165737E0,-9.779765129E0,-1.957628012E0
1.848703344E0,-4.099204063E0,-1.028255749E1,2.085943222E0
1.858415323E0,-3.433401346E0,-1.027537823E1,4.032205105E0
1.868126521E0,-2.674577475E0,-9.849157333E0,3.290131092E0
1.877838552E0,-2.483151674E0,-9.095118523E0,1.396511078E0
1.887551417E0,-2.928216696E0,-8.154141426E0,-5.237290859E-1
1.897263344E0,-3.826123476E0,-7.225128174E0,-1.567597985E0
1.906974594E0,-4.472484589E0,-6.674479485E0,-1.313659668E0
1.916686573E0,-4.637888432E0,-6.916453838E0,-8.826524615E-1
1.926399437E0,-4.060919285E0,-7.526922703E0,-8.276175261E-1
1.936111417E0,-2.988336325E0,-7.847560883E0,-4.423730969E-1
1.945822615E0,-2.121536493E0,-8.288139343E0,2.521436810E-1
1.955534646E0,-1.568495274E0,-8.740681648E0,5.344967842E-1
1.965247510E0,-1.202094316E0,-8.977571487E0,2.042872310E-1
1.974959490E0,-9.628120065E-1,-9.121439934E0,-4.663013220E-1
1.984670687E0,-7.666005492E-1,-9.214759827E0,-1.203589797E0
1.994382719E0,-7.115656137E-1,-9.446864128E0,-1.522134304E0
2.004095583E0,-6.251249313E-1,-9.868299484E0,-8.635098934E-1
2.013807510E0,-5.294120312E-1,-1.039023399E1,-2.961117923E-1
2.023518760E0,-2.997010350E-1,-1.071087265E1,-6.161518395E-2
2.033230740E0,-8.165507019E-2,-1.085234833E1,1.393819153E-1
2.042943604E0,2.602194622E-2,-1.085713387E1,1.495514158E-2
2.052655583E0,8.823533356E-2,-1.061037350E1,-8.491529226E-1
2.062366833E0,2.123630047E-2,-1.027537823E1,-1.498206019E0
2.072078812E0,-2.422732860E-1,-1.003579712E1,-1.172483087E0
2.081791677E0,-3.882354796E-1,-9.952048302E0,-4.591228366E-1
2.091503656E0,-1.800599098E-1,-9.952048302E0,-1.615155302E-2
2.101214854E0,2.602194622E-2,-9.784550667E0,2.258226424E-1
2.110926885E0,-9.601201117E-2,-9.523433685E0,9.391828626E-2
2.120639750E0,-2.997010350E-1,-9.300901413E0,-1.812563092E-1
2.130351677E0,-3.379862010E-1,-9.119047165E0,-2.051845491E-1
2.140062927E0,-3.786641955E-1,-9.087940216E0,-3.050848842E-2
2.149774958E0,-6.586244106E-1,-9.054141998E0,3.837489188E-1
2.159487823E0,-8.647062778E-1,-8.912964821E0,7.187440991E-1
2.169199750E0,-8.407780528E-1,-8.891429901E0,6.349952817E-1
2.178911000E0,-8.910273314E-1,-8.822037697E0,3.741776347E-1
2.188622979E0,-9.221340418E-1,-8.685647011E0,1.154536903E-1
2.198335844E0,-8.742775917E-1,-8.664112091E0,-2.171486616E-1
2.208047823E0,-8.383852243E-1,-8.860322952E0,-3.463610709E-1
2.217759021E0,-8.024929166E-1,-9.099904060E0,-3.969094455E-1
2.227471052E0,-8.910273314E-1,-9.274580956E0,-6.002993584E-1
2.237183917E0,-1.087238789E0,-9.518648148E0,-9.065806866E-1
2.246895896E0,-1.274178028E0,-9.664909363E0,-1.210768223E0
2.256607094E0,-1.386640668E0,-9.758230209E0,-1.414158225E0
2.266319125E0,-1.434497118E0,-9.858728409E0,-1.526919961E0
2.276031990E0,-1.389033556E0,-9.916155815E0,-1.450050473E0
2.285743917E0,-1.266999602E0,-9.961619377E0,-1.244267821E0
2.295455167E0,-1.101595759E0,-9.913763046E0,-1.091127157E0
2.305167146E0,-9.388837814E-1,-9.688838005E0,-1.007378340E0
2.314880010E0,-9.460622668E-1,-9.427721024E0,-6.744768620E-1
2.324591990E0,-1.118345499E0,-9.377471924E0,-9.990034252E-2
2.334303187E0,-1.384247899E0,-9.432506561E0,1.010967568E-1
2.344015219E0,-1.654636860E0,-9.437292099E0,-9.511470050E-2
2.353728083E0,-1.599601984E0,-9.442078590E0,-4.854438901E-1
2.363440062E0,-1.070489049E0,-9.528220177E0,-5.787639618E-1
2.373151260E0,-4.289134443E-1,-9.662516594E0,7.477571070E-2
2.382863292E0,-7.926224917E-2,-9.755837440E0,1.032503009E0
2.392576156E0,1.911267042E-1,-1.004058266E1,1.916052699E0
2.402288135E0,3.969094455E-1,-1.032802105E1,2.502593279E0
2.411999333E0,5.264210105E-1,-1.048833942E1,2.483450890E0
2.421711365E0,6.221339107E-1,-1.077817059E1,1.975873351E0
2.431424229E0,6.484549642E-1,-1.089063358E1,1.295713425E0
2.441136156E0,4.280161560E-1,-1.105334473E1,3.334996700E-1
2.450847406E0,-3.379862010E-2,-1.203021526E1,-6.170491576E-1
2.460559385E0,-6.490531564E-1,-1.341625786E1,-8.922237158E-1
2.470272250E0,-1.398604870E0,-1.282971668E1,-4.064807594E-1
2.479984229E0,-1.791027784E0,-1.293739414E1,-5.524429083E-1
2.489695479E0,-2.214856386E0,-1.316740417E1,-1.239482164E0
2.499407458E0,-2.598007202E0,-1.304058456E1,-2.048555374E0
2.509120323E0,-2.827718258E0,-1.303340626E1,-2.939283609E0
2.518832302E0,-2.844467878E0,-1.330858040E1,-3.425325632E0
2.528543500E0,-2.645863533E0,-1.349761391E1,-3.554538012E0
2.538255531E0,-2.224427700E0,-1.359362507E1,-3.841975927E0
2.547968396E0,-1.700100541E0,-1.366541004E1,-4.387838364E0
2.557680323E0,-1.360319614E0,-1.350479221E1,-4.830510616E0
2.567391573E0,-1.255035520E0,-1.309083366E1,-4.773082733E0
2.577103604E0,-1.398604870E0,-1.257129192E1,-4.196113586E0
2.586816469E0,-1.882254124E0,-1.204696465E1,-3.604787350E0
2.596528396E0,-2.617149830E0,-1.151785183E1,-2.644966364E0
2.606239646E0,-3.332902908E0,-1.115862942E1,-1.418943882E0
2.615951625E0,-3.672982693E0,-1.083081245E1,-2.985046208E-1
2.625664490E0,-3.723232031E0,-1.048833942E1,9.272187948E-1
2.635376469E0,-3.608376503E0,-1.038305569E1,1.949552298E0
2.645087719E0,-3.459722519E0,-1.023470020E1,2.440380096E0
2.654799698E0,-3.313760281E0,-1.007408237E1,2.701197624E0
2.664512562E0,-3.043371201E0,-1.000947666E1,3.098705292E0
2.674224542E0,-2.736790895E0,-1.002144051E1,3.728316784E0
2.683935740E0,-2.432902336E0,-1.012193871E1,4.041776657E0
2.693647771E0,-2.181356907E0,-1.015543842E1,3.491128206E0
2.703360635E0,-1.657029629E0,-1.007408237E1,1.695613980E0
2.713072562E0,-1.439282775E0,-9.774979591E0,-7.462615371E-1
2.722783812E0,-1.489532113E0,-9.322437286E0,-2.623430967E0
2.732495844E0,-1.769492388E0,-9.032606125E0,-3.367897987E0
2.742208708E0,-2.052144527E0,-8.709575653E0,-3.257827997E0
2.751920635E0,-2.059323072E0,-8.491529465E0,-2.666501760E0
2.761631885E0,-1.860718727E0,-8.400602341E0,-1.964806437E0
2.771343865E0,-1.680957913E0,-8.402995110E0,-1.404586911E0
2.781056729E0,-1.609173179E0,-8.426922798E0,-9.523434043E-1
2.790768708E0,-1.544566989E0,-8.123034477E0,-4.375874400E-1
2.800479958E0,-1.441675663E0,-7.816454411E0,-1.645065546E-1
2.810191937E0,-1.396211982E0,-7.447959423E0,-6.161518395E-2
2.819904802E0,-1.159023523E0,-6.983452797E0,-1.615155302E-2
2.829616781E0,-1.089631557E0,-6.643373013E0,5.563312769E-2
2.839327979E0,-1.175773263E0,-6.346662998E0,1.274178028E-1
2.849040010E0,-1.465603828E0,-6.030511379E0,1.226321608E-1
2.858752875E0,-1.915753603E0,-5.743372440E0,-2.572284266E-2
2.868464802E0,-2.497508526E0,-5.482255936E0,-2.075773627E-1
2.878176052E0,-2.952444077E0,-5.312365532E0,-4.136592150E-1
2.887888083E0,-3.308974504E0,-5.211866856E0,-6.385845542E-1
2.897600896E0,-3.615555048E0,-5.252544880E0,-8.467600942E-1
2.907312875E0,-3.668197155E0,-5.443970680E0,-9.834501147E-1
2.917024125E0,-3.435794115E0,-5.817550182E0,-9.882357717E-1
2.926736104E0,-3.057728291E0,-6.279664040E0,-9.233304262E-1
2.936448969E0,-2.633899450E0,-6.760621071E0,-9.571290612E-1
2.946160948E0,-2.265105724E0,-7.150950432E0,-1.071984529E0
2.955872146E0,-2.049751759E0,-7.447959423E0,-1.466800332E0
2.965584177E0,-1.910967946E0,-7.744669437E0,-2.137388945E0
2.975297042E0,-1.702493310E0,-8.161319733E0,-3.631108284E0
2.985008969E0,-1.283749342E0,-8.750253677E0,-6.037390709E0
2.994720219E0,-7.833502889E-1,-9.434899330E0,-8.804988861E0
3.004432250E0,-3.475574851E-1,-1.030409241E1,-1.140000534E1
3.014145115E0,5.359922647E-1,-1.170209885E1,-1.309741402E1
3.023857042E0,1.450349569E0,-1.292064381E1,-1.311416340E1
3.033568292E0,2.039283037E0,-1.399322701E1,-1.190518951E1
3.043280271E0,2.046461582E0,-1.439312744E1,-1.010728264E1
3.052993135E0,1.275673628E0,-1.409611797E1,-8.766405106E0
3.062705115E0,4.037888348E-2,-1.307408428E1,-8.457730293E0
3.072416312E0,-1.300499082E0,-1.179302597E1,-8.093722343E0
3.082128344E0,-2.195713997E0,-1.085713387E1,-6.401099682E0
3.091841208E0,-2.703291416E0,-1.046680450E1,-3.978366852E0
3.101553187E0,-3.232404232E0,-1.076381397E1,-2.178066730E0
3.111264385E0,-3.507878065E0,-1.072044373E1,-6.864410043E-1
3.120976417E0,-3.139084101E0,-1.020120144E1,4.606183618E-2
3.130689281E0,-1.707278967E0,-9.696016312E0,-2.482553422E-1
3.140401208E0,-3.738785386E-1,-9.822835922E0,-9.810572863E-1
3.150112458E0,4.351946115E-1,-9.961619377E0,-2.393420935E0
3.159824437E0,7.058826685E-1,-9.760622978E0,-4.390231133E0
3.169537302E0,-2.733799815E-1,-9.727123260E0,-6.113960743E0
3.179249281E0,-2.080858469E0,-9.449256897E0,-6.027819157E0
3.188960531E0,-2.844467878E0,-9.078369141E0,-5.438885689E0
3.198672510E0,-4.058526516E0,-9.648159981E0,-2.036591291E0
3.208385375E0,-4.572983265E0,-1.012911701E1,2.196012974E0
3.218097354E0,-4.216452599E0,-9.971191406E0,3.491128206E0
3.227808552E0,-3.450151205E0,-9.533005714E0,2.521735907E0
3.237520583E0,-2.873181820E0,-8.991928101E0,1.046859860E0
3.247233448E0,-2.913859844E0,-8.187641144E0,-7.357929647E-2
3.256945375E0,-3.234797001E0,-7.407281399E0,-7.223333120E-1
3.266656625E0,-3.134298563E0,-7.359126091E0,-6.744768620E-1
3.276368656E0,-2.339283228E0,-7.921738625E0,-4.486542568E-2
3.286081469E0,-1.539781332E0,-8.312067986E0,7.788637877E-1
3.295793448E0,-9.795617461E-1,-8.628219604E0,1.547258973E0
3.305504698E0,-7.378866673E-1,-8.977571487E0,1.721935034E0
3.315216677E0,-6.155536175E-1,-9.224330902E0,1.128215909E0
3.324929542E0,-7.283154130E-1,-9.276973724E0,1.393819153E-1
3.334641521E0,-1.228415370E0,-9.219545364E0,-8.371888399E-1
3.344352719E0,-1.563709617E0,-9.260223389E0,-1.471585870E0
3.354064750E0,-1.939681888E0,-9.439684868E0,-1.442872047E0
3.363777615E0,-2.056930065E0,-9.863513947E0,-6.672984362E-1
3.373489542E0,-2.006680965E0,-1.020120144E1,-3.849453330E-1
3.383200792E0,-1.747956991E0,-1.044048309E1,-4.040879309E-1
3.392912823E0,-1.202094316E0,-1.064387321E1,-5.213362575E-1
3.402625635E0,-5.270192027E-1,-1.074706364E1,-5.763711333E-1
3.412337615E0,-3.858426586E-2,-1.078295612E1,-5.452644825E-1
3.422048865E0,2.533400953E-1,-1.071565819E1,-5.644070506E-1
3.431760844E0,3.514458239E-1,-1.050269699E1,-5.835496187E-1
3.441473708E0,2.940180898E-1,-1.017697334E1,-5.333003402E-1
3.451185687E0,1.576271951E-1,-9.818050385E0,-4.112663865E-1
3.460896885E0,2.602194622E-2,-9.427721024E0,-2.793620527E-1
3.470608917E0,-1.345962733E-1,-9.071190834E0,-3.152543902E-1
3.480321781E0,-2.709871531E-1,-8.812466621E0,-3.945166469E-1
3.490033760E0,-4.671986103E-1,-8.716753960E0,-3.969094455E-1
3.499744958E0,-7.905287743E-1,-8.759824753E0,-2.889333367E-1
3.509456990E0,-9.939187169E-1,-8.984749794E0,-1.501496136E-1
3.519169854E0,-8.599206209E-1,-9.119047165E0,-9.511470050E-2
3.528881781E0,-5.150550604E-1,-9.209974289E0,-1.549352705E-1
3.538593031E0,-1.680957973E-1,-9.346364975E0,-2.171486616E-1
3.548305062E0,2.093719784E-3,-9.487542152E0,-3.176472187E-1
3.558017875E0,-6.729813665E-2,-9.727123260E0,-5.237290859E-1
3.567729854E0,-3.834498227E-1,-9.631410599E0,-5.715855360E-1
3.577441104E0,-7.307082415E-1,-9.571290970E0,-5.835496187E-1
3.587153083E0,-1.094417214E0,-9.525827408E0,-6.409773827E-1
3.596865948E0,-1.448854089E0,-9.437292099E0,-8.659027219E-1
3.606577927E0,-1.810469389E0,-9.387042999E0,-1.265803218E0
3.616289177E0,-2.004287958E0,-9.343972206E0,-1.567597985E0
3.626001156E0,-1.908575177E0,-9.336793900E0,-1.560419440E0
3.635714021E0,-1.570888042E0,-9.473184586E0,-1.160519004E0
3.645426000E0,-1.048953652E0,-9.686445236E0,-4.950151742E-1
3.655137198E0,-3.906283081E-1,-9.906584740E0,-4.187439568E-3
3.664849229E0,2.198405862E-1,-1.009083176E1,3.047857881E-1
3.674562094E0,5.168496966E-1,-1.019880867E1,4.938187599E-1
3.684274073E0,3.346960545E-1,-1.016979504E1,3.646063507E-1
3.693985271E0,-1.322034448E-1,-9.875477791E0,2.991028363E-3
3.703697302E0,-6.634100676E-1,-9.494720459E0,-4.806582630E-1
3.713410167E0,-9.125627279E-1,-9.332008362E0,-4.088735580E-1
3.723122146E0,-9.891330600E-1,-9.485149384E0,7.211369276E-1
3.732833344E0,-1.017846942E0,-9.904191971E0,2.071586132E0
3.742545375E0,-6.586244106E-1,-1.021077251E1,2.741875648E0
3.752258240E0,-2.111666054E-1,-1.047159004E1,2.622234583E0
3.761970167E0,3.107678294E-1,-1.043330479E1,1.631007791E0
3.771681417E0,9.690931439E-1,-1.042851925E1,1.010967568E-1
3.781393448E0,1.158425212E0,-1.132642555E1,-1.473978758E0
3.791106312E0,5.479564071E-1,-1.270768261E1,-1.818844318E0
3.800818240E0,-5.102694035E-1,-1.265504074E1,-1.438086390E0
3.810529490E0,-1.166201949E0,-1.294457245E1,-2.302493572E0
3.820241521E0,-1.771885157E0,-1.322004604E1,-3.365504980E0
3.829954385E0,-2.636292458E0,-1.306211948E1,-3.554538012E0
3.839666312E0,-3.632304668E0,-1.244447231E1,-3.647858143E0
3.849377562E0,-4.858027935E0,-1.224078369E1,-3.789333820E0
3.859089594E0,-5.683851242E0,-1.193450165E1,-3.758227110E0
3.868802458E0,-5.415854931E0,-1.187228870E1,-4.275076866E0
3.878514437E0,-4.345664978E0,-1.215464211E1,-4.785047054E0
3.888225635E0,-3.127120018E0,-1.240349483E1,-4.607978344E0
3.897937667E0,-1.954038739E0,-1.252343559E1,-3.856332779E0
3.907650531E0,-1.036989570E0,-1.251147175E1,-3.046960592E0
3.917362510E0,-7.187440991E-1,-1.230299664E1,-2.352742910E0
3.927073708E0,-7.905287743E-1,-1.203739357E1,-1.766202211E0
3.936785740E0,-1.180558920E0,-1.173320580E1,-1.021735311E0
3.946498604E0,-1.980359793E0,-1.146520996E1,-9.032905847E-2
3.956210583E0,-2.820539713E0,-1.125434208E1,8.865407705E-1
3.965921833E0,-3.507878065E0,-1.091216850E1,1.379761338E0
3.975633812E0,-3.962514400E0,-1.047876835E1,1.360618830E0
3.985346677E0,-3.952943087E0,-1.030409241E1,1.389332652E0
3.995058656E0,-3.967299938E0,-1.014586735E1,1.975873351E0
4.004769906E0,-4.362414837E0,-1.005972576E1,2.811267614E0
4.014481937E0,-4.654638290E0,-1.007647514E1,3.034099102E0
4.024194802E0,-4.482056141E0,-9.494720459E0,2.478665113E0
4.033906781E0,-3.804588079E0,-9.672088623E0,8.626125455E-1
4.043617979E0,-2.889931440E0,-9.576076508E0,-1.186840057E0
4.053330010E0,-2.035394669E0,-9.119047165E0,-2.414956331E0
4.063042875E0,-1.281356573E0,-8.857930183E0,-2.568096876E0
4.072754854E0,-6.107679605E-1,-8.975178719E0,-2.254637241E0
4.082466104E0,-2.685943544E-1,-9.260223389E0,-1.742274046E0
4.092178135E0,-3.092723191E-1,-9.293723106E0,-1.304088354E0
4.101891000E0,-6.011967063E-1,-8.903393745E0,-1.016949654E0
4.111602927E0,-8.240283132E-1,-8.383852005E0,-9.690931439E-1
4.121314177E0,-1.113559842E0,-7.821239948E0,-8.994022012E-1
4.131026208E0,-1.298106313E0,-7.294519901E0,-8.084749579E-1
4.140739073E0,-1.365105271E0,-6.815955162E0,-8.060821295E-1
4.150451052E0,-1.458425403E0,-6.382555485E0,-8.874381185E-1
4.160162302E0,-1.513460279E0,-6.035296917E0,-9.379864931E-1
4.169874333E0,-1.575673699E0,-5.740979671E0,-9.595218897E-1
4.179587198E0,-1.625923038E0,-5.496612549E0,-1.007378340E0
4.189299177E0,-1.894218206E0,-5.250152111E0,-1.050449133E0
4.199010427E0,-2.186142683E0,-5.156831741E0,-1.028913736E0
4.208722406E0,-2.382653236E0,-5.221437931E0,-9.475577474E-1
4.218435323E0,-2.514258385E0,-5.408078194E0,-1.004985452E0
4.228147302E0,-2.576471806E0,-5.606682777E0,-1.220339537E0
4.237858500E0,-2.552543640E0,-5.884549141E0,-1.430907965E0
4.247570531E0,-2.550150633E0,-6.229115486E0,-1.485942841E0
4.257283396E0,-2.490330219E0,-6.652944088E0,-1.447657704E0
4.266995375E0,-2.454437733E0,-7.074379921E0,-1.462014675E0
4.276706625E0,-2.631506681E0,-7.141379356E0,-2.091925144E0
4.286418656E0,-3.048156977E0,-7.100701332E0,-3.746263027E0
4.296131521E0,-3.299403429E0,-7.842775345E0,-6.446563244E0
4.305843500E0,-3.043371201E0,-9.286544800E0,-9.704989433E0
4.315554750E0,-2.190928221E0,-9.765408516E0,-1.295384407E1
4.325266781E0,-5.772684813E-1,-1.105334473E1,-1.443829155E1
4.334979698E0,1.055533886E0,-1.233888912E1,-1.356909943E1
4.344691625E0,1.965105653E0,-1.271725368E1,-1.133779144E1
4.354402875E0,2.156830549E0,-1.286321640E1,-8.991629601E0
4.364114906E0,1.380957723E0,-1.295653629E1,-6.860820770E0
4.373827823E0,3.777668774E-1,-1.299751377E1,-4.447659016E0
4.383539802E0,-8.694919348E-1,-1.329183102E1,-2.123031855E0
4.393251052E0,-1.496710539E0,-1.313868999E1,-9.990034252E-2
4.402963083E0,-1.501496196E0,-1.230299664E1,1.781755567E0
4.412675948E0,-6.227321029E-1,-1.104855919E1,2.341975212E0
4.422387927E0,8.542376757E-1,-1.057926750E1,8.195417523E-1
4.432099177E0,1.744965911E0,-1.059123135E1,-2.144567251E0
4.441811208E0,2.106282234E0,-1.026341438E1,-6.171388626E0
4.451524073E0,8.949156404E-1,-1.028734303E1,-9.338588715E0
4.461236052E0,-1.594816327E0,-1.015304565E1,-9.326624870E0
4.470947302E0,-3.373580933E0,-9.818050385E0,-5.556134224E0
4.480659333E0,-5.348855972E0,-9.774979591E0,3.170489892E-2
4.490372250E0,-5.691029549E0,-1.005733299E1,3.421736479E0
4.500084229E0,-5.049454212E0,-9.442078590E0,3.783351660E0
4.509795479E0,-4.237987995E0,-8.644968987E0,2.246262312E0
4.519507510E0,-3.742374659E0,-7.857132435E0,-2.333002165E-2
4.529220375E0,-3.778266907E0,-7.138986588E0,-1.938485503E0
4.538932406E0,-4.077668667E0,-6.954739094E0,-2.647359133E0
4.548643656E0,-4.031906128E0,-7.720741272E0,-1.756630898E0
4.558355687E0,-3.203690529E0,-8.747860909E0,1.561316848E-1
4.568068552E0,-2.171785593E0,-9.382257462E0,1.810469389E0
4.577780531E0,-1.310070395E0,-1.008843899E1,2.011765718E0
4.587491781E0,-1.182951689E0,-1.002383327E1,1.266999602E0
4.597203917E0,-1.666600943E0,-9.413364410E0,-3.290131316E-2
4.606916729E0,-2.265105724E0,-8.939286232E0,-1.234696507E0
4.616628708E0,-2.528615236E0,-8.812466621E0,-1.536491275E0
4.626339958E0,-2.164607286E0,-9.090332985E0,-9.329017401E-1
4.636052094E0,-1.427318692E0,-9.600004196E0,5.084748194E-2
4.645764906E0,-5.557330847E-1,-1.019880867E1,6.876373887E-1
4.655476885E0,2.940180898E-1,-1.065583706E1,6.182455420E-1
4.665188135E0,7.680960894E-1,-1.087149048E1,-1.118644550E-1
4.674900271E0,8.087740541E-1,-1.078534889E1,-6.529414654E-1
4.684613083E0,7.489534616E-1,-1.082602692E1,-7.534400225E-1
4.694325062E0,4.642075896E-1,-1.065583706E1,-6.984050870E-1
4.704036365E0,2.318046987E-1,-1.045005512E1,-3.391826153E-1
4.713748396E0,2.820539773E-1,-1.030887794E1,-2.333002165E-2
4.723461260E0,4.016951025E-1,-1.015543842E1,1.489532143E-1
4.733173292E0,5.527420044E-1,-9.894620895E0,2.213360928E-2
4.742884542E0,5.886343718E-1,-9.657731056E0,-8.554340899E-2
4.752596573E0,5.000999570E-1,-9.475577354E0,4.606183618E-2
4.762309490E0,4.280161560E-1,-9.332008362E0,2.712862790E-1
4.772021469E0,2.940180898E-1,-9.202795982E0,3.574278951E-1
4.781732719E0,-1.704886183E-2,-8.810073853E0,4.100699723E-1
4.791444854E0,-1.489532143E-1,-8.788538933E0,1.441675574E-1
4.801157667E0,-4.073780477E-1,-8.934500694E0,-2.673979402E-1
4.810869646E0,-6.753742099E-1,-9.051749229E0,-5.333003402E-1
4.820580948E0,-7.905287743E-1,-9.097511292E0,-5.476573110E-1
4.830292979E0,-9.867402315E-1,-8.769395828E0,-3.367897868E-1
4.840005896E0,-1.623530149E0,-8.829216003E0,-5.596213937E-1
4.849717875E0,-2.018645048E0,-8.972785950E0,-1.208375454E0
4.859429125E0,-2.064108610E0,-9.121439934E0,-1.727917075E0
4.869141260E0,-1.863111496E0,-9.300901413E0,-1.833201289E0
4.878854073E0,-1.558923960E0,-9.614361763E0,-1.473978758E0
4.888566104E0,-1.206879973E0,-9.920941353E0,-7.079764009E-1
4.898277354E0,-8.216354847E-1,-1.025862885E1,-7.357929647E-2
4.907989490E0,-4.217349887E-1,-1.062712383E1,4.606183618E-2
4.917702302E0,-8.883354068E-2,-1.083799076E1,-2.362912297E-1
4.927414333E0,1.384846121E-1,-1.081884861E1,-5.380859971E-1
4.937125583E0,8.344969153E-2,-1.052901745E1,-7.869395614E-1
4.946837615E0,-2.925225794E-1,-1.020120144E1,-1.019342422E0
4.956550531E0,-8.288139701E-1,-9.638588905E0,-9.403793216E-1
4.966262562E0,-1.288534999E0,-9.174081802E0,-6.457630396E-1
4.975973812E0,-1.735992789E0,-8.956035614E0,-1.597209126E-1
4.985685844E0,-2.114357948E0,-8.898608208E0,4.004986882E-1
4.995398760E0,-2.236391783E0,-9.006285667E0,8.841479421E-1
5.005110792E0,-2.128714800E0,-9.288937569E0,1.166501045E0
5.014822042E0,-1.738385677E0,-9.542576790E0,1.317547917E0
5.024534177E0,-1.276570916E0,-9.940084457E0,1.358225942E0
5.034246990E0,-8.359923959E-1,-1.019402313E1,1.322333574E0
5.043959021E0,-4.313062727E-1,-1.040937710E1,1.331904888E0
5.053670271E0,-2.638086975E-1,-1.063669491E1,1.561615825E0
5.063382406E0,-2.494517565E-1,-1.105334473E1,1.762612939E0
5.073095271E0,-3.308077157E-1,-1.169731331E1,1.693221092E0
5.082807250E0,-3.858426511E-1,-1.276989651E1,1.068395257E0
5.092518552E0,-6.948158741E-1,-1.361276817E1,6.254240274E-1
5.102230583E0,-1.302891970E0,-1.408415413E1,6.134598851E-1
5.111943500E0,-2.052144527E0,-1.424477196E1,-9.329017401E-1
5.121655531E0,-2.813361168E0,-1.391187096E1,-3.241078377E0
5.131366781E0,-3.431008577E0,-1.343300724E1,-4.279862404E0
5.141078917E0,-3.371187925E0,-1.323918819E1,-4.560121536E0
5.150791781E0,-2.808575630E0,-1.338993645E1,-4.335196495E0
5.160503760E0,-2.360818624E0,-1.349043465E1,-3.480360508E0
5.170215062E0,-1.973181367E0,-1.342582893E1,-3.181257725E0
5.179927198E0,-1.458425403E0,-1.316740417E1,-3.964009762E0
5.189640010E0,-9.819545746E-1,-1.293021584E1,-4.962415218E0
5.199352042E0,-9.005986452E-1,-1.265504074E1,-5.158626556E0
5.209063344E0,-1.115952611E0,-1.241785240E1,-4.215256214E0
5.218775375E0,-1.434497118E0,-1.205414295E1,-2.716751099E0
5.228488292E0,-1.762313843E0,-1.155135155E1,-1.265803218E0
5.238200323E0,-2.226820469E0,-1.107248783E1,-5.596213937E-1
5.247911573E0,-2.710469961E0,-1.073001480E1,-1.573280841E-1
5.257623708E0,-3.148655415E0,-1.076381397E1,1.971087605E-1
5.267336573E0,-3.414258718E0,-1.092413235E1,9.607182741E-1
5.277048604E0,-3.320938826E0,-1.110359478E1,1.987837434E0
5.286759854E0,-2.751147747E0,-1.140060329E1,2.629412889E0
5.296471990E0,-1.913360834E0,-1.159202957E1,2.722733021E0
5.306184854E0,-1.015454054E0,-1.167099285E1,2.157727718E0
5.315896885E0,-4.743770957E-1,-1.158006477E1,1.276570916E0
5.325608187E0,-5.222335458E-1,-1.134556866E1,5.895316601E-1
5.335320219E0,-1.147059321E0,-1.101745319E1,2.617149651E-1
5.345033135E0,-1.954038739E0,-1.077577782E1,-2.267199457E-1
5.354745167E0,-2.609971285E0,-1.034716320E1,-9.619147182E-1
5.364456469E0,-2.985943556E0,-9.858728409E0,-1.481157184E0
5.374168604E0,-2.856431961E0,-9.535398483E0,-1.601097465E0
5.383881469E0,-2.475973129E0,-9.274580956E0,-1.435693622E0
5.393593448E0,-2.009073734E0,-9.027820587E0,-1.311266780E0
5.403304750E0,-1.728814363E0,-8.747860909E0,-1.339980721E0
5.413016885E0,-1.611566067E0,-8.402995110E0,-1.395015597E0
5.422729750E0,-1.802991867E0,-8.008178711E0,-1.122233868E0
5.432441781E0,-2.116750717E0,-7.737491131E0,-3.945166469E-1
5.442153083E0,-2.332104683E0,-7.421638489E0,3.478565812E-1
5.451865219E0,-2.693720102E0,-6.964310169E0,6.326025128E-1
5.461578031E0,-3.397509098E0,-6.320342064E0,3.358924687E-1
5.471290062E0,-3.732803345E0,-5.755336761E0,-2.219343036E-1
5.481001365E0,-3.783052683E0,-5.319543839E0,-7.079764009E-1
5.490713500E0,-3.570091486E0,-5.118247509E0,-9.858429432E-1
5.500426365E0,-3.124727249E0,-5.120640278E0,-9.930213690E-1
5.510138396E0,-2.590828657E0,-5.360221863E0,-7.869395614E-1
5.519849698E0,-1.946860313E0,-5.601896763E0,-5.285146832E-1
5.529561833E0,-1.302891970E0,-5.731408596E0,-3.702892959E-1
5.539274698E0,-1.015454054E0,-5.736194134E0,-3.272185028E-1
5.548986729E0,-1.020239711E0,-5.891727448E0,-4.136592150E-1
5.558698031E0,-1.252642632E0,-6.169294834E0,-6.649056077E-1
5.568410167E0,-1.415354609E0,-6.298806667E0,-8.611170650E-1
5.578123031E0,-1.666600943E0,-6.382555485E0,-8.802596331E-1
5.587835062E0,-1.973181367E0,-6.432804585E0,-9.547362328E-1
5.597546312E0,-2.138286114E0,-6.492625237E0,-1.249053478E0
5.607258500E0,-2.128714800E0,-6.538088799E0,-1.672882080E0
5.616971365E0,-2.023430586E0,-6.621837616E0,-1.998306036E0
5.626683396E0,-1.930110574E0,-6.748657227E0,-2.467598438E0
5.636394698E0,-1.769492388E0,-7.081558704E0,-3.135494947E0
5.646106833E0,-1.606780410E0,-7.412067413E0,-3.880260944E0
5.655819698E0,-1.108774185E0,-7.625028610E0,-4.715655327E0
5.665531729E0,-1.393819153E-1,-7.914559841E0,-5.572884083E0
5.675243031E0,1.055533886E0,-8.367102623E0,-6.992425919E0
5.684955167E0,2.482254505E0,-9.111868858E0,-8.591729164E0
5.694668031E0,3.392125130E0,-1.075902748E1,-9.740881920E0
5.704380062E0,2.719442844E0,-1.320329666E1,-1.010728264E1
5.714091365E0,1.421635747E0,-1.419213009E1,-8.958129883E0
5.723803500E0,5.120640397E-1,-1.473081398E1,-7.981259823E0
5.733516365E0,2.413759828E-1,-1.522373581E1,-9.396315575E0
5.743228396E0,-7.447660714E-2,-1.432852077E1,-1.082782173E1
5.752939698E0,-3.427718580E-1,-1.305494118E1,-1.179272747E1
5.762651885E0,-1.353141189E0,-1.235563850E1,-1.102642632E1
5.772364750E0,-3.208476067E0,-1.256650639E1,-7.931010723E0
5.782076781E0,-4.089632988E0,-1.284885979E1,-3.339184046E0
5.791788083E0,-4.405485630E0,-1.289432335E1,-9.547362328E-1
5.801500219E0,-3.373580933E0,-1.190818119E1,-1.238285750E-1
5.811213083E0,-2.138286114E0,-1.096241760E1,3.454637825E-1
5.820925219E0,-1.637887120E0,-1.020598698E1,1.295713425E0
5.830636469E0,-8.790631890E-1,-9.868299484E0,6.780661345E-1
5.840348604E0,3.394817114E-1,-9.552147865E0,-2.884248495E0
5.850061469E0,1.193420291E-1,-8.917751312E0,-4.943272591E0
5.859773500E0,-3.595215976E-1,-8.917751312E0,-3.885046721E0
5.869484802E0,-1.015454054E0,-9.686445236E0,-9.305089116E-1
5.879196937E0,-2.267498493E0,-9.990333557E0,3.067598581E0
5.888909854E0,-3.017050266E0,-9.739087105E0,4.365106583E0
5.898621885E0,-3.570091486E0,-8.826823235E0,3.101098061E0
5.908333187E0,-4.333701134E0,-7.526922703E0,1.396511078E0
5.918045323E0,-5.241178989E0,-6.339484692E0,2.234298140E-1
5.927758240E0,-5.892325878E0,-5.927619934E0,-2.865405083E-1
5.937470271E0,-5.415854931E0,-6.432804585E0,-1.788634956E-1
5.947181573E0,-3.783052683E0,-7.203592777E0,2.473580390E-1
5.956893708E0,-2.377867460E0,-8.036892891E0,1.015753269E0
5.966606625E0,-1.139880896E0,-9.150154114E0,1.351047516E0
5.976318656E0,-3.140579760E-1,-9.851550102E0,5.871388316E-1
5.986029958E0,3.320041299E-2,-1.010040379E1,-9.643075466E-1
5.995742094E0,2.988037169E-1,-1.022752190E1,-1.797308922E0
6.005455010E0,4.642075896E-1,-1.040459061E1,-1.457229018E0
6.015167042E0,5.503492355E-1,-1.065583706E1,-3.777668774E-1
6.024878344E0,3.681955934E-1,-1.091695404E1,8.267202377E-1
6.034590531E0,-9.870393202E-3,-1.091216850E1,1.635793328E0
6.044303396E0,-4.193421602E-1,-1.067019463E1,1.619043589E0
6.054015531E0,-9.699904919E-1,-1.021795082E1,7.645068169E-1
6.063726781E0,-1.518245935E0,-9.698409081E0,-2.721835673E-1
6.073438917E0,-1.858325839E0,-9.281759262E0,-9.978070259E-1
6.083151781E0,-2.025823355E0,-9.046963692E0,-1.308874011E0
6.092863917E0,-2.159821510E0,-8.965607643E0,-1.217946768E0
6.102575167E0,-2.042573214E0,-9.015856743E0,-7.247261405E-1
6.112287302E0,-1.731207132E0,-9.128618240E0,-1.764706671E-1
6.122000219E0,-1.326820135E0,-9.202795982E0,8.195417374E-2
6.131712250E0,-9.819545746E-1,-9.200403214E0,1.824527234E-1
6.141423604E0,-6.107679605E-1,-9.303294182E0,5.584250093E-1
6.151135740E0,-2.805584669E-1,-9.384650230E0,8.506484628E-1
6.160848656E0,-1.465603895E-2,-9.537791252E0,9.080761671E-1
6.170560687E0,-3.140579537E-2,-9.597611427E0,7.283154130E-1
6.180271990E0,-1.968096644E-1,-9.487542152E0,5.632106066E-1
6.189984177E0,-5.748756528E-1,-9.391828537E0,3.071786165E-1
6.199697042E0,-1.017846942E0,-9.339186668E0,-8.554340899E-2
6.209409177E0,-1.422533035E0,-9.265008926E0,-4.040879309E-1
6.219120427E0,-1.688136339E0,-9.262616158E0,-6.768696904E-1
6.228832562E0,-1.685743570E0,-9.346364975E0,-9.017950296E-1
6.238545479E0,-1.642672777E0,-9.487542152E0,-1.074377418E0
6.248257510E0,-1.580459356E0,-9.700801849E0,-1.016949654E0
6.257968865E0,-1.582852125E0,-9.897013664E0,-7.701897621E-1
6.267681000E0,-1.668993831E0,-9.940084457E0,-6.649056077E-1
6.277393917E0,-1.743171334E0,-9.880263329E0,-7.558328509E-1
6.287105948E0,-1.609173179E0,-9.779765129E0,-9.906286001E-1
6.296817302E0,-1.381855130E0,-9.650552750E0,-1.124626637E0
6.306529437E0,-1.103988528E0,-9.542576790E0,-1.086341500E0
6.316242354E0,-8.742775917E-1,-9.456435204E0,-7.725825906E-1
6.325954385E0,-7.618148923E-1,-9.399007797E0,-4.639084935E-1
6.335665740E0,-5.461617708E-1,-9.489934921E0,-2.554338276E-1
6.345377875E0,-4.456632137E-1,-9.542576790E0,-1.668993831E-1
6.355090792E0,-5.461617708E-1,-9.631410599E0,-2.333002165E-2
6.364802927E0,-7.426723242E-1,-9.722337723E0,2.665006220E-1
6.374514177E0,-8.647062778E-1,-9.849157333E0,9.080761671E-1
6.384226365E0,-9.867402315E-1,-9.992726326E0,1.745863199E0
6.393939229E0,-9.029914737E-1,-1.024187946E1,2.339582443E0
6.403651365E0,-9.460622668E-1,-1.039501953E1,2.796910524E0
6.413362615E0,-7.881359458E-1,-1.034955597E1,3.034099102E0
6.423074802E0,-5.676971674E-1,-1.047876835E1,2.576770782E0
6.432787719E0,-4.791627228E-1,-1.052423191E1,1.262213945E0
6.442499750E0,-5.246263742E-1,-1.074467087E1,-2.027917206E-1
6.452211104E0,-8.168498278E-1,-1.153938675E1,-1.239482164E0
6.461923240E0,-1.453639746E0,-1.230538940E1,-1.359123230E0
6.471636156E0,-2.128714800E0,-1.306451225E1,-6.505486369E-1
6.481348292E0,-2.397010088E0,-1.353111267E1,-4.519443810E-1
6.491059542E0,-2.367997169E0,-1.353829098E1,-1.153340459E0
6.500771729E0,-2.408974171E0,-1.348804188E1,-1.519741535E0
6.510484646E0,-2.334497690E0,-1.337079430E1,-1.766202211E0
6.520196677E0,-2.097608089E0,-1.357687569E1,-2.213959217E0
6.529908031E0,-2.138286114E0,-1.362473202E1,-2.630609512E0
6.539620167E0,-2.358425856E0,-1.335404396E1,-3.439682484E0
6.549333083E0,-2.495115757E0,-1.252822113E1,-4.945665359E0
6.559045219E0,-2.566900492E0,-1.191057396E1,-6.355636120E0
6.568756521E0,-2.456830740E0,-1.168774223E1,-6.305386543E0
6.578468656E0,-2.253141642E0,-1.163510036E1,-4.962415218E0
6.588181573E0,-2.037787676E0,-1.161835003E1,-3.248256683E0
6.597893708E0,-1.992323995E0,-1.139342499E1,-1.423729420E0
6.607604958E0,-2.262712955E0,-1.110598755E1,-1.262213886E-1
6.617317146E0,-2.523829699E0,-1.063669491E1,8.338986635E-1
6.627030062E0,-2.605185747E0,-1.041655540E1,1.935195327E0
6.636742198E0,-2.751147747E0,-1.032323551E1,3.019742250E0
6.646453448E0,-2.653042078E0,-1.035194874E1,3.395415306E0
6.656165635E0,-2.557329178E0,-1.035194874E1,3.177668571E0
6.665878552E0,-2.397010088E0,-1.046680450E1,2.555235386E0
6.675590687E0,-2.071287155E0,-1.072762203E1,1.755434513E0
6.685301937E0,-1.451246977E0,-1.064387321E1,1.025324464E0
6.695014125E0,-9.604191780E-1,-1.084995556E1,1.393819153E-1
6.704727042E0,-7.905287743E-1,-1.121605682E1,-2.626122832E-1
6.714439177E0,-7.713862062E-1,-1.139103222E1,-4.351946115E-1
6.724150427E0,-1.147059321E0,-1.121127129E1,-8.156534433E-1
6.733862615E0,-1.649851203E0,-1.063908768E1,-1.225125194E0
6.743575531E0,-2.083251238E0,-9.808479309E0,-1.546062589E0
6.753287667E0,-2.250748873E0,-9.394221306E0,-1.797308922E0
6.762998969E0,-2.169392824E0,-9.123832703E0,-1.754238129E0
6.772711104E0,-1.808076620E0,-8.723932266E0,-1.428515077E0
6.782424021E0,-1.458425403E0,-8.398209572E0,-1.182054400E0
6.792136156E0,-1.412961721E0,-7.986643791E0,-8.922237158E-1
6.801847458E0,-1.424925923E0,-7.586743355E0,-3.993022740E-1
6.811559646E0,-1.326820135E0,-7.165307522E0,1.034895778E-1
6.821272562E0,-1.324427366E0,-6.767799854E0,3.478565812E-1
6.830984698E0,-1.420140266E0,-6.339484692E0,4.100699723E-1
6.840695948E0,-1.668993831E0,-5.939583778E0,4.052843451E-1
6.850408135E0,-2.068894386E0,-5.599503994E0,3.311068416E-1
6.860121052E0,-2.408974171E0,-5.360221863E0,2.880360186E-1
6.869833187E0,-2.665006161E0,-5.185545921E0,2.377867550E-1
6.879544490E0,-2.810968399E0,-5.111069202E0,6.281159073E-2
6.889256677E0,-2.861217737E0,-5.149653435E0,-1.812563092E-1
6.898969594E0,-3.017050266E0,-5.250152111E0,-4.399802685E-1
6.908681729E0,-3.122334480E0,-5.376971722E0,-6.242275834E-1
6.918393031E0,-3.297010422E0,-5.518147945E0,-6.840481758E-1
6.928105219E0,-3.328117132E0,-5.748157978E0,-6.290132403E-1
6.937818135E0,-3.241975546E0,-6.061617851E0,-6.816553473E-1
6.947530167E0,-3.040978432E0,-6.372983932E0,-9.257232547E-1
6.957241521E0,-2.712862730E0,-6.734300137E0,-1.418943882E0
6.966953708E0,-2.385046005E0,-7.081558704E0,-2.029412746E0
6.976666625E0,-2.037787676E0,-7.541279793E0,-2.824428082E0
6.986378760E0,-1.628315806E0,-8.216354370E0,-3.743870020E0
6.996090062E0,-1.101595759E0,-9.133403778E0,-4.976771832E0
7.005802250E0,-5.294120312E-1,-1.028734303E1,-6.851249218E0
7.015515167E0,1.839482337E-1,-1.112991524E1,-8.893523216E0
7.025227302E0,6.053841114E-1,-1.218574810E1,-1.084217834E1
7.034938604E0,7.154539824E-1,-1.316261864E1,-1.247737408E1
7.044650792E0,5.383850932E-1,-1.376112270E1,-1.216869926E1
7.054363708E0,5.096712112E-1,-1.405304718E1,-1.055264664E1
7.064075844E0,6.388836503E-1,-1.403869057E1,-9.039485931E0
7.073787146E0,5.503492355E-1,-1.339232922E1,-7.677371502E0
7.083499333E0,3.559323773E-2,-1.243011570E1,-6.453741550E0
7.093212250E0,-5.820540786E-1,-1.139821053E1,-5.031806946E0
7.102924385E0,-8.335995674E-1,-1.045244789E1,-3.305684566E0
7.112635687E0,-8.168498278E-1,-1.011236763E1,-2.216351986E0
7.122347875E0,-1.360319614E0,-1.071805096E1,-1.507777333E0
7.132060844E0,-2.195713997E0,-1.067976570E1,-2.362912297E-1
7.141772979E0,-1.963610053E0,-1.011715317E1,-3.768695518E-2
7.151484229E0,-7.163512707E-1,-1.024427223E1,-9.523434043E-1
7.161196469E0,4.037888348E-2,-1.041894817E1,-1.885843396E0
7.170909385E0,3.059822023E-1,-1.023948669E1,-4.435695171E0
7.180621521E0,-1.163809061E0,-1.027537823E1,-6.664609432E0
7.190332823E0,-2.849253654E0,-1.057926750E1,-6.453741550E0
7.200045010E0,-3.100799084E0,-1.083081245E1,-2.877070189E0
7.209757927E0,-3.352045536E0,-1.126391315E1,2.200798512E0
7.219470062E0,-2.839682341E0,-1.192014503E1,5.044967651E0
7.229181365E0,-2.083251238E0,-1.108923721E1,3.955634832E0
7.238893552E0,-2.047358990E0,-9.748658180E0,1.274178028E0
7.248606521E0,-2.339283228E0,-8.469993591E0,-7.247261405E-1
7.258318656E0,-3.038585663E0,-7.421638489E0,-1.141376376E0
7.268029958E0,-3.821337700E0,-6.614659309E0,-3.272185028E-1
7.277742146E0,-4.412663937E0,-6.463911057E0,4.698905349E-1
7.287455062E0,-4.192524433E0,-7.148557663E0,5.871388316E-1
7.297167198E0,-3.565305710E0,-7.464709282E0,5.153541565E-1
7.306878552E0,-2.959622622E0,-7.385746002E0,6.661019921E-1
7.316590740E0,-2.564507723E0,-7.519744396E0,6.613163352E-1
7.326303656E0,-2.265105724E0,-7.797311783E0,1.680957973E-1
7.336015792E0,-1.802991867E0,-8.139784813E0,-7.438687682E-1
7.345727094E0,-1.202094316E0,-8.601898193E0,-1.363908887E0
7.355439281E0,-5.222335458E-1,-9.205188751E0,-1.311266780E0
7.365152250E0,-1.298106313E-1,-9.818050385E0,-7.630113363E-1
7.374864385E0,1.432702541E-1,-1.047876835E1,-8.793623000E-2
7.384575687E0,3.299104273E-1,-1.091216850E1,3.885345757E-1
7.394287875E0,3.323032558E-1,-1.103420258E1,6.062814593E-1
7.404000844E0,1.791625917E-1,-1.095045376E1,3.933202326E-1
7.413712979E0,-2.374876440E-1,-1.064865875E1,-1.357926875E-1
7.423424281E0,-5.413761139E-1,-1.029691410E1,-7.271189690E-1
7.433136469E0,-8.383852243E-1,-1.000708294E1,-1.007378340E0
7.442849385E0,-1.130309582E0,-9.736694336E0,-9.065806866E-1
7.452561573E0,-1.424925923E0,-9.509077072E0,-7.175477147E-1
7.462272875E0,-1.585245013E0,-9.317651749E0,-6.218347549E-1
7.471985062E0,-1.463211060E0,-9.195617676E0,-5.500500798E-1
7.481698031E0,-1.259821177E0,-9.193224907E0,-3.272185028E-1
7.491410167E0,-1.065703392E0,-9.195617676E0,9.152546525E-2
7.501121469E0,-7.043871880E-1,-9.310472488E0,5.440680385E-1
7.510833656E0,-3.978067636E-1,-9.327222824E0,9.607182741E-1
7.520546625E0,-6.251249462E-2,-9.410971642E0,1.305284739E0
7.530258760E0,9.541380405E-2,-9.427721024E0,1.243071318E0
7.539970062E0,-1.944168471E-2,-9.396614075E0,8.937192559E-1
7.549682302E0,-3.475574851E-1,-9.272188187E0,4.339981973E-1
7.559395219E0,-8.216354847E-1,-9.083154678E0,1.441675574E-1
7.569107354E0,-1.197308660E0,-8.929715157E0,4.366901144E-2
7.578818656E0,-1.539781332E0,-8.838788033E0,-1.884347796E-1
7.588530896E0,-1.896611094E0,-8.762217522E0,-3.607180119E-1
7.598243812E0,-2.296212435E0,-8.661719322E0,-4.806582630E-1
7.607956000E0,-2.535793781E0,-8.764610291E0,-4.184448719E-1
7.617667302E0,-2.626721144E0,-8.960822105E0,-3.032902777E-1
7.627379490E0,-2.380260229E0,-9.329615593E0,-3.248256743E-1
7.637092458E0,-2.085644007E0,-9.664909363E0,-3.391826153E-1
7.646804594E0,-1.865504384E0,-9.978369713E0,-3.702892959E-1
7.656515896E0,-1.537388563E0,-1.027537823E1,-5.883352757E-1
7.666228135E0,-1.197308660E0,-1.040937710E1,-7.127620578E-1
7.675941052E0,-7.857431173E-1,-1.046201897E1,-7.821539044E-1
7.685653240E0,-3.355933726E-1,-1.038784122E1,-9.571290612E-1
7.695364542E0,2.602194622E-2,-1.020359421E1,-1.158126116E0
7.705076729E0,1.073779166E-1,-1.003101158E1,-1.038485050E0
7.714789698E0,1.767697781E-1,-1.002144051E1,-2.147558331E-1
7.724501833E0,1.025922745E-1,-1.008126068E1,1.149751306E0
7.734213135E0,-5.772684515E-2,-1.019402313E1,2.212762833E0
7.743925375E0,-2.494517565E-1,-1.030648518E1,2.775375128E0
7.753638292E0,-4.217349887E-1,-1.036391354E1,3.022135019E0
7.763350479E0,-5.413761139E-1,-1.038305569E1,2.808874607E0
7.773061781E0,-6.299105883E-1,-1.055294609E1,1.729113460E0
7.782774021E0,-7.570292354E-1,-1.063669491E1,-2.333002165E-2
7.792486937E0,-9.963115454E-1,-1.097198868E1,-1.227517962E0
7.802199125E0,-1.427318692E0,-1.181216908E1,-1.220339537E0
7.811910427E0,-1.932503343E0,-1.267896938E1,-2.338984162E-1
7.821622615E0,-2.028216362E0,-1.327747345E1,3.741776347E-1
7.831335583E0,-1.556531072E0,-1.347607803E1,-8.973085321E-3
7.841047719E0,-1.175773263E0,-1.354307747E1,-3.343969584E-1
7.850759073E0,-1.034596682E0,-1.349043465E1,-5.859424472E-1
7.860471260E0,-1.008275628E0,-1.358405399E1,-1.186840057E0
7.870184229E0,-1.257428288E0,-1.372762394E1,-1.553241014E0
7.879896365E0,-1.714457393E0,-1.356730461E1,-2.355135679E0
7.889607719E0,-2.092822552E0,-1.324876022E1,-4.291826725E0
7.899319906E0,-2.370688915E0,-1.286321640E1,-6.042176247E0
7.909032875E0,-2.509472847E0,-1.244447231E1,-6.233602047E0
7.918745010E0,-2.480758905E0,-1.200628662E1,-5.249553680E0
7.928456365E0,-2.360818624E0,-1.152981567E1,-3.705285788E0
7.938168552E0,-2.138286114E0,-1.098873901E1,-2.036591291E0
7.947881521E0,-1.841576099E0,-1.056012440E1,-6.314060688E-1
7.957593708E0,-1.870290041E0,-1.017697334E1,6.062814593E-1
7.967305010E0,-2.195713997E0,-9.923335075E0,1.535294771E0
7.977017250E0,-2.428116798E0,-9.983155251E0,2.543271303E0
7.986730167E0,-3.024228811E0,-9.849157333E0,3.943670750E0
7.996442354E0,-3.897907972E0,-9.559326172E0,4.594817638E0
8.006153656E0,-4.371985912E0,-9.193224907E0,4.005884171E0
8.015865896E0,-4.300201416E0,-9.051749229E0,2.433201551E0
8.025578865E0,-3.900300980E0,-9.183652878E0,8.338986635E-1
8.035291000E0,-3.158226728E0,-9.571290970E0,-4.187439568E-3
8.045002354E0,-1.951645970E0,-1.029930687E1,-3.678964674E-1
8.054714542E0,-9.939187169E-1,-1.109641552E1,-9.810572863E-1
8.064427510E0,-6.251249313E-1,-1.147478104E1,-1.541276932E0
8.074139646E0,-3.379862010E-1,-1.157288647E1,-1.775773525E0
8.083851000E0,-6.299105883E-1,-1.138146114E1,-1.462014675E0
8.093563240E0,-1.130309582E0,-1.094327545E1,-1.103091240E0
8.103276156E0,-1.393819213E0,-1.050508976E1,-7.725825906E-1
8.112988344E0,-1.556531072E0,-1.011715317E1,-5.907281041E-1
8.122699646E0,-1.834397674E0,-9.521040916E0,-6.409773827E-1
8.132411885E0,-2.238784790E0,-8.807681084E0,-7.558328509E-1
8.142124854E0,-2.569293261E0,-8.194819450E0,-6.912266612E-1
8.151837042E0,-2.564507723E0,-7.770990849E0,-4.040879309E-1
8.161548344E0,-2.363211393E0,-7.500601768E0,-9.990034252E-2
8.171260583E0,-2.171785593E0,-7.148557663E0,1.680957973E-1
8.180973500E0,-1.930110574E0,-6.868597507E0,3.047857881E-1
8.190685687E0,-1.712064624E0,-6.602694988E0,2.736790776E-1
8.200397042E0,-1.829612017E0,-6.253343105E0,1.680957973E-1
8.210109229E0,-2.178964138E0,-5.903691769E0,2.991028363E-3
8.219822198E0,-2.631506681E0,-5.618646622E0,-2.458625287E-1
8.229534385E0,-2.925823927E0,-5.441577911E0,-4.806582630E-1
8.239245687E0,-3.160619497E0,-5.362614632E0,-6.361917257E-1
8.248957927E0,-3.277868032E0,-5.331508160E0,-7.175477147E-1
8.258670896E0,-3.289832115E0,-5.348257542E0,-8.060821295E-1
8.268383083E0,-3.203690529E0,-5.436792374E0,-7.965108156E-1
8.278094385E0,-3.067299604E0,-5.604289532E0,-7.582256794E-1
8.287806625E0,-2.916252613E0,-5.822335720E0,-8.659027219E-1
8.297519594E0,-2.648256540E0,-6.037689686E0,-1.086341500E0
8.307231781E0,-2.322533369E0,-6.298806667E0,-1.397408366E0
8.316943083E0,-1.812862277E0,-6.664908409E0,-1.806880236E0
8.326655323E0,-1.156630635E0,-7.160521984E0,-2.656930447E0
8.336368292E0,-6.442674994E-1,-7.794919014E0,-3.726821184E0
8.346080479E0,-5.389832854E-1,-8.486743927E0,-4.945665359E0
8.355791781E0,-4.576273263E-1,-9.317651749E0,-6.848856449E0
8.365504021E0,-1.609173268E-1,-1.036869907E1,-9.077771187E0
8.375216990E0,2.892324328E-1,-1.164467144E1,-1.122532940E1
8.384929177E0,5.120640397E-1,-1.287996578E1,-1.214925766E1
8.394640479E0,6.221339107E-1,-1.390708542E1,-1.128993511E1
8.404352719E0,6.245267391E-1,-1.449123287E1,-9.966106415E0
8.414065687E0,1.624128371E-1,-1.428544998E1,-8.797810555E0
8.423777875E0,-5.796613097E-1,-1.349522018E1,-7.751548767E0
8.433489177E0,-1.103988528E0,-1.251865005E1,-7.042675018E0
8.443201417E0,-1.506281853E0,-1.151545906E1,-6.235994816E0
8.452914385E0,-1.666600943E0,-1.063430214E1,-4.593621254E0
8.462626573E0,-1.872682810E0,-1.012672424E1,-3.511467218E0
8.472337927E0,-2.389831543E0,-1.014586735E1,-2.752643347E0
8.482050115E0,-2.638685226E0,-1.003101158E1,-1.165304661E0
8.491763083E0,-2.360818624E0,-9.684052467E0,-7.582256794E-1
8.501475271E0,-1.453639746E0,-9.609575272E0,-2.199602127E0
8.511186625E0,-4.504488707E-1,-9.638588905E0,-3.940081596E0
8.520898865E0,-3.164508045E-1,-9.322437286E0,-4.617549419E0
8.530611833E0,-1.202094316E0,-9.255437851E0,-3.851547241E0
8.540324021E0,-2.755933523E0,-9.513862610E0,-3.274577856E0
8.550035323E0,-3.476472139E0,-9.604789734E0,-3.116352320E0
8.559747562E0,-3.594019651E0,-9.873085022E0,-1.287338614E0
8.569460531E0,-3.500699520E0,-1.038066292E1,2.073979139E0
8.579172719E0,-3.208476067E0,-1.054337502E1,4.123431683E0
8.588884073E0,-2.894717216E0,-1.011954594E1,3.316452265E0
8.598596312E0,-3.119941711E0,-9.164510727E0,1.197607756E0
8.608309281E0,-3.842873096E0,-7.960322857E0,-5.883352757E-1
8.618021469E0,-4.589733124E0,-6.997809887E0,-1.146162033E0
8.627732771E0,-4.767100811E0,-6.516553402E0,-5.333003402E-1
8.637445010E0,-4.584947109E0,-6.693622112E0,-8.973085321E-3
8.647157979E0,-4.111168385E0,-7.153343201E0,2.452643216E-2
8.656870167E0,-3.218047380E0,-7.608278751E0,1.058823988E-1
8.666581521E0,-2.202892303E0,-8.278568268E0,4.076771438E-1
8.676293760E0,-1.101595759E0,-8.994320869E0,4.316053987E-1
8.686006729E0,-2.255235314E-1,-9.535398483E0,7.238288224E-2
8.695718917E0,5.144568682E-1,-9.983155251E0,-4.304089844E-1
8.705430271E0,8.709874153E-1,-1.027537823E1,-7.127620578E-1
8.715142510E0,9.164510965E-1,-1.046201897E1,-7.749754190E-1
8.724855479E0,5.814558864E-1,-1.072762203E1,-5.548357368E-1
8.734567667E0,1.456630826E-1,-1.090259743E1,-2.171486616E-1
8.744279021E0,-1.609173268E-1,-1.094088268E1,-1.357926875E-1
8.753991260E0,-1.968096644E-1,-1.090499020E1,-1.908276081E-1
8.763704229E0,-1.609173268E-1,-1.087388325E1,-5.309075117E-1
8.773416417E0,-2.662015148E-2,-1.080688477E1,-7.438687682E-1
8.783127771E0,-9.601201117E-2,-1.051944637E1,-7.773682475E-1
8.792839958E0,-6.179464459E-1,-1.007168961E1,-8.012964725E-1
8.802552979E0,-9.915258884E-1,-9.611968994E0,-7.558328509E-1
8.812265167E0,-1.156630635E0,-9.147761345E0,-6.840481758E-1
8.821976469E0,-1.415354609E0,-8.676075935E0,-6.529414654E-1
8.831688708E0,-1.594816327E0,-8.326424599E0,-5.931209326E-1
8.841401729E0,-1.436890006E0,-8.115856171E0,-4.758726060E-1
8.851113917E0,-1.087238789E0,-8.194819450E0,-2.482553422E-1
8.860825271E0,-7.450651526E-1,-8.426922798E0,7.956135273E-2
8.870537510E0,-4.313062727E-1,-8.668897629E0,5.727819204E-1
8.880250479E0,-2.542374134E-1,-8.972785950E0,9.008977413E-1
8.889962667E0,-3.403790295E-1,-9.212367058E0,1.116251707E0
8.899674021E0,-6.323033571E-1,-9.547362328E0,1.006181955E0
8.909386260E0,-9.580263495E-1,-9.822835922E0,6.038886309E-1
8.919099229E0,-1.235593796E0,-9.968798637E0,4.366901144E-2
8.928811417E0,-1.405783296E0,-1.001426220E1,-7.319046259E-1
8.938522771E0,-1.494317770E0,-9.983155251E0,-1.596311808E0
8.948235010E0,-1.539781332E0,-9.942477226E0,-2.252244234E0
8.957947979E0,-1.568495274E0,-9.892228127E0,-2.441277266E0
8.967660167E0,-1.594816327E0,-9.844371796E0,-2.314457655E0
8.977371521E0,-1.726421595E0,-9.674481392E0,-1.940878272E0
8.987083760E0,-1.930110574E0,-9.489934921E0,-1.500598907E0
8.996796781E0,-1.994716763E0,-9.308079720E0,-9.714859724E-1
9.006508969E0,-1.920539260E0,-9.190832138E0,-4.471587241E-1
9.016220323E0,-1.714457393E0,-9.142974854E0,-3.290131316E-2
9.025932562E0,-1.427318692E0,-9.150154114E0,2.353939265E-1
9.035645531E0,-9.628120065E-1,-9.286544800E0,3.215355575E-1
9.045357719E0,-4.289134443E-1,-9.482755661E0,3.622135222E-1
9.055069073E0,-1.031904742E-1,-9.707980156E0,2.210369855E-1
9.064781312E0,-2.901297510E-1,-9.767801285E0,-6.580262445E-3
9.074494333E0,-5.772684813E-1,-9.863513947E0,1.974078640E-2
9.084206521E0,-7.450651526E-1,-1.003101158E1,6.684948206E-1
9.093917875E0,-1.029811025E0,-1.041894817E1,1.978266120E0
9.103630115E0,-9.293124676E-1,-1.044048309E1,2.825624466E0
9.113343083E0,-8.216354847E-1,-1.047637558E1,3.251846075E0
9.123055271E0,-5.030909777E-1,-1.077099228E1,3.122633457E0
9.132766625E0,3.320041299E-2,-1.107727337E1,1.954337835E0
9.142478865E0,3.466601670E-1,-1.107248783E1,-8.554340899E-2
9.152191885E0,2.078764737E-1,-1.119212914E1,-2.087139606E0
9.161904073E0,-8.862416744E-1,-1.226231861E1,-3.229114056E0
9.171615427E0,-2.188535452E0,-1.267896938E1,-2.652144909E0
9.181327667E0,-3.244368315E0,-1.310519028E1,-1.830808401E0
9.191040687E0,-3.967299938E0,-1.343540001E1,-1.981556296E0
9.200752875E0,-4.633102894E0,-1.336361504E1,-1.988734722E0
9.210464229E0,-4.963312149E0,-1.318654633E1,-2.213959217E0
9.220176469E0,-4.281058788E0,-1.316979694E1,-2.752643347E0
9.229889437E0,-2.995514870E0,-1.350479221E1,-3.042174816E0
9.239601677E0,-1.666600943E0,-1.366780281E1,-3.521038532E0
9.249313031E0,-9.029914737E-1,-1.341147137E1,-4.670191765E0
9.259025271E0,-7.594220638E-1,-1.305972672E1,-5.385944843E0
9.268738240E0,-1.075274706E0,-1.262393379E1,-4.653441906E0
9.278450479E0,-1.408176184E0,-1.205653572E1,-3.094816923E0
9.288161833E0,-1.899003863E0,-1.142453194E1,-1.524527073E0
9.297874073E0,-2.868396044E0,-1.082363415E1,-2.003988922E-1
9.307587042E0,-3.751945972E0,-1.035194874E1,1.073180914E0
9.317299281E0,-4.312165737E0,-9.923335075E0,1.963909149E0
9.327010635E0,-4.218845367E0,-9.887442589E0,2.351546526E0
9.336722875E0,-3.694518089E0,-9.839586258E0,2.593520641E0
9.346435896E0,-3.160619497E0,-9.729516029E0,2.607877493E0
9.356148083E0,-2.665006161E0,-9.841979027E0,2.303689957E0
9.365859437E0,-2.310569286E0,-9.952048302E0,1.865504384E0
9.375571677E0,-1.860718727E0,-1.020837975E1,1.499402523E0
9.385284698E0,-1.151844978E0,-1.066062355E1,9.990034699E-1
9.394996885E0,-5.054838061E-1,-1.121844959E1,2.353939265E-1
9.404708240E0,-4.336991012E-1,-1.136471081E1,-7.295117974E-1
9.414420479E0,-1.015454054E0,-1.072762203E1,-1.294517040E0
9.424133500E0,-2.107179403E0,-1.013390255E1,-1.703988791E0
9.433845687E0,-3.019443035E0,-9.583254814E0,-1.799701691E0
9.443557042E0,-3.186940670E0,-9.183652878E0,-1.847558141E0
9.453269333E0,-3.253939629E0,-8.728717804E0,-1.720738530E0
9.462982302E0,-3.057728291E0,-8.151748657E0,-1.625025630E0
9.472694542E0,-2.873181820E0,-7.713562965E0,-1.519741535E0
9.482405896E0,-2.739183664E0,-7.277770042E0,-1.172483087E0
9.492118135E0,-2.578864574E0,-6.916453838E0,-7.606185079E-1
9.501831156E0,-2.487937450E0,-6.590730667E0,-4.519443810E-1
9.511543344E0,-2.233999014E0,-6.315556049E0,-2.147558331E-1
9.521254698E0,-2.042573214E0,-6.097510338E0,-9.990034252E-2
9.530966990E0,-2.004287958E0,-5.944369793E0,-7.836493850E-2
9.540679958E0,-2.174178362E0,-5.784050465E0,-5.922235921E-2
9.550392198E0,-2.399402857E0,-5.709873199E0,-9.511470050E-2
9.560103552E0,-2.593221426E0,-5.700301647E0,-1.573280841E-1
9.569815792E0,-2.672184706E0,-5.738586903E0,-2.075773627E-1
9.579528812E0,-2.717648268E0,-5.812764645E0,-2.793620527E-1
9.589241000E0,-2.636292458E0,-5.872584820E0,-4.208376706E-1
9.598952354E0,-2.650649309E0,-6.035296917E0,-5.811567903E-1
9.608664646E0,-2.641077995E0,-6.209972858E0,-7.175477147E-1
9.618377615E0,-2.566900492E0,-6.365805626E0,-9.834501147E-1
9.628089854E0,-2.430509567E0,-6.569195271E0,-1.361516118E0
9.637801208E0,-2.269891262E0,-6.715157509E0,-1.814058661E0
9.647513448E0,-2.042573214E0,-6.894918442E0,-2.235494614E0
9.657226469E0,-1.704886079E0,-7.141379356E0,-2.810070992E0
9.666938656E0,-1.341177106E0,-7.373782158E0,-3.600001574E0
9.676650062E0,-9.364909530E-1,-7.677670479E0,-4.761118889E0
9.686362302E0,-5.246263742E-1,-8.201997757E0,-6.178566933E0
9.696075323E0,-2.638086975E-1,-8.936893463E0,-7.222435951E0
9.705787510E0,-1.079761237E-1,-9.975976944E0,-8.347661018E0
9.715498865E0,-4.336991161E-2,-1.120648575E1,-9.413064957E0
9.725211156E0,1.336989701E-1,-1.230060387E1,-1.014317513E1
9.734924177E0,2.796611488E-1,-1.315783215E1,-1.032502937E1
9.744636365E0,4.881358147E-1,-1.351436329E1,-1.004028416E1
9.754347719E0,4.881358147E-1,-1.339950752E1,-9.259625435E0
9.764060010E0,1.193420291E-1,-1.308604813E1,-8.345268250E0
9.773772979E0,-6.514459848E-1,-1.272443295E1,-7.578966618E0
9.783485219E0,-1.322034478E0,-1.266221905E1,-7.502396107E0
9.793196573E0,-2.253141642E0,-1.295175076E1,-7.057032108E0
9.802908812E0,-3.182155132E0,-1.287039471E1,-5.228018284E0
9.812621833E0,-3.005086184E0,-1.281296730E1,-4.248755932E0
9.822334073E0,-1.491924882E0,-1.335882950E1,-4.806582451E0
9.832045427E0,1.166501082E-2,-1.359362507E1,-3.320041418E0
9.841757667E0,1.895713687E0,-1.312911892E1,-1.117448211E0
9.851470687E0,2.343470573E0,-1.272682571E1,-6.672984362E-1
9.861182927E0,-1.824527234E-1,-1.104377365E1,1.058824062E0
9.870894281E0,-2.724826813E0,-8.661719322E0,4.292125702E-1
9.880606521E0,-3.129513025E0,-6.947560310E0,-9.810572863E-1
9.890319542E0,-3.639483213E0,-6.418447495E0,3.071786165E-1
9.900031781E0,-4.297808647E0,-6.178866386E0,2.028515339E0
9.909743135E0,-4.779065132E0,-5.894120216E0,1.552044630E0
9.919455375E0,-5.234000206E0,-5.546862125E0,-1.668993831E-1
9.929168396E0,-5.734100342E0,-5.738586903E0,7.716853172E-2
9.938880635E0,-6.023931026E0,-6.662515640E0,1.597508192E0
9.948591990E0,-5.451747417E0,-7.799704552E0,1.355833173E0
9.958304229E0,-3.854837179E0,-8.034500122E0,1.971087605E-1
9.968017250E0,-2.504687071E0,-8.242675781E0,-5.620142221E-1
9.977729437E0,-1.997109652E0,-8.563612938E0,-6.936194897E-1
9.987440844E0,-2.016252279E0,-8.759824753E0,-3.535395563E-1
9.997153083E0,-2.504687071E0,-8.896215439E0,-3.032902777E-1
1.000686610E1,-2.873181820E0,-8.987142563E0,-5.763711333E-1
1.001657834E1,-2.822932482E0,-9.286544800E0,-8.994022012E-1
1.002628970E1,-2.269891262E0,-9.770194054E0,-1.016949654E0
1.003600199E1,-1.692921996E0,-1.006451130E1,-7.893323898E-1
1.004571496E1,-1.288534999E0,-1.035434151E1,-4.591228366E-1
1.005542720E1,-1.039382339E0,-1.068455124E1,-1.429711580E-1
1.006513855E1,-6.083751321E-1,-1.086909771E1,3.598206937E-1
1.007485084E1,-6.729813665E-2,-1.104138088E1,3.861417472E-1
1.008456381E1,3.825525343E-1,-1.120409298E1,2.976073027E-1
1.009427605E1,7.274180651E-1,-1.115145111E1,2.018944174E-1
1.010398741E1,7.369893789E-1,-1.093609715E1,-1.142572835E-1
1.011369970E1,3.514458239E-1,-1.058883858E1,-5.045864582E-1
1.012341267E1,-1.920240223E-1,-1.022752190E1,-5.955137610E-1
1.013312491E1,-7.187440991E-1,-9.760622978E0,-4.806582630E-1
1.014283626E1,-9.580263495E-1,-9.276973724E0,-5.093721151E-1
1.015254855E1,-1.044167995E0,-8.891429901E0,-3.921238184E-1
1.016226157E1,-1.125523925E0,-8.764610291E0,7.477571070E-2
1.017197376E1,-1.264606714E0,-8.762217522E0,7.163512707E-1
1.018168512E1,-1.180558920E0,-8.745467186E0,1.068395257E0
1.019139741E1,-9.652048349E-1,-8.735896111E0,1.080359459E0
1.020111043E1,-8.096713424E-1,-8.685647011E0,7.115656137E-1
1.021082262E1,-7.187440991E-1,-8.752646446E0,1.106680483E-1
1.022053402E1,-7.522436380E-1,-8.810073853E0,-4.088735580E-1
1.023024626E1,-9.388837814E-1,-8.956035614E0,-6.816553473E-1
1.023995928E1,-1.237986565E0,-9.154939651E0,-6.936194897E-1
1.024967147E1,-1.649851203E0,-9.420542717E0,-5.021936297E-1
1.025938288E1,-2.092822552E0,-9.621838570E0,-3.128615618E-1
1.026909512E1,-2.303390980E0,-9.765408516E0,-5.237290859E-1
1.027880814E1,-2.226820469E0,-9.789336205E0,-9.906286001E-1
1.028852038E1,-1.906182289E0,-9.765408516E0,-1.237089276E0
1.029823173E1,-1.549352646E0,-9.844371796E0,-1.016949654E0
1.030794397E1,-1.259821177E0,-9.875477791E0,-6.337988973E-1
1.031765699E1,-1.020239711E0,-9.834799767E0,-3.152543902E-1
1.032736923E1,-8.838488460E-1,-9.731908798E0,1.256231871E-2
1.033708058E1,-8.982058167E-1,-9.607182503E0,3.095714152E-1
1.034679288E1,-9.652048349E-1,-9.456435204E0,4.220340848E-1
1.035650584E1,-9.819545746E-1,-9.389435768E0,2.306082845E-1
1.036621808E1,-1.013061285E0,-9.312865257E0,-3.320041299E-1
1.037592944E1,-8.790631890E-1,-9.329615593E0,-1.026520967E0
1.038564173E1,-5.748756528E-1,-9.619445801E0,-1.038485050E0
1.039535475E1,-2.805584669E-1,-9.971191406E0,5.802594870E-2
1.040506694E1,-1.704886109E-1,-1.044048309E1,1.626222134E0
1.041477834E1,-1.680957973E-1,-1.060319519E1,2.715554714E0
1.042449058E1,-1.752742529E-1,-1.047876835E1,2.634198666E0
1.043420360E1,-8.404789865E-2,-1.034716320E1,2.033301115E0
1.044391579E1,1.049850956E-1,-1.019162941E1,1.499402523E0
1.045362720E1,2.270190418E-1,-1.007647514E1,3.693920076E-1
1.046333944E1,3.559323773E-2,-1.000947666E1,-1.323230863E0
1.047305246E1,-7.378866673E-1,-1.000229740E1,-2.601596355E0
1.048276465E1,-1.875075698E0,-9.925727844E0,-3.147459030E0
1.049247605E1,-2.909074068E0,-1.013150978E1,-2.958425999E0
1.050218829E1,-3.524627686E0,-1.098395348E1,-1.845165372E0
1.051190131E1,-3.775874138E0,-1.196800137E1,-2.051845491E-1
1.052161355E1,-3.531806231E0,-1.253779221E1,3.693920076E-1
1.053132491E1,-2.849253654E0,-1.288235855E1,-7.414759398E-1
1.054103715E1,-2.080858469E0,-1.314826107E1,-1.864308000E0
1.055075017E1,-1.537388563E0,-1.353589821E1,-1.869093537E0
1.056046241E1,-1.386640668E0,-1.366062450E1,-1.940878272E0
1.057017376E1,-1.726421595E0,-1.373719501E1,-2.757428885E0
1.057988605E1,-2.248355865E0,-1.378983688E1,-4.040580273E0
1.058959902E1,-2.605185747E0,-1.379222965E1,-5.192125797E0
1.059931126E1,-2.562114954E0,-1.417777348E1,-5.079663277E0
1.060902262E1,-2.478366137E0,-1.435723495E1,-4.095614910E0
1.061873491E1,-2.727219582E0,-1.369890976E1,-3.101995468E0
1.062844788E1,-3.107977629E0,-1.290150166E1,-2.711965322E0
1.063816012E1,-3.589233875E0,-1.192493057E1,-2.505883455E0
1.064787147E1,-4.156631947E0,-1.089541912E1,-2.113460541E0
1.065758376E1,-4.721637249E0,-1.003579712E1,-1.658525229E0
1.066729673E1,-5.296213627E0,-9.439684868E0,-1.196411371E0
1.067700897E1,-5.820540905E0,-9.119047165E0,-7.654041648E-1
1.068672032E1,-6.095715523E0,-9.176474571E0,2.593221664E-1
1.069643262E1,-6.071787357E0,-9.415757179E0,2.050050735E0
1.070614564E1,-5.159523964E0,-9.794121742E0,4.446462631E0
1.071585782E1,-4.278666019E0,-9.913763046E0,6.158228397E0
1.072556918E1,-3.249154091E0,-1.007408237E1,5.767899036E0
1.073528147E1,-2.128714800E0,-9.956833839E0,3.835993767E0
1.074499449E1,-1.676172256E0,-9.875477791E0,1.073180914E0
1.075470668E1,-1.537388563E0,-9.825228691E0,-1.553241014E0
1.076441803E1,-1.336391449E0,-9.707980156E0,-3.499503136E0
1.077413032E1,-1.668993831E0,-9.336793900E0,-4.267898083E0
1.078384329E1,-1.946860313E0,-8.917751312E0,-3.920938969E0
1.079355553E1,-2.052144527E0,-8.609076500E0,-2.893819809E0
1.080326689E1,-2.076072693E0,-8.606683731E0,-1.897807479E0
1.081297918E1,-1.977967024E0,-9.327222824E0,-1.265803218E0
1.082269220E1,-1.527817249E0,-9.164510727E0,-7.223333120E-1
1.083240438E1,-1.084846020E0,-8.692825317E0,-3.607180119E-1
1.084211574E1,-7.594220638E-1,-8.166105270E0,-2.171486616E-1
1.085182803E1,-7.666005492E-1,-7.510172844E0,-2.123630047E-1
1.086154100E1,-8.072785139E-1,-6.899703979E0,-2.003988922E-1
1.087125324E1,-8.312067389E-1,-6.305984974E0,-2.817548811E-1
1.088096459E1,-8.168498278E-1,-5.953940868E0,-4.734797776E-1
1.089067689E1,-8.479565382E-1,-5.554040432E0,-6.720840335E-1
1.090038985E1,-1.015454054E0,-5.290830135E0,-9.786644578E-1
1.091010209E1,-1.202094316E0,-5.247759342E0,-1.301695466E0
1.091981345E1,-1.592423439E0,-5.219045162E0,-1.498206019E0
1.092952569E1,-2.233999014E0,-5.183153152E0,-1.555633783E0
1.093923871E1,-3.050549746E0,-5.173581600E0,-1.658525229E0
1.094895095E1,-3.663411379E0,-5.259723186E0,-1.735095501E0
1.095866230E1,-3.627519131E0,-5.510969639E0,-1.617847204E0
1.096837454E1,-3.258725405E0,-5.676074505E0,-1.447657704E0
1.097808756E1,-2.925823927E0,-5.800800323E0,-1.505384564E0
1.098779975E1,-2.700898647E0,-5.980261803E0,-2.087139606E0
1.099751116E1,-2.511865616E0,-6.274878502E0,-3.525824070E0
1.100722340E1,-2.231606245E0,-6.717550278E0,-5.223232746E0
1.101693642E1,-1.927717686E0,-7.313662529E0,-6.750751019E0
1.102664860E1,-1.747956991E0,-7.924131393E0,-8.692227364E0
1.103635996E1,-1.896611094E0,-8.525327682E0,-1.102642632E1
1.104607225E1,-2.188535452E0,-9.509077072E0,-1.250848007E1
1.105578522E1,-2.528615236E0,-1.036391354E1,-1.267837048E1
1.106549746E1,-2.574079037E0,-1.129023457E1,-1.156271744E1
1.107520881E1,-2.176571369E0,-1.204935741E1,-9.436993599E0
1.108492105E1,-1.661815286E0,-1.240110207E1,-7.571788311E0
1.109463407E1,-1.137488008E0,-1.236521053E1,-6.834499836E0
1.110434626E1,-6.083751321E-1,-1.218335533E1,-6.523133755E0
1.111405767E1,-5.054838061E-1,-1.228624725E1,-5.893522263E0
1.112376991E1,-5.820540786E-1,-1.271486092E1,-4.732405186E0
1.113348293E1,-8.168498278E-1,-1.290628719E1,-2.956033230E0
1.114319512E1,-4.528416991E-1,-1.260718441E1,-2.453241348E0
1.115290647E1,5.264210105E-1,-1.254497051E1,-3.638286829E0
1.116261876E1,1.117747307E0,-1.239392376E1,-4.629513741E0
1.117233173E1,9.834501147E-1,-1.233888912E1,-4.844867706E0
1.118204397E1,4.232304990E-1,-1.204217911E1,-4.974379063E0
1.119175532E1,-9.125627279E-1,-1.125912762E1,-3.272184849E0
1.120146756E1,-2.621935368E0,-1.045962620E1,-1.136590719E0
1.121118058E1,-3.708875179E0,-9.408578873E0,-1.836491376E-1
1.122089277E1,-4.453341961E0,-8.362317085E0,6.589235067E-1
1.123060413E1,-4.786243439E0,-7.833203793E0,1.585544109E0
1.124031642E1,-4.934598446E0,-7.656135082E0,1.590329766E0
1.125002939E1,-4.728815556E0,-7.153343201E0,9.655039310E-1
1.125974162E1,-4.494019985E0,-6.849454880E0,2.377867550E-1
1.126945298E1,-4.446163654E0,-6.691229343E0,-2.841476798E-1
1.127916522E1,-4.577768803E0,-6.916453838E0,-3.176472187E-1
1.128887824E1,-4.673780918E0,-7.359126091E0,-1.854437590E-2
1.129859043E1,-4.182952881E0,-7.759026527E0,3.649054468E-2
1.130830178E1,-3.644268990E0,-7.842775345E0,-2.410768867E-1
1.131801407E1,-3.198904753E0,-8.087141991E0,-7.654041648E-1
1.132772704E1,-2.985943556E0,-8.240283012E0,-1.294517040E0
1.133743923E1,-2.782254457E0,-8.292924881E0,-1.574776411E0
1.134715064E1,-2.478366137E0,-8.434102058E0,-1.510170221E0
1.135686288E1,-2.229213476E0,-8.714361191E0,-1.079162955E0
1.136657590E1,-1.946860313E0,-9.034998894E0,-2.745763958E-1
1.137628808E1,-1.384247899E0,-9.391828537E0,4.004986882E-1
1.138599944E1,-6.346961856E-1,-9.825228691E0,5.751747489E-1
1.139571168E1,-7.208377868E-2,-1.020120144E1,3.047857881E-1
1.140542470E1,3.993022740E-1,-1.067976570E1,8.195417374E-2
1.141513688E1,1.139282703E0,-1.128066349E1,4.603192508E-1
1.142484824E1,1.325922847E0,-1.159202957E1,6.780661345E-1
1.143456053E1,9.762716293E-1,-1.169492054E1,1.082752272E-1
1.144427350E1,3.753740489E-1,-1.147956657E1,-7.151548862E-1
1.145398569E1,-2.853440940E-1,-1.096481037E1,-1.517348647E0
1.146369709E1,-9.484550953E-1,-1.048116112E1,-2.087139606E0
1.147340933E1,-1.420140266E0,-1.015783119E1,-2.273779631E0
1.148312230E1,-1.721635938E0,-9.686445236E0,-1.888236165E0
1.149283454E1,-1.832004786E0,-9.324830055E0,-1.026520967E0
1.150254590E1,-1.623530149E0,-9.217152596E0,-1.118644550E-1
1.151225814E1,-1.360319614E0,-9.042177200E0,6.972087026E-1
1.152197116E1,-1.161416292E0,-8.910572052E0,9.726824164E-1
1.153168334E1,-9.269196987E-1,-8.800502777E0,7.764709592E-1
1.154139470E1,-6.924230456E-1,-8.647361755E0,2.449652255E-1
1.155110694E1,-2.111666054E-1,-8.968000412E0,-3.873381615E-1
1.156081996E1,-1.031904742E-1,-8.963214874E0,-6.266204119E-1
1.157053215E1,-1.489532143E-1,-9.051749229E0,-5.620142221E-1
1.158024350E1,-4.336991012E-1,-9.310472488E0,-4.112663865E-1
1.158995574E1,-9.843474030E-1,-9.461220741E0,-2.219343036E-1
1.159966876E1,-1.534995675E0,-9.604789734E0,-1.333998591E-1
1.160938095E1,-2.030609131E0,-9.576076508E0,-4.256233275E-1
1.161909230E1,-2.389831543E0,-9.509077072E0,-8.539385796E-1
1.162880454E1,-2.566900492E0,-9.281759262E0,-1.328016520E0
1.163851756E1,-2.669791937E0,-9.126225471E0,-1.706381679E0
1.164822975E1,-2.569293261E0,-9.075976372E0,-1.814058661E0
1.165794110E1,-2.351247311E0,-9.061619759E0,-1.718345761E0
1.166765334E1,-2.061715841E0,-9.104690552E0,-1.483550072E0
1.167736637E1,-1.771885157E0,-9.126225471E0,-1.253839016E0
1.168707855E1,-1.400997639E0,-9.157332420E0,-8.802596331E-1
1.169678991E1,-8.503493667E-1,-8.972785950E0,-8.554340899E-2
1.170650215E1,-2.374876440E-1,-9.559326172E0,5.201398134E-1
1.171621517E1,1.600200087E-1,-9.851550102E0,7.740781307E-1
1.172592735E1,1.289133132E-1,-9.990333557E0,6.828517914E-1
1.173563871E1,-2.183450609E-1,-9.798908234E0,3.215355575E-1
1.174535095E1,-6.275177598E-1,-9.525827408E0,7.238288224E-2
1.175506392E1,-8.647062778E-1,-9.583254814E0,-6.879365444E-2
1.176477616E1,-9.891330600E-1,-9.674481392E0,3.119642437E-1
1.177448751E1,-9.484550953E-1,-9.645767212E0,1.609472275E0
1.178419975E1,-7.713862062E-1,-1.004297543E1,2.734697104E0
1.179391272E1,-5.820540786E-1,-1.061994553E1,2.880659342E0
1.180362496E1,-4.097708762E-1,-1.083320522E1,2.373081923E0
1.181333631E1,-1.609173268E-1,-1.069890785E1,1.461117268E0
1.182304855E1,3.080759197E-2,-1.026102161E1,1.513460279E-1
1.183276152E1,-5.084747914E-3,-1.040219784E1,-1.304088354E0
1.184247371E1,-8.575277925E-1,-1.209482098E1,-1.751845241E0
1.185218506E1,-2.310569286E0,-1.322961712E1,-8.682954907E-1
1.186189735E1,-3.002693415E0,-1.308604813E1,5.563312769E-2
1.187161032E1,-3.050549746E0,-1.350718498E1,-7.510471940E-1
1.188132251E1,-3.182155132E0,-1.337318707E1,-1.732702732E0
1.189103386E1,-3.182155132E0,-1.274118233E1,-2.419741869E0
1.190074610E1,-3.119941711E0,-1.249711418E1,-3.111566782E0
1.191045913E1,-3.368795156E0,-1.251865005E1,-3.243471146E0
1.192017131E1,-3.677768469E0,-1.240110207E1,-3.518645763E0
1.192988267E1,-3.613162279E0,-1.238913822E1,-4.289433479E0
1.193959491E1,-3.174976587E0,-1.267657661E1,-4.727619171E0
1.194930788E1,-2.514258385E0,-1.298794174E1,-4.193720818E0
1.195902006E1,-1.688136339E0,-1.290867996E1,-3.200400352E0
1.196873142E1,-1.111167073E0,-1.251147175E1,-2.431705952E0
1.197844366E1,-1.099202871E0,-1.201107216E1,-1.708774447E0
1.198815668E1,-1.561316729E0,-1.139342499E1,-6.529414654E-1
1.199786887E1,-2.336890459E0,-1.077099228E1,4.627120793E-1
1.200758022E1,-3.124727249E0,-1.003579712E1,1.231107235E0
1.201729246E1,-4.015156269E0,-9.379864693E0,1.621436477E0
1.202700543E1,-4.776672363E0,-8.934500694E0,1.928016901E0
1.203671762E1,-4.960919380E0,-8.857930183E0,2.117049932E0
1.204642897E1,-4.826921463E0,-8.877073288E0,2.222334146E0
1.205614126E1,-4.472484589E0,-9.032606125E0,2.030908108E0
1.206585423E1,-3.490829229E0,-9.604789734E0,1.798505306E0
1.207556642E1,-2.243570328E0,-1.022991467E1,1.698006749E0
1.208527777E1,-1.381855130E0,-1.062473106E1,1.061216831E0
1.209499001E1,-1.036989570E0,-1.075184917E1,-4.280161560E-1
1.210470298E1,-1.204487085E0,-1.050508976E1,-1.840379715E0
1.211441517E1,-1.554138303E0,-1.022512913E1,-2.493919373E0
1.212412652E1,-1.836790442E0,-9.791728973E0,-2.640180588E0
1.213383876E1,-2.037787676E0,-9.408578873E0,-2.417349100E0
1.214355178E1,-2.214856386E0,-9.312865257E0,-1.883450508E0
1.215326397E1,-2.078465462E0,-9.078369141E0,-1.124626637E0
1.216297532E1,-1.752742529E0,-8.613862038E0,-5.333003402E-1
1.217268756E1,-1.558923960E0,-8.113463402E0,-2.626122832E-1
1.218240053E1,-1.427318692E0,-7.574779034E0,-1.956132501E-1
1.219211272E1,-1.482353687E0,-7.155735970E0,-2.003988922E-1
1.220182407E1,-1.724028707E0,-6.688836575E0,-1.884347796E-1
1.221153631E1,-1.815255046E0,-6.339484692E0,-1.932204217E-1
1.222124928E1,-1.747956991E0,-6.142973900E0,-2.530409992E-1
1.223096147E1,-1.585245013E0,-6.044867992E0,-3.320041299E-1
1.224067282E1,-1.592423439E0,-5.987440586E0,-4.399802685E-1
1.225038512E1,-1.810469389E0,-5.946762562E0,-5.691927075E-1
1.226009808E1,-2.066501379E0,-5.951548100E0,-7.510471940E-1
1.226981027E1,-2.241177559E0,-5.980261803E0,-8.922237158E-1
1.227952163E1,-2.334497690E0,-6.119045734E0,-1.002592683E0
1.228923386E1,-2.440080881E0,-6.286842346E0,-1.064806104E0
1.229894683E1,-2.475973129E0,-6.499803543E0,-1.076770186E0
1.230865902E1,-2.380260229E0,-6.717550278E0,-1.060020447E0
1.231837038E1,-2.245963097E0,-6.830312252E0,-1.050449133E0
1.232808262E1,-2.176571369E0,-6.961917400E0,-1.383051515E0
1.233779558E1,-2.025823355E0,-7.119843960E0,-2.053340912E0
1.234750777E1,-1.860718727E0,-7.251449108E0,-2.680858612E0
1.235721912E1,-1.752742529E0,-7.471887589E0,-3.568894863E0
1.236693137E1,-1.551745534E0,-7.782954693E0,-4.818546772E0
1.237664433E1,-1.360319614E0,-8.247461319E0,-6.530312061E0
1.238635652E1,-1.159023523E0,-8.910572052E0,-8.244769096E0
1.239606788E1,-1.039382339E0,-9.679266930E0,-9.453742981E0
1.240578017E1,-8.742775917E-1,-1.079970551E1,-1.011685371E1
1.241549314E1,-7.594220638E-1,-1.180738354E1,-1.052393341E1
1.242520532E1,-7.067800164E-1,-1.253061390E1,-1.003789139E1
1.243491663E1,-6.900302172E-1,-1.297328663E1,-8.764012337E0
1.244462892E1,-7.378866673E-1,-1.299990654E1,-7.413861752E0
1.245434189E1,-8.024929166E-1,-1.270050430E1,-6.664609432E0
1.246405407E1,-8.359923959E-1,-1.202064323E1,-6.334100723E0
1.247376543E1,-8.910273314E-1,-1.134078312E1,-5.895915031E0
1.248347767E1,-1.230808139E0,-1.108923721E1,-4.924129963E0
1.249319064E1,-2.133500576E0,-1.144845963E1,-3.619144201E0
1.250290282E1,-2.667398930E0,-1.145563793E1,-2.125424623E0
1.251261418E1,-2.236391783E0,-1.117059326E1,-1.356730461E0
1.252232642E1,-7.833502889E-1,-1.096959591E1,-1.608275890E0
1.253203939E1,4.761717021E-1,-1.121127129E1,-2.223530531E0
1.254175157E1,7.369893789E-1,-1.094327545E1,-2.814856768E0
1.255146293E1,2.365903407E-1,-1.039023399E1,-3.937688828E0
1.256117517E1,-1.846361756E0,-9.770194054E0,-4.715655327E0
1.257088814E1,-3.699303865E0,-8.915358543E0,-5.041378021E0
1.258060032E1,-4.249952316E0,-8.786145210E0,-3.300898790E0
1.259031168E1,-4.515555382E0,-9.008678436E0,1.875374764E-1
1.260002392E1,-4.180560112E0,-9.114261627E0,2.528914452E0
1.260973688E1,-3.529413462E0,-8.996713638E0,3.120240688E0
1.261944907E1,-3.050549746E0,-8.566005707E0,2.136192322E0
1.262916043E1,-2.892324448E0,-7.902595997E0,2.162513435E-1
1.263887267E1,-3.153441191E0,-7.289734364E0,-1.153340459E0
1.264858564E1,-3.672982693E0,-7.153343201E0,-9.643075466E-1
1.265829782E1,-3.783052683E0,-7.706384659E0,1.016949583E-2
1.266800918E1,-3.373580933E0,-8.343173981E0,6.684948206E-1
1.267772142E1,-2.938086987E0,-8.621041298E0,1.288534999E0
1.268743439E1,-2.564507723E0,-8.915358543E0,1.513759375E0
1.269714657E1,-2.495115757E0,-8.924929619E0,1.219143152E0
1.270685793E1,-2.588435888E0,-8.776574135E0,4.722833633E-1
1.271657017E1,-2.557329178E0,-8.673683167E0,-3.726821244E-1
1.272628314E1,-2.277069807E0,-8.762217522E0,-7.055835724E-1
1.273599532E1,-1.906182289E0,-9.061619759E0,-5.835496187E-1
1.274570662E1,-1.673779488E0,-9.607182503E0,1.256231871E-2
1.275541887E1,-1.235593796E0,-1.022512913E1,5.919244885E-1
1.276513188E1,-8.455637097E-1,-1.066540909E1,5.392823815E-1
1.277484407E1,-4.265206456E-1,-1.093131161E1,4.938187599E-1
1.278455538E1,-2.135594189E-1,-1.099352455E1,5.536393523E-1
1.279426762E1,-9.122636169E-2,-1.095763206E1,5.297111273E-1
1.280398058E1,-1.465603895E-2,-1.088345432E1,1.947159469E-1
1.281369277E1,-1.055833027E-1,-1.057926750E1,-7.597211748E-2
1.282340413E1,-2.422732860E-1,-1.015543842E1,-2.315055877E-1
1.283311636E1,-5.437689424E-1,-9.624231339E0,-4.064807594E-1
1.284282933E1,-8.240283132E-1,-9.154939651E0,-6.840481758E-1
1.285254152E1,-1.144666553E0,-8.738288879E0,-6.960122585E-1
1.286225288E1,-1.223629713E0,-8.539685249E0,-5.428716540E-1
1.287196512E1,-1.111167073E0,-8.477172852E0,-3.678964674E-1
1.288167808E1,-8.670991063E-1,-8.625826836E0,-1.022931710E-1
1.289139027E1,-5.150550604E-1,-8.924929619E0,3.071786165E-1
1.290110162E1,-3.523431420E-1,-9.188439369E0,5.033900738E-1
1.291081387E1,-2.805584669E-1,-9.559326172E0,4.890331328E-1
1.292052683E1,-4.001995921E-1,-9.846764565E0,4.220340848E-1
1.293023902E1,-4.815555513E-1,-1.008604622E1,1.633101404E-1
1.293995032E1,-6.825526357E-1,-1.014108181E1,-3.128615618E-1
1.294966256E1,-9.963115454E-1,-9.995119095E0,-8.467600942E-1
1.295937553E1,-1.338784218E0,-9.818050385E0,-1.406979680E0
1.296908772E1,-1.745564103E0,-9.640981674E0,-1.770987868E0
1.297879907E1,-2.181356907E0,-9.413364410E0,-1.723131418E0
1.298851131E1,-2.382653236E0,-9.291330338E0,-1.452443361E0
1.299822428E1,-2.406581402E0,-9.315258980E0,-1.158126116E0
1.300793647E1,-2.068894386E0,-9.394221306E0,-7.845467329E-1
1.301764782E1,-1.501496196E0,-9.583254814E0,-3.032902777E-1
1.302736006E1,-9.197412133E-1,-9.808479309E0,5.802594870E-2
1.303707303E1,-7.546364665E-1,-9.959226608E0,3.909274042E-1
1.304678522E1,-8.934201598E-1,-9.947262764E0,6.780661345E-1
1.305649652E1,-9.173483849E-1,-9.786943436E0,9.200403094E-1
1.306620876E1,-8.335995674E-1,-9.580862045E0,7.597211599E-1
1.307592173E1,-7.905287743E-1,-9.382257462E0,1.322034448E-1
1.308563392E1,-8.407780528E-1,-9.267401695E0,-3.439682424E-1
1.309534527E1,-9.101698995E-1,-9.193224907E0,-3.008974493E-1
1.310505751E1,-1.029811025E0,-9.178867340E0,3.311068416E-1
1.311477048E1,-7.857431173E-1,-9.681659698E0,1.654935956E0
1.312448267E1,-6.825526357E-1,-1.010040379E1,3.361915827E0
1.313419402E1,-5.413761139E-1,-1.052423191E1,3.977170229E0
1.314390626E1,-3.667000830E-1,-1.064387321E1,3.333201885E0
1.315361923E1,-1.680957973E-1,-1.074227810E1,1.853540182E0
1.316333137E1,-1.369891018E-1,-1.058166027E1,-2.530409992E-1
1.317304272E1,-4.073780477E-1,-1.049073315E1,-2.108675003E0
1.318275496E1,-1.087238789E0,-1.099591732E1,-2.735893488E0
1.319246793E1,-2.073679924E0,-1.191775227E1,-1.742274046E0
1.320218012E1,-2.976372242E0,-1.258086300E1,9.870393574E-2
1.321189147E1,-3.275475025E0,-1.284168053E1,1.704886109E-1
1.322160371E1,-3.148655415E0,-1.267657661E1,-1.332802176E0
1.323131668E1,-3.105584621E0,-1.231017494E1,-2.192423820E0
1.324102886E1,-3.139084101E0,-1.219771290E1,-2.587239504E0
1.325074017E1,-3.072085142E0,-1.251865005E1,-2.326421738E0
1.326045241E1,-2.882753134E0,-1.290628719E1,-1.881057739E0
1.327016538E1,-2.700898647E0,-1.302622700E1,-2.149353027E0
1.327987756E1,-2.454437733E0,-1.290867996E1,-3.315255880E0
1.328958892E1,-2.385046005E0,-1.287996578E1,-4.473979950E0
1.329930116E1,-2.475973129E0,-1.268136215E1,-4.873880386E0
1.330901413E1,-2.743969440E0,-1.236042404E1,-4.540979385E0
1.331872631E1,-3.167798042E0,-1.192732334E1,-3.614358664E0
1.332843762E1,-3.368795156E0,-1.154178047E1,-2.331207514E0
1.333814985E1,-3.280260801E0,-1.114905834E1,-1.306481123E0
1.334786282E1,-3.189333439E0,-1.087388325E1,-6.409773827E-1
1.335757501E1,-3.318545818E0,-1.051226807E1,1.369891018E-1
1.336728636E1,-3.775874138E0,-1.009083176E1,7.259225845E-1
1.337699860E1,-4.266701698E0,-9.774979591E0,1.111466169E0
1.338671157E1,-4.762315273E0,-9.506684303E0,1.278963685E0
1.339642376E1,-4.992026329E0,-9.355937004E0,1.430010676E0
1.340613506E1,-4.728815556E0,-9.363115311E0,1.506580949E0
1.341584730E1,-3.835694790E0,-9.803693771E0,1.635793328E0
1.342556027E1,-2.830111027E0,-1.047637558E1,1.997408748E0
1.343527246E1,-1.899003863E0,-1.095763206E1,2.035693884E0
1.344498381E1,-1.142273664E0,-1.112034416E1,1.178465128E0
1.345469605E1,-1.077667475E0,-1.106770229E1,-3.032902777E-1
1.346440902E1,-1.379462242E0,-1.078774166E1,-1.782951951E0
1.347412121E1,-1.834397674E0,-1.031844902E1,-2.723929405E0
1.348383251E1,-1.841576099E0,-9.770194054E0,-2.982354403E0
1.349354475E1,-1.714457393E0,-9.186046600E0,-2.544168711E0
1.350325772E1,-1.479960799E0,-8.944071770E0,-1.912164450E0
1.351296991E1,-1.223629713E0,-9.250652313E0,-1.466800332E0
1.352268126E1,-8.910273314E-1,-8.889037132E0,-1.028913736E0
1.353239350E1,-6.562315822E-1,-8.462815285E0,-6.744768620E-1
1.354210647E1,-4.025924206E-1,-8.132605553E0,-3.559323549E-1
1.355181866E1,-5.150550604E-1,-7.687242031E0,-2.338984162E-1
1.356152996E1,-6.948158741E-1,-7.167700291E0,-1.908276081E-1
1.357124220E1,-8.766704202E-1,-6.734300137E0,-1.716850251E-1
1.358095517E1,-1.058524966E0,-6.298806667E0,-2.171486616E-1
1.359066735E1,-1.286142230E0,-5.934798241E0,-3.559323549E-1
1.360037871E1,-1.513460279E0,-5.714658737E0,-5.572285652E-1
1.361009090E1,-1.764706731E0,-5.525326729E0,-7.390831113E-1
1.361980387E1,-2.033001900E0,-5.415256977E0,-9.475577474E-1
1.362951605E1,-2.334497690E0,-5.329114914E0,-1.138983607E0
1.363922741E1,-2.588435888E0,-5.286044121E0,-1.205982566E0
1.364893965E1,-2.691327333E0,-5.326722145E0,-1.124626637E0
1.365865262E1,-2.758326292E0,-5.388935566E0,-1.100698471E0
1.366836480E1,-2.777468920E0,-5.513362408E0,-1.117448211E0
1.367807610E1,-2.715255499E0,-5.697908878E0,-1.253839016E0
1.368778834E1,-2.590828657E0,-5.879763603E0,-1.447657704E0
1.369750131E1,-2.461616278E0,-6.169294834E0,-1.818844318E0
1.370721350E1,-2.387438774E0,-6.459125519E0,-2.623430967E0
1.371692485E1,-2.344068766E0,-6.741478920E0,-3.995116472E0
1.372663709E1,-2.186142683E0,-7.210771084E0,-5.855237007E0
1.373635006E1,-1.915753603E0,-7.821239948E0,-7.701299667E0
1.374606220E1,-1.470389485E0,-8.893822670E0,-9.714560509E0
1.375577355E1,-9.364909530E-1,-1.028973579E1,-1.114397335E1
1.376548579E1,-5.844469070E-1,-1.162552929E1,-1.121336555E1
1.377519876E1,-2.422732860E-1,-1.281296730E1,-1.056461143E1
1.378491095E1,1.863410622E-1,-1.357448292E1,-9.525527954E0
1.379462225E1,1.336989701E-1,-1.368455315E1,-8.505587578E0
1.380433449E1,-5.413761139E-1,-1.316022587E1,-7.978867054E0
1.381404746E1,-1.333998680E0,-1.217617702E1,-7.617251873E0
1.382375965E1,-1.635494232E0,-1.125194931E1,-7.061817646E0
1.383347100E1,-1.846361756E0,-1.067737293E1,-5.709274769E0
1.384318319E1,-2.461616278E0,-1.083559799E1,-4.143471718E0
1.385289616E1,-3.213261604E0,-1.104855919E1,-2.254637241E0
1.386260834E1,-3.431008577E0,-1.070847988E1,-9.185447693E-1
1.387231970E1,-2.739183664E0,-1.044766140E1,-1.383051515E0
1.388203194E1,-1.221236825E0,-1.017458057E1,-3.135494947E0
1.389174491E1,-1.250249892E-1,-1.027059269E1,-5.733202934E0
1.390145704E1,2.270190418E-1,-9.999904633E0,-7.318149090E0
1.391116840E1,-7.929216027E-1,-9.928120613E0,-5.656632900E0
1.392088064E1,-2.336890459E0,-1.006690407E1,-3.549752474E0
1.393059360E1,-2.669791937E0,-9.856335640E0,-2.714358091E0
1.394030579E1,-2.485544443E0,-9.691230774E0,-5.907281041E-1
1.395001709E1,-2.418545485E0,-9.688838005E0,2.741875648E0
1.395972933E1,-2.360818624E0,-9.293723106E0,3.661317825E0
1.396944230E1,-2.485544443E0,-8.647361755E0,2.131406784E0
1.397915449E1,-3.036192894E0,-7.883453369E0,6.397809386E-1
1.398886579E1,-4.012763500E0,-7.146164894E0,-2.482553422E-1
1.399857803E1,-5.253142834E0,-6.617052078E0,-5.620142221E-1
1.400829100E1,-5.818148136E0,-6.660122871E0,-4.686941206E-1
1.401800319E1,-5.054239750E0,-7.320840836E0,-4.088735580E-1
1.402771454E1,-3.598805189E0,-8.017750740E0,-2.267199457E-1
1.403742673E1,-2.406581402E0,-8.711968422E0,2.162513435E-1
1.404713970E1,-1.618744493E0,-9.111868858E0,2.114657015E-1
1.405685188E1,-1.300499082E0,-9.241081238E0,-3.777668774E-1
1.406656324E1,-1.211665511E0,-9.327222824E0,-1.129412293E0
1.407627548E1,-1.106381416E0,-9.497113228E0,-1.349551916E0
1.408598840E1,-9.484550953E-1,-9.774979591E0,-1.105484009E0
1.409570058E1,-7.043871880E-1,-1.018445110E1,-8.754739761E-1
1.410541194E1,-5.126622319E-1,-1.060798073E1,-8.850452900E-1
1.411512418E1,-5.150550604E-1,-1.097438240E1,-8.850452900E-1
1.412483715E1,-3.355933726E-1,-1.126152039E1,-8.419744968E-1
1.413454928E1,-1.151545867E-1,-1.121605682E1,-1.227517962E0
1.414426064E1,-4.336991161E-2,-1.117777157E1,-1.428515077E0
1.415397288E1,6.909275055E-2,-1.118255711E1,-1.299302697E0
1.416368584E1,5.712864175E-2,-1.109402275E1,-9.667003751E-1
1.417339798E1,-3.020938635E-1,-1.076859951E1,-6.553342938E-1
1.418310933E1,-7.522436380E-1,-1.030169964E1,-4.998008311E-1
1.419282157E1,-1.027418256E0,-9.731908798E0,-7.151548862E-1
1.420253454E1,-1.108774185E0,-9.241081238E0,-9.690931439E-1
1.421224668E1,-1.051346421E0,-8.805288315E0,-9.571290612E-1
1.422195803E1,-9.029914737E-1,-8.623434067E0,-8.156534433E-1
1.423167027E1,-7.139584422E-1,-8.597112656E0,-5.356931686E-1
1.424138324E1,-4.193421602E-1,-8.707182884E0,-2.626122832E-1
1.425109538E1,-1.896311939E-1,-8.850751877E0,-1.375873014E-2
1.426080673E1,-1.345962733E-1,-8.932107925E0,-7.118647546E-2
1.427051897E1,-3.212364316E-1,-8.901000977E0,-3.993022740E-1
1.428023194E1,-7.211369276E-1,-8.929715157E0,-7.414759398E-1
1.428994407E1,-1.187737346E0,-9.018249512E0,-1.019342422E0
1.429965543E1,-1.563709617E0,-9.080761909E0,-1.198804140E0
1.430936767E1,-1.875075698E0,-9.073583603E0,-1.055234790E0
1.431908064E1,-2.001895189E0,-9.102297783E0,-9.185447693E-1
1.432879277E1,-1.894218206E0,-9.135796547E0,-9.571290612E-1
1.433850412E1,-1.664208174E0,-9.217152596E0,-9.738788009E-1
1.434821636E1,-1.479960799E0,-9.320044518E0,-8.946165442E-1
1.435792933E1,-1.211665511E0,-9.468399048E0,-8.347960114E-1
1.436764147E1,-9.771689177E-1,-9.655338287E0,-7.558328509E-1
1.437735282E1,-8.335995674E-1,-9.839586258E0,-5.955137610E-1
1.438706506E1,-5.940182209E-1,-9.949655533E0,-5.883352757E-1
1.439677803E1,-3.571287692E-1,-9.983155251E0,-7.342974544E-1
1.440649017E1,-1.199402362E-1,-9.853942871E0,-8.946165442E-1
1.441620152E1,-3.858426586E-2,-9.657731056E0,-8.611170650E-1
1.442591376E1,-1.704886183E-2,-9.487542152E0,-9.017950296E-1
1.443562668E1,-1.561316848E-1,-9.542576790E0,-9.017950296E-1
1.444533886E1,-4.384847581E-1,-9.475577354E0,-6.242275834E-1
1.445505022E1,-8.694919348E-1,-9.399007797E0,-1.836491376E-1
1.446476241E1,-1.228415370E0,-9.442078590E0,2.138585299E-1
1.447447538E1,-1.405783296E0,-9.434899330E0,5.249254704E-1
1.448418756E1,-1.467996716E0,-9.446864128E0,8.267202377E-1
1.449389892E1,-1.333998680E0,-9.456435204E0,1.492223978E0
1.450361110E1,-1.108774185E0,-9.477970123E0,2.248655081E0
1.451332407E1,-8.718847632E-1,-9.968798637E0,2.433201551E0
1.452303626E1,-5.868397355E-1,-1.029212856E1,2.052443504E0
1.453274756E1,-1.944168359E-1,-1.058405304E1,1.037288666E0
1.454245980E1,-9.870393202E-3,-1.066540909E1,-5.452644825E-1
1.455217277E1,-5.294119939E-2,-1.103659534E1,-1.974377751E0
1.456188496E1,-7.402794957E-1,-1.191296673E1,-2.178066730E0
1.457159626E1,-1.628315806E0,-1.213071346E1,-1.198804140E0
1.458130850E1,-2.155035973E0,-1.237956715E1,-8.419744968E-1
1.459102147E1,-2.473580360E0,-1.234606743E1,-1.110269666E0
1.460073360E1,-2.746362209E0,-1.225274754E1,-1.692024708E0
1.461044496E1,-2.820539713E0,-1.242533016E1,-2.656930447E0
1.462015720E1,-2.720041037E0,-1.280339622E1,-3.370290756E0
1.462987012E1,-2.595614433E0,-1.324876022E1,-3.377469063E0
1.463958230E1,-2.444866419E0,-1.338515091E1,-3.779762506E0
1.464929366E1,-2.346461773E0,-1.339711475E1,-4.550550461E0
1.465900584E1,-2.207678080E0,-1.334447289E1,-4.663012981E0
1.466871881E1,-2.056930065E0,-1.316740417E1,-4.375874519E0
1.467843100E1,-1.910967946E0,-1.265264797E1,-3.956831455E0
1.468814235E1,-1.956431627E0,-1.202064323E1,-3.296113253E0
1.469785454E1,-2.049751759E0,-1.150110245E1,-2.249851465E0
1.470756751E1,-2.083251238E0,-1.096720314E1,-1.071984529E0
1.471727970E1,-2.178964138E0,-1.040937710E1,-1.549352705E-1
1.472699100E1,-2.066501379E0,-9.956833839E0,4.603192508E-1
1.473670324E1,-1.762313843E0,-9.655338287E0,1.247856975E0
1.474641621E1,-1.752742529E0,-9.542576790E0,2.205584288E0
1.475612834E1,-2.033001900E0,-9.568898201E0,3.074777126E0
1.476583970E1,-2.308176517E0,-9.655338287E0,3.299702406E0
1.477555194E1,-2.464009047E0,-9.528220177E0,3.053241730E0
1.478526485E1,-2.312962294E0,-9.662516594E0,2.088335991E0
1.479497704E1,-2.018645048E0,-9.990333557E0,9.272187948E-1
1.480468840E1,-1.539781332E0,-1.046441174E1,2.904288471E-1
1.481440058E1,-1.439282775E0,-1.086431217E1,-2.099701911E-1
1.482411355E1,-1.460818172E0,-1.118734360E1,-9.906286001E-1
1.483382574E1,-1.841576099E0,-1.116820049E1,-1.833201289E0
1.484353704E1,-2.279462576E0,-1.089302635E1,-2.453241348E0
1.485324928E1,-2.485544443E0,-1.059840965E1,-2.836392164E0
1.486296220E1,-2.607578516E0,-1.016979504E1,-2.745464802E0
1.487267439E1,-2.454437733E0,-9.853942871E0,-2.469991207E0
1.488238574E1,-2.341675997E0,-9.509077072E0,-2.194816589E0
1.489209793E1,-2.229213476E0,-9.001500130E0,-1.668096542E0
1.490181090E1,-2.068894386E0,-8.506185532E0,-1.055234790E0
1.491152308E1,-2.109572172E0,-7.953144073E0,-6.050850153E-1
1.492123439E1,-2.233999014E0,-7.368697166E0,-3.248256743E-1
1.493094662E1,-2.126322031E0,-6.806085110E0,-1.621137410E-1
1.494065959E1,-2.083251238E0,-6.301199436E0,-1.046859920E-1
1.495037173E1,-2.016252279E0,-5.970690727E0,-5.922235921E-2
1.496008308E1,-2.102393866E0,-5.695516109E0,1.974078640E-2
1.496979527E1,-2.116750717E0,-5.496612549E0,1.489532143E-1
1.497950824E1,-2.135893345E0,-5.434399128E0,2.234298140E-1
1.498922043E1,-2.327319145E0,-5.458327770E0,1.875374764E-1
1.499893173E1,-2.595614433E0,-5.566004753E0,9.870393574E-2
1.500864397E1,-2.700898647E0,-5.831906796E0,5.324030295E-2
1.501835694E1,-2.676970243E0,-6.171687603E0,2.452643216E-2
1.502806907E1,-2.581257343E0,-6.514160633E0,-6.879365444E-2
1.503778043E1,-2.483151674E0,-6.765407085E0,-2.673979402E-1
