"Time (s)","Gyroscope x (rad/s)","Gyroscope y (rad/s)","Gyroscope z (rad/s)"
3.746089600E-2,-3.223899126E0,3.710897267E-2,-2.002051920E-1
4.717167700E-2,-2.864720821E0,-5.273138881E-1,-1.452289373E-1
5.688454200E-2,-2.580066204E0,-5.566345453E-1,-1.818797737E-1
6.659646900E-2,-2.279529333E0,-5.493044257E-1,-2.124221325E-1
7.630766700E-2,-1.998539567E0,-4.564556181E-1,-2.270824611E-1
8.601969800E-2,-1.796959877E0,-2.304421216E-1,-2.344126403E-1
9.573251000E-2,-1.715106368E0,1.055238619E-1,-2.295258641E-1
1.054444900E-1,-1.729766726E0,3.962871730E-1,-2.124221325E-1
1.151556870E-1,-1.799403310E0,5.099047422E-1,-1.867665499E-1
1.248676670E-1,-1.871483326E0,4.805840850E-1,-1.611109674E-1
1.345805310E-1,-1.895917177E0,3.498627543E-1,-1.415638477E-1
1.442924580E-1,-1.859266400E0,1.409530044E-1,-1.378987730E-1
1.540037080E-1,-1.773747683E0,-1.046075895E-1,-1.513374150E-1
1.637156870E-1,-1.652799964E0,-3.232909143E-1,-1.794363856E-1
1.734285000E-1,-1.518413544E0,-4.857762754E-1,-2.087570578E-1
1.831404790E-1,-1.369366884E0,-5.370874405E-1,-2.392994165E-1
1.928516770E-1,-1.198329568E0,-4.808894992E-1,-2.747285664E-1
2.025637080E-1,-1.017518878E0,-3.880407214E-1,-2.942756712E-1
2.122765210E-1,-8.367080092E-1,-2.903051674E-1,-3.064926267E-1
2.219884480E-1,-6.534538269E-1,-2.072299272E-1,-3.309265077E-1
2.316996980E-1,-4.714213610E-1,-1.534753740E-1,-3.468085229E-1
2.414116770E-1,-2.759502530E-1,-1.156028435E-1,-3.211529553E-1
2.511244900E-1,-5.482354015E-2,-7.650861889E-2,-2.527380586E-1
2.608364690E-1,1.614163816E-1,-5.329642445E-2,-1.635543555E-1
2.705476670E-1,3.642176688E-1,-4.230117425E-2,-7.803573459E-2
2.802596980E-1,5.657972693E-1,-4.230117425E-2,-4.734066315E-3
2.899725100E-1,7.661551833E-1,-5.818320066E-2,5.757235363E-2
2.996844370E-1,9.628480077E-1,-1.082726792E-1,1.039967462E-1
3.093956870E-1,1.141215444E0,-1.693574041E-1,1.259872466E-1
3.191076670E-1,1.287818789E0,-2.377723008E-1,1.211004704E-1
3.288205310E-1,1.394106150E0,-3.245126009E-1,8.933641016E-2
3.385324580E-1,1.468629479E0,-3.746020794E-1,2.947338112E-2
3.482436560E-1,1.508945465E0,-3.110739589E-1,-4.260659590E-2
3.579556870E-1,1.511388779E0,-9.239064902E-2,-1.146865711E-1
3.676685000E-1,1.480846524E0,2.936648130E-1,-1.586675793E-1
3.773804270E-1,1.397771239E0,8.495358229E-1,-1.452289373E-1
3.870916770E-1,1.256054640E0,1.448166132E0,-9.147437662E-2
3.968036560E-1,1.082574010E0,1.883089423E0,-7.314895838E-2
4.065165210E-1,8.748859763E-1,2.088334084E0,-1.171299592E-1
4.162284480E-1,6.305471063E-1,1.924626946E0,-2.124221325E-1
4.259396460E-1,3.727695346E-1,1.346765518E0,-3.077143133E-1
4.356516770E-1,1.039967462E-1,5.990884304E-1,-3.773508966E-1
4.453644900E-1,-1.537808031E-1,-6.429167092E-2,-4.201101959E-1
4.550764690E-1,-3.614688516E-1,-5.639647245E-1,-4.164451063E-1
4.647876670E-1,-4.689779878E-1,-7.374453545E-1,-3.614688516E-1
4.744996460E-1,-4.372139275E-1,-5.358657837E-1,-2.710634768E-1
4.842125100E-1,-3.382566571E-1,-3.819322586E-1,-1.940967143E-1
4.939244370E-1,-2.368560284E-1,-1.009425074E-1,-2.588465214E-1
5.036356350E-1,-1.269035190E-1,4.011739492E-1,-4.457657933E-1
5.133476670E-1,-8.047912270E-2,7.200362086E-1,-6.045860648E-1
5.230604790E-1,-1.757712960E-1,6.650599241E-1,-6.754443645E-1
5.327724580E-1,-3.187095523E-1,2.521272004E-1,-6.119162440E-1
5.424836560E-1,-4.152234197E-1,-2.157817930E-1,-4.579827189E-1
5.521956350E-1,-3.529170156E-1,-8.070819378E-1,-2.832804024E-1
5.619085000E-1,-1.537808031E-1,-1.507265568E0,-1.195733473E-1
5.716204270E-1,5.146388337E-2,-1.895764470E0,-2.183778957E-2
5.813316250E-1,2.261662036E-1,-1.931193590E0,1.969982497E-2
5.910436560E-1,3.886515796E-1,-1.862778664E0,5.879404768E-2
6.007564690E-1,5.389199853E-1,-1.768708229E0,1.357607991E-1
6.104684480E-1,6.916317940E-1,-1.594005942E0,2.554868758E-1
6.201796460E-1,8.528954983E-1,-1.323858738E0,3.629959822E-1
6.298916250E-1,9.885035753E-1,-9.793408513E-1,3.947600424E-1
6.396044900E-1,1.103342891E0,-6.372663975E-1,3.593308926E-1
6.493164170E-1,1.208408594E0,-3.367295563E-1,2.994678617E-1
6.590276670E-1,1.330578089E0,-5.207473040E-2,2.334963679E-1
6.687396460E-1,1.473516345E0,2.240282297E-1,1.699682474E-1
6.784524580E-1,1.606680989E0,4.512633979E-1,1.198787764E-1
6.881644370E-1,1.706859946E0,5.868715048E-1,8.811471611E-2
6.978756350E-1,1.770540833E0,6.491779089E-1,8.689302206E-2
7.075876150E-1,1.796196342E0,7.127060294E-1,1.113269106E-1
7.173004790E-1,1.792531252E0,7.627955079E-1,1.711899489E-1
7.270124060E-1,1.754658699E0,7.640172243E-1,2.322746664E-1
7.367236560E-1,1.675095916E0,6.907155514E-1,2.579302490E-1
7.464356350E-1,1.581025362E0,4.854708612E-1,2.273878902E-1
7.561485000E-1,1.497950196E0,2.606790662E-1,1.699682474E-1
7.658604270E-1,1.423426867E0,1.104106456E-1,1.088835225E-1
7.755716250E-1,1.358677030E0,2.977880463E-2,5.757235363E-2
7.852836560E-1,1.315917730E0,-4.107947648E-2,2.458660305E-2
7.949964690E-1,1.291483760E0,-1.204896197E-1,1.359135192E-2
8.047084480E-1,1.263384819E0,-2.231119573E-1,2.214321308E-2
8.144196460E-1,1.214517117E0,-3.489464819E-1,5.268557742E-2
8.241316250E-1,1.155875683E0,-4.515688419E-1,9.177979827E-2
8.338444900E-1,1.102121115E0,-5.126535892E-1,1.443126649E-1
8.435564690E-1,1.067913771E0,-5.383091569E-1,2.212794125E-1
8.532676670E-1,1.041036487E0,-5.126535892E-1,3.129065037E-1
8.629796460E-1,1.016602516E0,-4.283566475E-1,3.996468186E-1
8.726925100E-1,1.025154471E0,-3.513898849E-1,4.619532526E-1
8.824044370E-1,1.067913771E0,-3.086305857E-1,4.717268050E-1
8.921156350E-1,1.131441832E0,-2.170034945E-1,4.277457893E-1
9.018276670E-1,1.201078415E0,-6.551336497E-2,3.691044450E-1
9.115404790E-1,1.263384819E0,9.575030953E-2,2.909159958E-1
9.212524580E-1,1.303700805E0,2.289150059E-1,2.041756958E-1
9.309636560E-1,1.309809208E0,3.266505599E-1,1.284306347E-1
9.406756870E-1,1.264606595E0,3.852919042E-1,9.300149232E-2
9.503885000E-1,1.153432369E0,4.133908749E-1,1.064401343E-1
9.601004790E-1,9.982771277E-1,4.072824121E-1,1.540862173E-1
9.698116770E-1,8.321266770E-1,3.608580232E-1,2.310529798E-1
9.795236560E-1,6.806365848E-1,3.132119179E-1,3.202366829E-1
9.892365210E-1,5.499152541E-1,3.352024257E-1,3.800997138E-1
9.989485000E-1,4.387410581E-1,4.402681589E-1,3.947600424E-1
1.008659698E0,3.471139669E-1,5.844281316E-1,3.605526090E-1
1.018371677E0,2.909159958E-1,7.065975666E-1,2.823641598E-1
1.028084542E0,2.945810854E-1,7.273663878E-1,1.687465608E-1
1.037796469E0,3.471139669E-1,6.479562521E-1,6.245913357E-2
1.047507719E0,4.045335948E-1,5.587725043E-1,3.817795310E-3
1.057219698E0,4.350759685E-1,5.135698318E-1,-5.955760833E-3
1.066932562E0,4.314108789E-1,5.135698318E-1,1.603474095E-2
1.076644490E0,3.764346242E-1,5.428904891E-1,5.146388337E-2
1.086355740E0,2.420482337E-1,6.235223413E-1,6.978929788E-2
1.096067719E0,4.657710344E-2,7.823426127E-1,3.802524135E-2
1.105780583E0,-9.269607067E-2,9.423846006E-1,-3.161134571E-2
1.115492510E0,-1.207950488E-1,1.026681542E0,-1.049130186E-1
1.125203760E0,-1.488940120E-1,1.091431379E0,-1.550024897E-1
1.134915740E0,-2.234173864E-1,1.024238110E0,-1.831014603E-1
1.144628604E0,-3.626905680E-1,7.811209559E-1,-2.014268786E-1
1.154340531E0,-6.229115129E-1,4.952444136E-1,-2.063136548E-1
1.164051781E0,-9.979717135E-1,2.386885732E-1,-1.721062213E-1
1.173763760E0,-1.419456363E0,4.077405483E-2,-1.122431830E-1
1.183476625E0,-1.855601311E0,-7.528692484E-2,-4.260659590E-2
1.193188604E0,-2.262425423E0,-8.994726092E-2,2.092151903E-2
1.202899802E0,-2.570292473E0,-4.840964451E-2,5.024218559E-2
1.212611781E0,-2.770650387E0,3.100049868E-2,4.779879749E-2
1.222324646E0,-2.916032076E0,1.702736765E-1,2.702999115E-2
1.232036625E0,-3.001550674E0,2.325800955E-1,-1.068982761E-3
1.241747823E0,-3.003994226E0,1.751604527E-1,-3.527642787E-2
1.251459854E0,-2.938022614E0,3.588727489E-2,-8.047912270E-2
1.261172667E0,-2.837843657E0,-8.628217876E-2,-1.232384369E-1
1.270884646E0,-2.718117476E0,-1.229330078E-1,-1.256818175E-1
1.280595844E0,-2.584952831E0,-8.383878320E-2,-7.925742865E-2
1.290307875E0,-2.453009844E0,2.367033064E-2,-1.695101149E-2
1.300020687E0,-2.352830887E0,1.214058921E-1,1.969982497E-2
1.309732667E0,-2.274642467E0,1.495048702E-1,1.527118147E-4
1.319443865E0,-2.190345526E0,1.983726472E-1,-9.147437662E-2
1.329155896E0,-2.068176031E0,3.144336343E-1,-2.344126403E-1
1.338868760E0,-1.910577536E0,4.317162931E-1,-3.626905680E-1
1.348580687E0,-1.754200578E0,5.184566379E-1,-4.286620617E-1
1.358291937E0,-1.655243397E0,5.868715048E-1,-4.164451063E-1
1.368003917E0,-1.649134874E0,5.905365944E-1,-3.468085229E-1
1.377716781E0,-1.687007427E0,4.708105326E-1,-2.735068500E-1
1.387428708E0,-1.730988383E0,2.276933193E-1,-2.185306102E-1
1.397139958E0,-1.757865667E0,-6.551336497E-2,-2.038702667E-1
1.406851990E0,-1.738318563E0,-3.220692277E-1,-2.295258641E-1
1.416564802E0,-1.663795233E0,-4.747810364E-1,-2.637332976E-1
1.426276781E0,-1.541625738E0,-5.041016936E-1,-2.930539846E-1
1.435987979E0,-1.379140377E0,-4.503471553E-1,-3.126010895E-1
1.445700010E0,-1.192221165E0,-3.599417508E-1,-3.223746419E-1
1.455412875E0,-9.943066239E-1,-2.548760176E-1,-3.235963285E-1
1.465124802E0,-7.939487100E-1,-1.363716573E-1,-3.101576865E-1
1.474836052E0,-5.935907960E-1,-3.374931216E-2,-2.796153426E-1
1.484548031E0,-4.091149569E-1,3.588727489E-2,-2.331909388E-1
1.494260896E0,-2.515163720E-1,7.375980914E-2,-1.855448484E-1
1.503972875E0,-1.183516532E-1,9.452861547E-2,-1.403421611E-1
1.513684073E0,2.596100792E-3,9.941539168E-2,-1.049130186E-1
1.523396104E0,1.247655526E-1,8.475505561E-2,-7.437065244E-2
1.533108917E0,2.493783981E-1,8.597674966E-2,-3.283303976E-2
1.542820896E0,3.825430870E-1,1.043021679E-1,1.603474095E-2
1.552532146E0,5.181511641E-1,1.091889441E-1,7.345438004E-2
1.562244125E0,6.500942111E-1,9.330692142E-2,1.284306347E-1
1.571956990E0,7.795938253E-1,5.787777901E-2,1.724116355E-1
1.581668917E0,9.066500664E-1,5.344913341E-3,2.017323077E-1
1.591380167E0,1.031262875E0,-5.085303262E-2,2.151709497E-1
1.601092198E0,1.146102190E0,-8.506047726E-2,2.090624720E-1
1.610805010E0,1.234064221E0,-5.940489471E-2,1.858502775E-1
1.620516990E0,1.306144118E0,5.543438718E-2,1.455343664E-1
1.630228240E0,1.364785433E0,2.680092454E-1,9.177979827E-2
1.639940219E0,1.403879762E0,5.734328628E-1,1.847812906E-2
1.649653083E0,1.417318344E0,9.399412274E-1,-5.604523420E-2
1.659365062E0,1.341573238E0,1.341878772E0,-1.085781008E-1
1.669076260E0,1.153432369E0,1.677844763E0,-1.378987730E-1
1.678788292E0,9.249754548E-1,1.787797213E0,-1.574458778E-1
1.688501156E0,7.075138092E-1,1.642415524E0,-1.843231618E-1
1.698213083E0,4.924955964E-1,1.356539011E0,-2.295258641E-1
1.707924333E0,2.872509360E-1,9.497147799E-1,-2.783936262E-1
1.717636312E0,1.003316641E-1,4.231644273E-1,-3.138227761E-1
1.727349177E0,-1.134648770E-1,-5.573981255E-2,-3.504736125E-1
1.737061156E0,-3.284831047E-1,-4.295783341E-1,-3.822376728E-1
1.746772354E0,-4.494308829E-1,-7.117897868E-1,-3.810159862E-1
1.756484385E0,-4.677563012E-1,-6.177192926E-1,-3.358132839E-1
1.766197250E0,-3.394783735E-1,-3.880407214E-1,-2.490729690E-1
1.775909177E0,-1.024696305E-1,-4.222481549E-1,-1.525591016E-1
1.785620427E0,9.544488788E-2,-4.613423944E-1,-1.476723254E-1
1.795332458E0,1.797417998E-1,-2.915268540E-1,-2.429644912E-1
1.805045271E0,1.052184403E-1,-6.673506647E-2,-3.321481943E-1
1.814757250E0,-7.314895838E-2,-1.046075895E-1,-3.333698809E-1
1.824468448E0,-2.368560284E-1,-4.625640810E-1,-2.283041626E-1
1.834180479E0,-3.248180151E-1,-7.411104441E-1,-8.536590636E-2
1.843893344E0,-2.283041626E-1,-7.288935184E-1,5.879404768E-2
1.853605323E0,1.027750522E-1,-7.496622801E-1,1.540862173E-1
1.863316521E0,4.986040890E-1,-8.559496999E-1,1.626380831E-1
1.873028552E0,7.588250041E-1,-9.646805525E-1,1.113269106E-1
1.882741417E0,8.443436027E-1,-1.031873703E0,5.512896553E-2
1.892453344E0,8.125795722E-1,-9.976662993E-1,3.069507517E-2
1.902164594E0,7.392778993E-1,-8.779402375E-1,6.612421572E-2
1.911876573E0,7.001836896E-1,-7.740961909E-1,1.663031727E-1
1.921589437E0,7.343910933E-1,-6.788040400E-1,2.713688910E-1
1.931301417E0,8.321266770E-1,-5.028799772E-1,3.300102353E-1
1.941012615E0,9.848384857E-1,-2.609844804E-1,3.434488773E-1
1.950724646E0,1.161984205E0,-4.963133857E-2,3.214583695E-1
1.960437510E0,1.318361044E0,1.116323397E-1,2.762556672E-1
1.970149490E0,1.427091956E0,2.472404242E-1,2.212794125E-1
1.979860687E0,1.478403091E0,3.620797098E-1,1.614163816E-1
1.989572719E0,1.486954927E0,5.099047422E-1,1.088835225E-1
1.999285583E0,1.488176584E0,6.919372082E-1,7.467607409E-2
2.008997510E0,1.535822749E0,8.409839869E-1,5.146388337E-2
2.018708760E0,1.600572586E0,9.802571535E-1,3.313846514E-2
2.028420740E0,1.642110109E0,1.112200141E0,1.359135192E-2
2.038133604E0,1.675095916E0,1.165954709E0,-4.734066315E-3
2.047845583E0,1.666544080E0,1.121973753E0,-1.450762246E-2
2.057556833E0,1.557813168E0,1.066997409E0,-1.450762246E-2
2.067268812E0,1.357455373E0,9.936957955E-1,3.817795310E-3
2.076981677E0,1.143658757E0,8.336538076E-1,3.436015919E-2
2.086693656E0,9.726215601E-1,6.015318632E-1,6.001574174E-2
2.096404854E0,8.492304087E-1,3.742966652E-1,6.245913357E-2
2.106116885E0,7.734853625E-1,1.947075576E-1,4.902049154E-2
2.115829750E0,7.270609736E-1,9.208522737E-2,5.024218559E-2
2.125541677E0,6.965186000E-1,6.642963737E-2,6.856760383E-2
2.135252927E0,6.916317940E-1,8.108997345E-2,8.200624585E-2
2.144964958E0,7.099572420E-1,8.475505561E-2,7.956285775E-2
2.154677823E0,7.600467205E-1,4.566083103E-2,7.956285775E-2
2.164389750E0,8.406785131E-1,-1.053711493E-2,8.811471611E-2
2.174101000E0,9.274188280E-1,-1.542389300E-2,9.300149232E-2
2.183812979E0,1.005607247E0,3.222219273E-2,1.015533581E-1
2.193525844E0,1.069135427E0,1.104106456E-1,1.198787764E-1
2.203237823E0,1.110673070E0,1.910424829E-1,1.394258887E-1
2.212949021E0,1.131441832E0,2.203631550E-1,1.467560530E-1
2.222661052E0,1.122889996E0,1.702736765E-1,1.369825006E-1
2.232373917E0,1.092347622E0,9.208522737E-2,1.272089481E-1
2.242085896E0,1.055696726E0,4.077405483E-2,1.259872466E-1
2.251797094E0,1.023932695E0,4.443913698E-2,1.394258887E-1
2.261509125E0,9.897252917E-1,8.108997345E-2,1.589729935E-1
2.271221990E0,9.433009028E-1,1.116323397E-1,1.724116355E-1
2.280933917E0,8.980981708E-1,1.397313178E-1,1.760767251E-1
2.290645167E0,8.614473343E-1,1.690519750E-1,1.699682474E-1
2.300357146E0,8.186880350E-1,2.166980654E-1,1.528645307E-1
2.310070010E0,7.624900937E-1,3.009949923E-1,1.308740228E-1
2.319781990E0,6.965186000E-1,3.620797098E-1,1.149920002E-1
2.329493187E0,6.439857483E-1,3.669664860E-1,1.076618284E-1
2.339205219E0,6.000047326E-1,3.742966652E-1,1.076618284E-1
2.348918083E0,5.401417017E-1,4.292729199E-1,1.284306347E-1
2.358630062E0,4.509579837E-1,5.502206683E-1,1.663031727E-1
2.368341260E0,3.373403847E-1,7.237012982E-1,1.956238300E-1
2.378053292E0,2.273878902E-1,8.580876589E-1,1.944021434E-1
2.387766156E0,1.455343664E-1,9.020686746E-1,1.772984117E-1
2.397478135E0,1.113269106E-1,8.837432861E-1,1.491994411E-1
2.407189333E0,1.308740228E-1,8.507575393E-1,1.064401343E-1
2.416901365E0,1.870719790E-1,8.422056437E-1,5.757235363E-2
2.426614229E0,2.481566966E-1,8.532009125E-1,-7.177455351E-3
2.436326156E0,2.994678617E-1,8.703046441E-1,-8.658760041E-2
2.446037406E0,3.202366829E-1,9.289459586E-1,-1.659977436E-1
2.455749385E0,3.055763543E-1,1.077992678E0,-2.576248348E-1
2.465462250E0,3.067980409E-1,1.261246920E0,-3.749074936E-1
2.475174229E0,3.373403847E-1,1.395633221E0,-4.176668227E-1
2.484885479E0,3.129065037E-1,1.446944475E0,-4.103366435E-1
2.494597458E0,1.846285909E-1,1.354095697E0,-3.871244490E-1
2.504310323E0,-5.115845799E-2,1.135412335E0,-3.443651497E-1
2.514022302E0,-3.773508966E-1,8.715263009E-1,-2.942756712E-1
2.523733500E0,-7.401941419E-1,6.198572516E-1,-2.527380586E-1
2.533445531E0,-1.079825282E0,4.292729199E-1,-2.136438340E-1
2.543158396E0,-1.380362034E0,3.547495604E-1,-1.769929975E-1
2.552870323E0,-1.668681979E0,4.060607255E-1,-1.586675793E-1
2.562581573E0,-1.966775417E0,5.209000111E-1,-1.611109674E-1
2.572293604E0,-2.278307676E0,6.027535200E-1,-1.818797737E-1
2.582006469E0,-2.591061354E0,5.636593103E-1,-2.148655206E-1
2.591718396E0,-2.901371717E0,3.975088596E-1,-2.331909388E-1
2.601429646E0,-3.162814379E0,1.336228400E-1,-2.185306102E-1
2.611141625E0,-3.327743053E0,-1.815743446E-1,-1.782146841E-1
2.620854490E0,-3.394936323E0,-4.686725736E-1,-1.159082651E-1
2.630566469E0,-3.354620457E0,-6.775823236E-1,-3.649812192E-2
2.640277719E0,-3.215347290E0,-7.582141757E-1,4.046862945E-2
2.649989698E0,-3.011324167E0,-6.946860552E-1,1.125486046E-1
2.659702562E0,-2.769428730E0,-5.431959033E-1,1.760767251E-1
2.669414542E0,-2.493325710E0,-3.330644667E-1,2.151709497E-1
2.679125740E0,-2.178128719E0,-1.107160673E-1,2.310529798E-1
2.688837771E0,-1.842162609E0,6.276455522E-2,2.237228155E-1
2.698550635E0,-1.526965380E0,1.824906170E-1,1.858502775E-1
2.708262562E0,-1.313168883E0,3.119902313E-1,1.088835225E-1
2.717973812E0,-1.252084136E0,4.781406820E-1,2.702999115E-2
2.727685844E0,-1.305838704E0,6.113054156E-1,-3.527642787E-2
2.737398708E0,-1.392579079E0,6.442911625E-1,-6.337540597E-2
2.747110635E0,-1.454885483E0,5.942016840E-1,-6.215370819E-2
2.756821885E0,-1.468324065E0,4.866925478E-1,-6.337540597E-2
2.766533865E0,-1.432894945E0,3.633013964E-1,-7.681404054E-2
2.776246729E0,-1.360814929E0,2.728960216E-1,-1.049130186E-1
2.785958708E0,-1.255749226E0,2.203631550E-1,-1.342336833E-1
2.795669958E0,-1.114032745E0,1.727170646E-1,-1.611109674E-1
2.805381937E0,-9.417737722E-1,1.605001241E-1,-1.782146841E-1
2.815094802E0,-7.536327839E-1,2.093679011E-1,-1.904316396E-1
2.824806781E0,-5.618267655E-1,2.875563502E-1,-2.185306102E-1
2.834517979E0,-3.749074936E-1,3.571929336E-1,-2.564031482E-1
2.844230010E0,-1.977618039E-1,3.962871730E-1,-2.967190444E-1
2.853942875E0,-3.038965166E-2,4.158342779E-1,-3.223746419E-1
2.863654802E0,1.296523362E-1,4.366030693E-1,-3.174878657E-1
2.873366052E0,2.848075330E-1,4.475983381E-1,-2.759502530E-1
2.883078083E0,4.253024161E-1,4.353813827E-1,-2.038702667E-1
2.892790896E0,5.499152541E-1,3.914003670E-1,-1.036913246E-1
2.902502875E0,6.586460471E-1,3.315373361E-1,2.580829710E-2
2.912214125E0,7.527165413E-1,2.777827978E-1,1.614163816E-1
2.921926104E0,8.370134830E-1,2.081461996E-1,2.738122940E-1
2.931638969E0,9.090934396E-1,1.006370857E-1,3.483356535E-1
2.941350948E0,9.652913809E-1,-5.207473040E-2,3.752129376E-1
2.951062146E0,1.012937427E0,-2.255553454E-1,3.642176688E-1
2.960774177E0,1.069135427E0,-3.623851240E-1,3.385621011E-1
2.970487042E0,1.143658757E0,-4.161396921E-1,3.129065037E-1
2.980198969E0,1.212073684E0,-3.232909143E-1,2.909159958E-1
2.989910219E0,1.249946237E0,-1.908897609E-2,2.664821148E-1
2.999622250E0,1.258498073E0,4.695888162E-1,2.469350100E-1
3.009335115E0,1.234064221E0,1.073105931E0,2.493783981E-1
3.019047042E0,1.193748236E0,1.725490808E0,2.457133085E-1
3.028758292E0,1.150988936E0,2.265479803E0,1.772984117E-1
3.038470271E0,1.086239100E0,2.536695957E0,2.580829710E-2
3.048183135E0,9.689564705E-1,2.468281031E0,-1.867665499E-1
3.057895115E0,7.453863621E-1,2.056570053E0,-3.883461356E-1
3.067606312E0,3.727695346E-1,1.416402102E0,-5.080721974E-1
3.077318344E0,-1.012479365E-1,6.858287454E-1,-5.300627351E-1
3.087031208E0,-5.349494815E-1,-6.673506647E-2,-4.824166298E-1
3.096743187E0,-7.841751575E-1,-7.081246972E-1,-3.846810758E-1
3.106454385E0,-8.110524416E-1,-9.585720897E-1,-2.466295809E-1
3.116166417E0,-6.705575585E-1,-8.938222528E-1,-7.070557028E-2
3.125879281E0,-4.860817194E-1,-8.754968047E-1,8.933641016E-2
3.135591208E0,-3.284831047E-1,-9.170344472E-1,1.039967462E-1
3.145302458E0,-1.989834905E-1,-7.802046537E-1,-1.206423342E-2
3.155014437E0,-1.000262350E-1,-3.074088693E-1,-1.598892659E-1
3.164727302E0,-7.681404054E-2,2.203631550E-1,-2.673983872E-1
3.174439281E0,-1.684411317E-1,3.449759781E-1,-2.942756712E-1
3.184150531E0,-2.918322682E-1,8.353336155E-2,-2.502946556E-1
3.193862510E0,-3.223746419E-1,4.932591692E-2,-1.366770715E-1
3.203575375E0,-1.073564067E-1,2.118112892E-1,3.191677108E-2
3.213287354E0,2.994678617E-1,1.397313178E-1,1.467560530E-1
3.222998552E0,6.696413159E-1,-7.773031294E-2,1.944021434E-1
3.232710583E0,8.699992299E-1,-3.147390485E-1,1.919587553E-1
3.242423448E0,9.261971712E-1,-5.346440673E-1,1.553079188E-1
3.252135375E0,9.078717232E-1,-6.714738607E-1,1.357607991E-1
3.261846625E0,8.773293495E-1,-6.580352187E-1,1.687465608E-1
3.271558656E0,8.919897079E-1,-5.126535892E-1,2.212794125E-1
3.281271469E0,9.909469485E-1,-2.939702570E-1,2.396048307E-1
3.290983448E0,1.165649295E0,-4.840964451E-2,2.212794125E-1
3.300694698E0,1.383110881E0,1.751604527E-1,1.760767251E-1
3.310406677E0,1.579803705E0,3.449759781E-1,1.259872466E-1
3.320119542E0,1.699529767E0,4.659237564E-1,6.490252167E-2
3.329831521E0,1.730072141E0,5.416688323E-1,8.704573847E-3
3.339542719E0,1.682426095E0,5.990884304E-1,-1.939439960E-2
3.349254750E0,1.585912228E0,6.565080881E-1,-1.328592747E-2
3.358967615E0,1.490620017E0,6.687250137E-1,2.214321308E-2
3.368679542E0,1.442973971E0,6.198572516E-1,6.612421572E-2
3.378390792E0,1.414874911E0,5.868715048E-1,1.235438585E-1
3.388102823E0,1.378224134E0,5.832064152E-1,1.870719790E-1
3.397815635E0,1.324469566E0,5.856497884E-1,2.273878902E-1
3.407527615E0,1.262163162E0,5.880932212E-1,2.371614426E-1
3.417238865E0,1.202300072E0,6.064186096E-1,2.249445021E-1
3.426950844E0,1.158319116E0,6.528429985E-1,1.992889196E-1
3.436663708E0,1.116781473E0,7.102626562E-1,1.699682474E-1
3.446375687E0,1.067913771E0,7.505785823E-1,1.369825006E-1
3.456086885E0,1.015380859E0,7.566870451E-1,1.015533581E-1
3.465798917E0,9.701781869E-1,7.359182239E-1,6.001574174E-2
3.475511781E0,9.274188280E-1,7.127060294E-1,1.481304597E-2
3.485223760E0,8.980981708E-1,7.151494026E-1,-2.672456764E-2
3.494934958E0,8.883246183E-1,7.481352091E-1,-4.993676394E-2
3.504646990E0,9.029849768E-1,8.165500760E-1,-4.382828996E-2
3.514359854E0,9.335273504E-1,8.812998533E-1,-1.572931744E-2
3.524071781E0,9.616262913E-1,9.240592122E-1,1.359135192E-2
3.533783031E0,9.750649333E-1,9.423846006E-1,2.092151903E-2
3.543495062E0,9.787300229E-1,9.387195110E-1,6.261184346E-3
3.553207875E0,9.762866497E-1,9.374978542E-1,-2.305948362E-2
3.562919854E0,9.640696645E-1,9.521581531E-1,-5.848862603E-2
3.572631104E0,9.555178285E-1,9.729269743E-1,-6.337540597E-2
3.582343083E0,9.494093657E-1,9.851438999E-1,-4.016320780E-2
3.592055948E0,9.310839176E-1,9.619317055E-1,-4.734066315E-3
3.601767927E0,8.858812451E-1,9.008470178E-1,4.169032723E-2
3.611479177E0,8.089144826E-1,8.275453448E-1,9.788827598E-2
3.621191156E0,7.062921524E-1,7.579087615E-1,1.626380831E-1
3.630904021E0,6.000047326E-1,7.090409398E-1,2.212794125E-1
3.640616000E0,5.144860744E-1,6.870504618E-1,2.628170252E-1
3.650327198E0,4.692834020E-1,6.760551929E-1,2.725905776E-1
3.660039229E0,4.570664763E-1,6.980457306E-1,2.444916219E-1
3.669752094E0,4.643966258E-1,7.456917763E-1,1.736333370E-1
3.679464073E0,4.802786708E-1,7.860077024E-1,7.223268598E-2
3.689175271E0,4.717268050E-1,8.079982400E-1,-2.550287358E-2
3.698887302E0,4.167505503E-1,8.385405540E-1,-8.780929446E-2
3.708600167E0,2.982461751E-1,9.118422270E-1,-9.880454093E-2
3.718312146E0,1.479777545E-1,1.005912781E0,-8.414421231E-2
3.728023344E0,3.313846514E-2,1.030346632E0,-5.971032009E-2
3.737735375E0,-9.620844387E-3,9.802571535E-1,-2.550287358E-2
3.747448240E0,1.236965694E-2,9.313893318E-1,1.527118147E-4
3.757160167E0,6.856760383E-2,9.277243018E-1,2.596100792E-3
3.766871417E0,1.064401343E-1,9.839222431E-1,-2.305948362E-2
3.776583448E0,8.078455180E-2,1.099983215E0,-1.073564067E-1
3.786296312E0,-1.068982761E-3,1.271020412E0,-2.820587158E-1
3.796008240E0,-4.627167806E-2,1.410293579E0,-4.848600030E-1
3.805719490E0,-2.550287358E-2,1.508029222E0,-6.094728708E-1
3.815431521E0,-5.360184610E-2,1.716938972E0,-6.852179170E-1
3.825144385E0,-1.769929975E-1,1.940509081E0,-7.340856791E-1
3.834856312E0,-3.736858070E-1,2.011367321E0,-7.328640223E-1
3.844567562E0,-6.473453641E-1,1.933178902E0,-6.424586177E-1
3.854279594E0,-9.759812355E-1,1.736486077E0,-4.555393457E-1
3.863992458E0,-1.318055630E0,1.410293579E0,-2.087570578E-1
3.873704437E0,-1.660130143E0,1.102426648E0,1.969982497E-2
3.883415635E0,-1.987544298E0,8.984035850E-1,1.736333370E-1
3.893127667E0,-2.266090631E0,8.006680608E-1,2.371614426E-1
3.902840531E0,-2.473778725E0,7.957812548E-1,2.102841735E-1
3.912552510E0,-2.604500055E0,8.690829277E-1,1.211004704E-1
3.922263708E0,-2.661919594E0,1.005912781E0,2.458660305E-2
3.931975740E0,-2.653367758E0,1.174506545E0,-5.360184610E-2
3.941688604E0,-2.588618040E0,1.341878772E0,-9.513945878E-2
3.951400583E0,-2.471335411E0,1.464048147E0,-9.758284688E-2
3.961111833E0,-2.325953722E0,1.471378326E0,-7.314895838E-2
3.970823812E0,-2.196454048E0,1.360204101E0,-3.038965166E-2
3.980536677E0,-2.109713793E0,1.189166903E0,2.214321308E-2
3.990248656E0,-2.075506210E0,9.594883323E-1,7.345438004E-2
3.999959906E0,-2.071841240E0,6.332958937E-1,1.259872466E-1
4.009671937E0,-2.046185493E0,2.179197669E-1,1.992889196E-1
4.019384802E0,-1.996096134E0,-2.096733153E-1,2.872509360E-1
4.029096781E0,-1.932568073E0,-5.126535892E-1,3.959817290E-1
4.038807979E0,-1.881256819E0,-5.602996349E-1,4.924955964E-1
4.048520010E0,-1.840940952E0,-3.428380191E-1,5.609105229E-1
4.058232875E0,-1.767639279E0,2.000524849E-2,6.073349118E-1
4.067944854E0,-1.623479247E0,3.804051280E-1,6.183301210E-1
4.077656104E0,-1.420678020E0,6.699467301E-1,5.645755529E-1
4.087368135E0,-1.173895717E0,8.605310917E-1,4.497362971E-1
4.097081000E0,-9.087880254E-1,9.301676750E-1,3.129065037E-1
4.106792927E0,-6.558972597E-1,9.142856598E-1,1.895153672E-1
4.116504177E0,-4.311054647E-1,8.800781965E-1,9.300149232E-2
4.126216208E0,-2.234173864E-1,8.690829277E-1,3.069507517E-2
4.135929073E0,-2.428117767E-2,8.886300325E-1,-4.734066315E-3
4.145641052E0,1.540862173E-1,9.203941226E-1,-2.061609551E-2
4.155352302E0,2.994678617E-1,9.387195110E-1,-2.305948362E-2
4.165064333E0,4.253024161E-1,9.472714067E-1,-1.939439960E-2
4.174777198E0,5.364766121E-1,9.460496902E-1,-1.206423342E-2
4.184489177E0,6.329904795E-1,9.313893318E-1,1.236965694E-2
4.194200427E0,7.185090780E-1,9.069554806E-1,6.734590977E-2
4.203912406E0,8.003626466E-1,8.715263009E-1,1.443126649E-1
4.213625323E0,8.846595287E-1,8.275453448E-1,2.359397560E-1
4.223337302E0,9.701781869E-1,7.762341499E-1,3.422271907E-1
4.233048500E0,1.039814711E0,6.919372082E-1,4.436278343E-1
4.242760531E0,1.096012712E0,5.954233408E-1,5.364766121E-1
4.252473396E0,1.139993668E0,4.610369802E-1,6.134433746E-1
4.262185375E0,1.175422788E0,2.582356930E-1,6.549809575E-1
4.271896625E0,1.209630251E0,-1.053711493E-2,6.659762263E-1
4.281608656E0,1.232842445E0,-2.841966748E-1,6.623111367E-1
4.291321521E0,1.210852027E0,-4.369085133E-1,6.537593007E-1
4.301033500E0,1.121668339E0,-3.391729295E-1,6.378772259E-1
4.310744750E0,9.713998437E-1,8.719844371E-2,6.329904795E-1
4.320456781E0,8.272398710E-1,9.546015263E-1,6.635328531E-1
4.330169698E0,7.600467205E-1,2.030914307E0,6.917845011E-1
4.339881625E0,7.612683773E-1,2.844563007E0,6.403206587E-1
4.349592875E0,7.783721089E-1,3.173198700E0,4.961606860E-1
4.359304906E0,7.368345261E-1,3.036369085E0,2.750339806E-1
4.369017823E0,6.171084642E-1,2.566016674E0,5.268557742E-2
4.378729802E0,4.888305068E-1,1.928292036E0,-9.513945878E-2
4.388441052E0,4.094203711E-1,1.411515355E0,-1.550024897E-1
4.398153083E0,3.788780272E-1,1.102426648E0,-1.574458778E-1
4.407865948E0,3.495573401E-1,6.455128193E-1,-1.244601309E-1
4.417577927E0,3.043546379E-1,1.653869003E-1,-1.415638477E-1
4.427289177E0,2.518217862E-1,5.176930502E-2,-2.466295809E-1
4.437001208E0,1.516428292E-1,2.374668717E-1,-3.614688516E-1
4.446714073E0,-7.437065244E-2,4.475983381E-1,-4.494308829E-1
4.456426052E0,-4.225535989E-1,4.366030693E-1,-4.592044353E-1
4.466137302E0,-6.937697530E-1,3.975088596E-1,-3.443651497E-1
4.475849333E0,-6.363501549E-1,5.709894896E-1,-1.537808031E-1
4.485562250E0,-2.906105816E-1,5.587725043E-1,8.444963396E-2
4.495274229E0,9.300149232E-2,1.592784226E-1,2.481566966E-1
4.504985479E0,3.507790267E-1,-4.515688419E-1,2.994678617E-1
4.514697510E0,4.436278343E-1,-1.062416077E0,2.799207568E-1
4.524410375E0,4.472928941E-1,-1.349514365E0,2.518217862E-1
4.534122406E0,4.338542521E-1,-1.195580840E0,2.725905776E-1
4.543833656E0,4.619532526E-1,-7.569924593E-1,3.593308926E-1
4.553545687E0,5.987830162E-1,-2.622061968E-1,4.436278343E-1
4.563258552E0,8.834378719E-1,1.360662282E-1,4.546230733E-1
4.572970531E0,1.274380088E0,4.720322192E-1,3.825430870E-1
4.582681781E0,1.622563004E0,7.420266867E-1,2.469350100E-1
4.592393917E0,1.818186879E0,8.812998533E-1,1.223221645E-1
4.602106729E0,1.830403805E0,9.374978542E-1,7.589777559E-2
4.611818708E0,1.698308110E0,9.655967951E-1,1.088835225E-1
4.621529958E0,1.513832211E0,9.594883323E-1,1.821851879E-1
4.631242094E0,1.375780702E0,9.252808690E-1,2.506000996E-1
4.640954906E0,1.339129925E0,8.910734653E-1,2.835858464E-1
4.650666885E0,1.406323075E0,9.179506898E-1,2.689255178E-1
4.660378135E0,1.526049137E0,1.066997409E0,2.225011140E-1
4.670090271E0,1.632336617E0,1.347987175E0,1.834068894E-1
4.679803083E0,1.701973200E0,1.642415524E0,1.675248593E-1
4.689515062E0,1.716633558E0,1.841551781E0,1.663031727E-1
4.699226365E0,1.667765737E0,1.905079842E0,1.919587553E-1
4.708938396E0,1.577360392E0,1.828113079E0,2.298312783E-1
4.718651260E0,1.463742733E0,1.646080613E0,2.469350100E-1
4.728363292E0,1.334243178E0,1.395633221E0,2.383831441E-1
4.738074542E0,1.193748236E0,1.137855768E0,2.163926363E-1
4.747786573E0,1.056918502E0,8.788564801E-1,1.748550236E-1
4.757499490E0,9.567395449E-1,6.430694461E-1,1.247655526E-1
4.767211469E0,9.115368128E-1,4.549284875E-1,7.711946964E-2
4.776922719E0,9.176452756E-1,3.376458287E-1,3.924693540E-2
4.786634854E0,9.555178285E-1,2.741177082E-1,3.436015919E-2
4.796347667E0,9.946120381E-1,2.875563502E-1,2.458660305E-2
4.806059646E0,1.019045949E0,3.547495604E-1,9.926267900E-3
4.815770948E0,1.023932695E0,4.158342779E-1,-2.290677279E-3
4.825482979E0,1.034927964E0,4.549284875E-1,-5.955760833E-3
4.835195896E0,1.066691995E0,4.647020400E-1,1.359135192E-2
4.844907875E0,1.089904189E0,4.695888162E-1,6.612421572E-2
4.854619125E0,1.071578860E0,4.854708612E-1,1.369825006E-1
4.864331260E0,1.009272337E0,4.915793240E-1,2.041756958E-1
4.874044073E0,9.164236188E-1,4.720322192E-1,2.542651594E-1
4.883756104E0,8.284615874E-1,4.427115619E-1,2.786990702E-1
4.893467354E0,7.808154821E-1,3.987305462E-1,2.848075330E-1
4.903179490E0,7.783721089E-1,3.498627543E-1,2.713688910E-1
4.912892302E0,8.015843034E-1,3.474193811E-1,2.371614426E-1
4.922604333E0,8.247964978E-1,4.146125913E-1,1.882936656E-1
4.932315583E0,8.235748410E-1,4.989095032E-1,1.320957243E-1
4.942027615E0,7.734853625E-1,5.514423847E-1,8.322793990E-2
4.951740531E0,6.708629727E-1,5.489989519E-1,5.024218559E-2
4.961452562E0,5.352548957E-1,4.928010404E-1,3.802524135E-2
4.971163812E0,4.094203711E-1,4.341596961E-1,4.657710344E-2
4.980875844E0,3.287885487E-1,4.158342779E-1,7.223268598E-2
4.990588760E0,3.031329513E-1,4.585935771E-1,1.162136942E-1
5.000300792E0,3.165715933E-1,5.367820263E-1,1.699682474E-1
5.010012042E0,3.300102353E-1,6.100836992E-1,2.139492482E-1
5.019724177E0,3.116848171E-1,6.247440577E-1,2.347180545E-1
5.029436990E0,2.567085624E-1,5.734328628E-1,2.286095917E-1
5.039149021E0,1.846285909E-1,5.318952799E-1,2.053973973E-1
5.048860271E0,1.296523362E-1,5.575508475E-1,1.699682474E-1
5.058572406E0,1.174353883E-1,6.137487888E-1,1.308740228E-1
5.068285271E0,1.553079188E-1,6.821636558E-1,8.444963396E-2
5.077997250E0,2.188360244E-1,7.212579250E-1,1.969982497E-2
5.087708552E0,2.713688910E-1,8.116632700E-1,-8.658760041E-2
5.097420583E0,3.373403847E-1,9.436063170E-1,-2.002051920E-1
5.107133500E0,4.277457893E-1,9.680401683E-1,-2.771719396E-1
5.116845531E0,4.167505503E-1,1.009577751E0,-2.808370292E-1
5.126556781E0,2.261662036E-1,1.091431379E0,-2.014268786E-1
5.136268917E0,-8.170082420E-2,1.036455035E0,-8.292251825E-2
5.145981781E0,-4.457657933E-1,8.776348233E-1,1.969982497E-2
5.155693760E0,-8.025006056E-1,7.359182239E-1,7.711946964E-2
5.165405062E0,-1.085933685E0,6.039752364E-1,1.003316641E-1
5.175117198E0,-1.309503794E0,5.062396526E-1,9.666658193E-2
5.184830010E0,-1.541625738E0,5.172349215E-1,6.612421572E-2
5.194542042E0,-1.814063668E0,6.442911625E-1,9.926267900E-3
5.204253344E0,-2.112157106E0,8.079982400E-1,-6.337540597E-2
5.213965375E0,-2.398033619E0,9.203941226E-1,-1.427855492E-1
5.223678292E0,-2.646037579E0,9.350544214E-1,-2.185306102E-1
5.233390323E0,-2.850060701E0,8.055548072E-1,-2.747285664E-1
5.243101573E0,-3.039423227E0,5.624375939E-1,-2.979407609E-1
5.252813708E0,-3.204351902E0,2.680092454E-1,-2.906105816E-1
5.262526573E0,-3.313082933E0,1.878355257E-2,-2.539597452E-1
5.272238604E0,-3.341181755E0,-1.571404636E-1,-1.989834905E-1
5.281949854E0,-3.267880201E0,-2.402156889E-1,-1.513374150E-1
5.291661990E0,-3.109059811E0,-2.218902707E-1,-1.342336833E-1
5.301374854E0,-2.891598225E0,-9.727742523E-2,-1.574458778E-1
5.311086885E0,-2.638707399E0,1.580567211E-1,-2.124221325E-1
5.320798187E0,-2.389481783E0,5.135698318E-1,-2.747285664E-1
5.330510219E0,-2.169576645E0,8.788564801E-1,-3.260397315E-1
5.340223135E0,-1.988765955E0,1.112200141E0,-3.529170156E-1
5.349935167E0,-1.880035162E0,1.137855768E0,-3.614688516E-1
5.359646469E0,-1.871483326E0,9.827005267E-1,-3.504736125E-1
5.369358604E0,-1.937454820E0,6.894938350E-1,-3.284831047E-1
5.379071469E0,-2.015643358E0,3.510844707E-1,-3.199312389E-1
5.388783448E0,-2.055959225E0,2.244863659E-2,-3.223746419E-1
5.398494750E0,-2.049850702E0,-2.389939874E-1,-3.284831047E-1
5.408206885E0,-2.008313179E0,-3.929274976E-1,-3.309265077E-1
5.417919750E0,-1.936233044E0,-4.295783341E-1,-3.223746419E-1
5.427631781E0,-1.820172071E0,-3.770454824E-1,-2.979407609E-1
5.437343083E0,-1.639361382E0,-3.171824515E-1,-2.637332976E-1
5.447055219E0,-1.401130915E0,-2.707580328E-1,-2.307475507E-1
5.456768031E0,-1.158013701E0,-2.499892414E-1,-1.794363856E-1
5.466480062E0,-9.649859667E-1,-2.780882120E-1,-9.513945878E-2
5.476191365E0,-8.232693672E-1,-3.208475113E-1,-4.734066315E-3
5.485903500E0,-7.072083950E-1,-3.281776905E-1,7.834116369E-2
5.495616365E0,-6.009209752E-1,-2.976353168E-1,1.430909634E-1
5.505328396E0,-4.873034060E-1,-2.463241518E-1,1.870719790E-1
5.515039698E0,-3.419217467E-1,-1.534753740E-1,2.066190839E-1
5.524751833E0,-1.537808031E-1,-6.872031838E-3,1.907370538E-1
5.534464698E0,6.001574174E-2,1.666085869E-1,1.491994411E-1
5.544176729E0,2.738122940E-1,3.119902313E-1,1.101052165E-1
5.553888031E0,4.717268050E-1,3.975088596E-1,6.612421572E-2
5.563600167E0,6.403206587E-1,4.341596961E-1,2.336490713E-2
5.573313031E0,7.893673778E-1,4.390464723E-1,-1.328592747E-2
5.583025062E0,9.335273504E-1,3.938437700E-1,-2.794626169E-2
5.592736312E0,1.077687263E0,3.193204105E-1,-1.450762246E-2
5.602448500E0,1.213295341E0,2.619007528E-1,1.603474095E-2
5.612161365E0,1.330578089E0,2.276933193E-1,6.001574174E-2
5.621873396E0,1.444195628E0,1.885990947E-1,1.064401343E-1
5.631584698E0,1.556591511E0,1.653869003E-1,1.650814712E-1
5.641296833E0,1.659213901E0,1.824906170E-1,2.322746664E-1
5.651009698E0,1.747328639E0,2.411319613E-1,3.080197275E-1
5.660721729E0,1.812078357E0,3.730749488E-1,3.752129376E-1
5.670433031E0,1.848729253E0,5.526640415E-1,4.020902216E-1
5.680145167E0,1.840177417E0,7.481352091E-1,3.788780272E-1
5.689858031E0,1.793753028E0,9.790354371E-1,2.872509360E-1
5.699570062E0,1.747328639E0,1.305227876E0,1.272089481E-1
5.709281365E0,1.712968469E0,1.646080613E0,-5.360184610E-2
5.718993500E0,1.717855215E0,1.705943704E0,-1.769929975E-1
5.728706365E0,1.698308110E0,1.541014910E0,-2.295258641E-1
5.738418396E0,1.496728539E0,1.358982444E0,-3.064926267E-1
5.748129698E0,1.085017443E0,1.032789946E0,-3.761292100E-1
5.757841885E0,5.352548957E-1,5.160132051E-1,-3.712424338E-1
5.767554750E0,5.039489828E-3,-4.230117425E-2,-2.771719396E-1
5.777266781E0,-3.309265077E-1,-3.049654961E-1,-1.256818175E-1
5.786978083E0,-4.701996744E-1,-5.395308137E-1,6.612421572E-2
5.796690219E0,-5.544965863E-1,-9.573503733E-1,2.493783981E-1
5.806403083E0,-6.400152445E-1,-1.349514365E0,2.896943092E-1
5.816115219E0,-7.059867382E-1,-1.612331390E0,2.188360244E-1
5.825826469E0,-6.937697530E-1,-1.674637794E0,1.528645307E-1
5.835538604E0,-6.473453641E-1,-1.563463569E0,9.177979827E-2
5.845251469E0,-6.998782754E-1,-1.466796994E0,-1.206423342E-2
5.854963500E0,-7.597413063E-1,-1.360509515E0,-9.391776472E-2
5.864674802E0,-6.009209752E-1,-8.693883419E-1,-1.049130186E-1
5.874386937E0,-1.794363856E-1,-1.510319859E-1,-8.903098851E-2
5.884099854E0,4.179722369E-1,1.751604527E-1,-1.159082651E-1
5.893811885E0,9.347490072E-1,8.842013776E-2,-1.782146841E-1
5.903523187E0,1.201078415E0,-1.815743446E-1,-2.124221325E-1
5.913235323E0,1.257276416E0,-4.747810364E-1,-1.818797737E-1
5.922948240E0,1.197413325E0,-6.959077120E-1,-5.115845799E-2
5.932660271E0,1.099677801E0,-8.180772066E-1,1.675248593E-1
5.942371573E0,1.010494113E0,-8.852704167E-1,3.642176688E-1
5.952083708E0,9.775083065E-1,-8.791618943E-1,4.753918648E-1
5.961796625E0,1.022711039E0,-8.266290426E-1,5.083776116E-1
5.971508656E0,1.115559816E0,-7.472189069E-1,4.680617154E-1
5.981219958E0,1.198634982E0,-6.079457402E-1,3.898732662E-1
5.990932094E0,1.224290609E0,-3.941491842E-1,2.921377122E-1
6.000645010E0,1.212073684E0,-1.876828223E-1,1.821851879E-1
6.010357042E0,1.221847177E0,-2.031067200E-2,6.734590977E-2
6.020068344E0,1.282931924E0,1.116323397E-1,-4.993676394E-2
6.029780531E0,1.386775970E0,2.020377368E-1,-1.574458778E-1
6.039493396E0,1.502836943E0,2.545706034E-1,-2.307475507E-1
6.049205531E0,1.587133884E0,2.851129472E-1,-2.527380586E-1
6.058916781E0,1.596907496E0,2.997733057E-1,-2.234173864E-1
6.068628917E0,1.513832211E0,2.728960216E-1,-1.488940120E-1
6.078341781E0,1.356233597E0,1.910424829E-1,-5.848862603E-2
6.088053917E0,1.160762548E0,7.620319724E-2,3.436015919E-2
6.097765167E0,9.701781869E-1,-4.718795046E-2,1.247655526E-1
6.107477302E0,8.309049606E-1,-1.534753740E-1,1.956238300E-1
6.117190219E0,7.563816309E-1,-2.182251811E-1,2.396048307E-1
6.126902250E0,7.258392572E-1,-2.304421216E-1,2.628170252E-1
6.136613604E0,7.295043468E-1,-1.656923145E-1,2.677038014E-1
6.146325740E0,7.795938253E-1,-8.261708915E-2,2.420482337E-1
6.156038656E0,8.638907075E-1,-3.008422814E-2,1.895153672E-1
6.165750687E0,9.579612017E-1,2.977880463E-2,1.174353883E-1
6.175461990E0,1.048366666E0,1.287360638E-1,4.657710344E-2
6.185174177E0,1.125333309E0,2.350234836E-1,-4.734066315E-3
6.194887042E0,1.171757698E0,3.083251417E-1,-2.672456764E-2
6.204599177E0,1.161984205E0,3.425326049E-1,-2.183778957E-2
6.214310427E0,1.103342891E0,3.205420971E-1,1.481304597E-2
6.224022562E0,1.003163934E0,2.521272004E-1,6.490252167E-2
6.233735479E0,8.858812451E-1,1.568350345E-1,1.101052165E-1
6.243447510E0,7.747070193E-1,7.253811508E-2,1.516428292E-1
6.253158865E0,6.916317940E-1,5.344913341E-3,1.785201132E-1
6.262871000E0,6.513158679E-1,-4.230117425E-2,1.931804419E-1
6.272583917E0,6.403206587E-1,-6.184828654E-2,2.102841735E-1
6.282295948E0,6.403206587E-1,-5.207473040E-2,2.237228155E-1
6.292007302E0,6.329904795E-1,-5.650337320E-3,2.237228155E-1
6.301719437E0,6.158867478E-1,7.742489129E-2,2.127275616E-1
6.311432354E0,5.975613594E-1,2.032594234E-1,1.956238300E-1
6.321144385E0,5.890094638E-1,3.400892019E-1,1.760767251E-1
6.330855740E0,5.829010010E-1,4.744756222E-1,1.601946950E-1
6.340567875E0,5.621321797E-1,5.856497884E-1,1.333174109E-1
6.350280792E0,5.169295073E-1,6.613948941E-1,9.544488788E-2
6.359992927E0,4.485146105E-1,6.992673874E-1,6.001574174E-2
6.369704177E0,3.617742956E-1,7.053758502E-1,3.680354729E-2
6.379416365E0,2.799207568E-1,6.650599241E-1,1.847812906E-2
6.389129229E0,2.188360244E-1,5.648810267E-1,8.704573847E-3
6.398841365E0,1.760767251E-1,4.524851143E-1,1.527118147E-4
6.408552615E0,1.553079188E-1,3.486410677E-1,6.261184346E-3
6.418264802E0,1.663031727E-1,2.557922900E-1,2.702999115E-2
6.427977719E0,1.907370538E-1,1.898207814E-1,3.680354729E-2
6.437689750E0,1.858502775E-1,1.666085869E-1,2.458660305E-2
6.447401104E0,1.369825006E-1,1.641651988E-1,-2.305948362E-2
6.457113240E0,6.978929788E-2,2.276933193E-1,-9.758284688E-2
6.466826156E0,3.680354729E-2,3.852919042E-1,-1.611109674E-1
6.476538292E0,7.101099193E-2,5.416688323E-1,-1.831014603E-1
6.486249542E0,9.177979827E-2,7.114843726E-1,-1.672194302E-1
6.495961729E0,1.374406274E-3,8.935168386E-1,-1.244601309E-1
6.505674646E0,-1.843231618E-1,9.008470178E-1,-8.536590636E-2
6.515386677E0,-4.323271513E-1,7.102626562E-1,-6.581879407E-2
6.525098031E0,-7.218687534E-1,4.500417113E-1,-8.170082420E-2
6.534810167E0,-9.979717135E-1,2.325800955E-1,-1.012479365E-1
6.544523083E0,-1.261857748E0,1.262926757E-1,-9.147437662E-2
6.554235219E0,-1.595380306E0,1.605001241E-1,-4.016320780E-2
6.563946521E0,-2.020529985E0,2.606790662E-1,2.947338112E-2
6.573658656E0,-2.450566530E0,2.924431264E-1,7.345438004E-2
6.583371573E0,-2.808522940E0,2.032594234E-1,7.345438004E-2
6.593083708E0,-3.056526899E0,6.398624927E-2,3.802524135E-2
6.602794958E0,-3.183583260E0,-7.650861889E-2,-1.084253844E-2
6.612507146E0,-3.217790604E0,-1.644706279E-1,-4.260659590E-2
6.622220062E0,-3.173809528E0,-1.925695986E-1,-4.749337584E-2
6.631932198E0,-3.038201571E0,-2.096733153E-1,-4.016320780E-2
6.641643448E0,-2.812188148E0,-2.023431510E-1,-2.305948362E-2
6.651355635E0,-2.537306786E0,-8.383878320E-2,-1.068982761E-3
6.661068552E0,-2.267312288E0,1.470614821E-1,4.169032723E-2
6.670780687E0,-2.051072359E0,4.146125913E-1,8.322793990E-2
6.680491937E0,-1.899582267E0,6.039752364E-1,8.444963396E-2
6.690204125E0,-1.810398579E0,6.662816405E-1,4.779879749E-2
6.699917042E0,-1.774969459E0,6.870504618E-1,-1.572931744E-2
6.709629177E0,-1.750535488E0,6.626165509E-1,-1.073564067E-1
6.719340427E0,-1.715106368E0,5.697677732E-1,-2.124221325E-1
6.729052615E0,-1.680898905E0,4.353813827E-1,-2.942756712E-1
6.738765531E0,-1.661351800E0,2.753393948E-1,-3.407000601E-1
6.748477667E0,-1.666238666E0,8.719844371E-2,-3.419217467E-1
6.758188969E0,-1.684563994E0,-9.605573118E-2,-3.211529553E-1
6.767901104E0,-1.688229084E0,-2.426590770E-1,-3.003841341E-1
6.777614021E0,-1.662573576E0,-3.550549746E-1,-2.893888950E-1
6.787326156E0,-1.612484097E0,-4.039227366E-1,-2.942756712E-1
6.797037458E0,-1.530630469E0,-3.819322586E-1,-2.991624475E-1
6.806749646E0,-1.401130915E0,-3.367295563E-1,-3.101576865E-1
6.816462562E0,-1.227650285E0,-3.196258247E-1,-3.345915973E-1
6.826174698E0,-1.033400893E0,-3.196258247E-1,-3.614688516E-1
6.835885948E0,-8.342646360E-1,-3.086305857E-1,-3.834593594E-1
6.845598135E0,-6.290199757E-1,-2.768665254E-1,-3.883461356E-1
6.855311052E0,-4.225535989E-1,-2.182251811E-1,-3.687990308E-1
6.865023187E0,-2.197522968E-1,-1.510319859E-1,-3.284831047E-1
6.874734490E0,-2.550287358E-2,-1.082726792E-1,-2.796153426E-1
6.884446677E0,1.491994411E-1,-9.972081333E-2,-2.270824611E-1
6.894159594E0,3.043546379E-1,-1.229330078E-1,-1.782146841E-1
6.903871729E0,4.399627447E-1,-1.571404636E-1,-1.207950488E-1
6.913583031E0,5.621321797E-1,-1.864611208E-1,-5.482354015E-2
6.923295219E0,6.830799580E-1,-2.072299272E-1,2.214321308E-2
6.933008135E0,8.052493930E-1,-2.365505993E-1,9.910997003E-2
6.942720167E0,9.200887084E-1,-2.890834510E-1,1.663031727E-1
6.952431521E0,1.020267606E0,-3.550549746E-1,2.102841735E-1
6.962143708E0,1.107007980E0,-4.100312293E-1,2.212794125E-1
6.971856625E0,1.186418056E0,-4.246915579E-1,2.078407854E-1
6.981568760E0,1.271936655E0,-3.697153032E-1,1.858502775E-1
6.991280062E0,1.367228866E0,-2.047865391E-1,1.675248593E-1
7.000992250E0,1.466186166E0,8.842013776E-2,1.528645307E-1
7.010705167E0,1.534600973E0,4.976878166E-1,1.272089481E-1
7.020417302E0,1.552926421E0,9.497147799E-1,6.245913357E-2
7.030128604E0,1.478403091E0,1.305227876E0,-4.260659590E-2
7.039840792E0,1.291483760E0,1.560562015E0,-1.574458778E-1
7.049553708E0,1.065470338E0,1.659519315E0,-2.466295809E-1
7.059265844E0,8.480086923E-1,1.522689462E0,-3.297048211E-1
7.068977146E0,6.256603003E-1,1.191610336E0,-4.433223903E-1
7.078689333E0,3.788780272E-1,7.542436719E-1,-5.630484819E-1
7.088402250E0,9.910997003E-2,3.132119179E-1,-6.387935281E-1
7.098114385E0,-1.623326540E-1,-8.506047726E-2,-6.620057225E-1
7.107825687E0,-3.248180151E-1,-4.308000207E-1,-6.534538269E-1
7.117537875E0,-3.590254784E-1,-6.433748603E-1,-6.277982593E-1
7.127250844E0,-2.539597452E-1,-5.505260825E-1,-5.630484819E-1
7.136962979E0,-3.894151375E-2,-4.027010500E-1,-4.274403751E-1
7.146674229E0,1.870719790E-1,-1.742441803E-1,-3.028275371E-1
7.156386469E0,3.581092060E-1,1.885990947E-1,-2.661767006E-1
7.166099385E0,4.289674759E-1,4.121691883E-1,-2.942756712E-1
7.175811521E0,2.896943092E-1,3.950654566E-1,-3.419217467E-1
7.185522823E0,-3.527642787E-2,7.620319724E-2,-3.260397315E-1
7.195235010E0,-3.419217467E-1,-3.159607351E-1,-2.380777150E-1
7.204947927E0,-3.663556576E-1,-5.212054253E-1,-1.146865711E-1
7.214660062E0,-5.848862603E-2,-7.142331600E-1,1.969982497E-2
7.224371365E0,3.520007432E-1,-1.047755718E0,7.711946964E-2
7.234083552E0,5.792359114E-1,-1.419150949E0,5.879404768E-2
7.243796521E0,5.694623590E-1,-1.752826214E0,3.436015919E-2
7.253508656E0,4.509579837E-1,-1.949519038E0,1.847812906E-2
7.263219958E0,3.532224298E-1,-1.981283069E0,3.924693540E-2
7.272932146E0,3.348970115E-1,-1.950740695E0,1.174353883E-1
7.282645062E0,4.057552814E-1,-1.865222096E0,2.383831441E-1
7.292357198E0,5.462501645E-1,-1.697849989E0,3.019112647E-1
7.302068552E0,7.246175408E-1,-1.454580069E0,3.055763543E-1
7.311780740E0,9.237537384E-1,-1.158929944E0,2.835858464E-1
7.321493656E0,1.114338160E0,-8.583931327E-1,2.567085624E-1
7.331205792E0,1.253611326E0,-5.774033666E-1,2.347180545E-1
7.340917094E0,1.323247910E0,-2.976353168E-1,2.066190839E-1
7.350629281E0,1.348903418E0,-2.519745007E-2,1.589729935E-1
7.360342250E0,1.380667567E0,2.228065431E-1,8.933641016E-2
7.370054385E0,1.444195628E0,4.243861437E-1,2.092151903E-2
7.379765687E0,1.530935884E0,5.783196688E-1,-5.115845799E-2
7.389477875E0,1.610346079E0,6.882721782E-1,-1.256818175E-1
7.399190844E0,1.657992125E0,7.261446714E-1,-1.818797737E-1
7.408902979E0,1.651883721E0,7.053758502E-1,-2.099787444E-1
7.418614281E0,1.579803705E0,6.540647149E-1,-2.063136548E-1
7.428326469E0,1.441752195E0,5.783196688E-1,-1.782146841E-1
7.438039385E0,1.263384819E0,4.549284875E-1,-1.354553849E-1
7.447751573E0,1.082574010E0,2.826695740E-1,-8.047912270E-2
7.457462875E0,9.176452756E-1,9.575030953E-2,-1.084253844E-2
7.467175062E0,7.747070193E-1,-6.429167092E-2,6.612421572E-2
7.476888031E0,6.537593007E-1,-1.925695986E-1,1.308740228E-1
7.486600167E0,5.731274486E-1,-2.915268540E-1,1.772984117E-1
7.496311469E0,5.438067913E-1,-3.526115716E-1,2.090624720E-1
7.506023656E0,5.645755529E-1,-3.733803928E-1,2.127275616E-1
7.515736625E0,6.305471063E-1,-3.440597057E-1,1.980672181E-1
7.525448760E0,7.368345261E-1,-2.695363462E-1,1.601946950E-1
7.535160062E0,8.577822447E-1,-1.644706279E-1,1.125486046E-1
7.544872302E0,9.579612017E-1,-4.963133857E-2,6.245913357E-2
7.554585219E0,1.021489382E0,5.421269313E-2,2.702999115E-2
7.564297354E0,1.053253412E0,1.152974218E-1,9.926267900E-3
7.574008656E0,1.063026905E0,1.177408099E-1,2.596100792E-3
7.583720896E0,1.050809979E0,1.067455560E-1,8.704573847E-3
7.593433812E0,1.026376128E0,1.018587798E-1,3.680354729E-2
7.603146000E0,9.946120381E-1,1.067455560E-1,9.300149232E-2
7.612857302E0,9.665130973E-1,9.575030953E-2,1.638597846E-1
7.622569490E0,9.445225596E-1,8.231166750E-2,2.371614426E-1
7.632282458E0,9.274188280E-1,1.018587798E-1,2.896943092E-1
7.641994594E0,9.164236188E-1,1.458397806E-1,3.251234591E-1
7.651705896E0,9.017632604E-1,1.824906170E-1,3.446705639E-1
7.661418135E0,8.651124239E-1,2.191414535E-1,3.471139669E-1
7.671131052E0,8.076927662E-1,2.484621257E-1,3.324536085E-1
7.680843240E0,7.441646457E-1,2.838912606E-1,2.945810854E-1
7.690554542E0,6.733064055E-1,3.584146202E-1,2.383831441E-1
7.700266729E0,5.865660906E-1,4.866925478E-1,1.772984117E-1
7.709979698E0,4.827220440E-1,6.369609833E-1,1.259872466E-1
7.719691833E0,3.874298632E-1,7.322531343E-1,6.856760383E-2
7.729403135E0,3.300102353E-1,7.224795818E-1,2.596100792E-3
7.739115375E0,3.006895781E-1,6.589514613E-1,-5.115845799E-2
7.748828292E0,2.786990702E-1,5.942016840E-1,-8.292251825E-2
7.758540479E0,2.652604282E-1,5.233433843E-1,-8.536590636E-2
7.768251781E0,2.591519356E-1,4.243861437E-1,-6.215370819E-2
7.777964021E0,2.261662036E-1,3.278722763E-1,-3.283303976E-2
7.787676937E0,1.223221645E-1,2.643441558E-1,-2.061609551E-2
7.797389125E0,-8.399149403E-3,2.472404242E-1,-3.527642787E-2
7.807100427E0,-9.025268257E-2,2.997733057E-1,-6.581879407E-2
7.816812615E0,-7.070557028E-2,4.036173224E-1,-7.803573459E-2
7.826525583E0,-8.399149403E-3,5.465555787E-1,-7.437065244E-2
7.836237719E0,-1.695101149E-2,7.310314775E-1,-7.681404054E-2
7.845949073E0,-1.049130186E-1,8.165500760E-1,-9.880454093E-2
7.855661260E0,-2.588465214E-1,7.481352091E-1,-1.391204596E-1
7.865374229E0,-4.897467792E-1,6.247440577E-1,-1.855448484E-1
7.875086365E0,-7.389724851E-1,4.891359508E-1,-2.173089087E-1
7.884797719E0,-9.894198179E-1,3.681881726E-1,-2.136438340E-1
7.894509906E0,-1.305838704E0,3.180987239E-1,-1.806580722E-1
7.904222875E0,-1.699224353E0,3.119902313E-1,-1.391204596E-1
7.913935010E0,-2.090166569E0,3.095468581E-1,-1.085781008E-1
7.923646365E0,-2.415137291E0,3.009949923E-1,-9.025268257E-2
7.933358552E0,-2.648480892E0,2.838912606E-1,-8.658760041E-2
7.943071521E0,-2.780424118E0,2.814478874E-1,-9.513945878E-2
7.952783708E0,-2.808522940E0,3.547495604E-1,-1.183516532E-1
7.962495010E0,-2.749881744E0,4.903576374E-1,-1.464506239E-1
7.972207250E0,-2.649702787E0,6.308525205E-1,-1.794363856E-1
7.981920167E0,-2.528754950E0,6.956022978E-1,-2.319692522E-1
7.991632354E0,-2.346722364E0,6.149705052E-1,-2.625116110E-1
8.001343656E0,-2.129260778E0,4.366030693E-1,-2.392994165E-1
8.011055896E0,-1.960667014E0,2.826695740E-1,-1.672194302E-1
8.020768865E0,-1.904469013E0,1.910424829E-1,-7.803573459E-2
8.030481000E0,-1.938676476E0,1.214058921E-1,9.926267900E-3
8.040192354E0,-1.992431045E0,2.244863659E-2,6.612421572E-2
8.049904542E0,-2.019308329E0,-7.162184268E-2,6.123743951E-2
8.059617510E0,-2.030303478E0,-1.021642014E-1,1.236965694E-2
8.069329646E0,-2.026638508E0,-6.551336497E-2,-5.238015205E-2
8.079041000E0,-1.994874477E0,-6.872031838E-3,-1.269035190E-1
8.088753240E0,-1.924016118E0,-6.872031838E-3,-1.879882365E-1
8.098466156E0,-1.826280594E0,-6.062658876E-2,-2.319692522E-1
8.108178344E0,-1.708997965E0,-1.461452097E-1,-2.673983872E-1
8.117889646E0,-1.586828470E0,-2.487675399E-1,-3.003841341E-1
8.127601885E0,-1.482984424E0,-3.232909143E-1,-3.089359999E-1
8.137314854E0,-1.406017661E0,-3.660502136E-1,-2.747285664E-1
8.147027042E0,-1.332715988E0,-3.782671690E-1,-2.124221325E-1
8.156738344E0,-1.239867210E0,-3.587200642E-1,-1.525591016E-1
8.166450583E0,-1.123806238E0,-3.281776905E-1,-1.146865711E-1
8.176163500E0,-9.869764447E-1,-3.074088693E-1,-1.036913246E-1
8.185875687E0,-8.440381885E-1,-3.061871827E-1,-1.207950488E-1
8.195587042E0,-6.962131858E-1,-2.964136302E-1,-1.501157135E-1
8.205299229E0,-5.410579443E-1,-2.646495700E-1,-1.659977436E-1
8.215012198E0,-3.871244490E-1,-2.206685692E-1,-1.525591016E-1
8.224724385E0,-2.392994165E-1,-1.656923145E-1,-1.134648770E-1
8.234435687E0,-9.880454093E-2,-1.021642014E-1,-5.726693198E-2
8.244147927E0,3.558185324E-2,-4.840964451E-2,6.261184346E-3
8.253860896E0,1.663031727E-1,-1.664558798E-2,6.612421572E-2
8.263573083E0,2.933593988E-1,-1.985253533E-3,1.223221645E-1
8.273284385E0,4.191939235E-1,-1.985253533E-3,1.748550236E-1
8.282996625E0,5.486935377E-1,-4.428642802E-3,2.188360244E-1
8.292709594E0,6.733064055E-1,-1.298050396E-2,2.542651594E-1
8.302421781E0,7.893673778E-1,-4.352286831E-2,2.713688910E-1
8.312133083E0,8.993198872E-1,-1.033858955E-1,2.603736520E-1
8.321845323E0,1.006829023E0,-1.412584335E-1,2.163926363E-1
8.331558292E0,1.105786204E0,-6.062658876E-2,1.479777545E-1
8.341270479E0,1.207186937E0,1.372879148E-1,7.834116369E-2
8.350981781E0,1.319582820E0,4.036173224E-1,4.291202128E-2
8.360694021E0,1.397771239E0,7.383615971E-1,3.924693540E-2
8.370406990E0,1.387997627E0,1.145185947E0,3.680354729E-2
8.380119177E0,1.257276416E0,1.564227104E0,1.114796288E-2
8.389830479E0,1.042258143E0,1.822004676E0,-2.672456764E-2
8.399542719E0,8.064711094E-1,1.795127392E0,-8.170082420E-2
8.409255687E0,5.584670901E-1,1.523911238E0,-1.586675793E-1
8.418967875E0,2.860292196E-1,1.090209603E0,-2.270824611E-1
8.428679177E0,-1.084253844E-2,5.502206683E-1,-2.698417902E-1
8.438391417E0,-3.382566571E-1,4.123218823E-3,-2.796153426E-1
8.448104385E0,-6.375718117E-1,-4.491254389E-1,-2.600682080E-1
8.457816573E0,-8.025006056E-1,-7.997517586E-1,-2.307475507E-1
8.467527927E0,-8.232693672E-1,-9.854493141E-1,-1.940967143E-1
8.477240115E0,-7.084301114E-1,-9.292513728E-1,-1.440072358E-1
8.486953083E0,-4.763081372E-1,-8.950439692E-1,-8.047912270E-2
8.496665271E0,-2.502946556E-1,-9.817842841E-1,-4.993676394E-2
8.506376625E0,-1.122431830E-1,-8.962656260E-1,-1.049130186E-1
8.516088865E0,-4.871506989E-2,-5.334223509E-1,-2.136438340E-1
8.525801833E0,-3.512371797E-3,-1.595838517E-1,-2.918322682E-1
8.535514021E0,7.834116369E-2,-6.917845458E-2,-3.064926267E-1
8.545225323E0,1.516428292E-1,-1.913478971E-1,-2.686200738E-1
8.554937562E0,2.115058601E-1,-2.548760176E-1,-1.867665499E-1
8.564650531E0,3.776563108E-1,-1.827960461E-1,-9.513945878E-2
8.574362719E0,7.124006152E-1,-1.889045089E-1,-5.482354015E-2
8.584074073E0,1.074022174E0,-3.648285270E-1,-7.559234649E-2
8.593786312E0,1.285375357E0,-5.847335458E-1,-1.305686086E-1
8.603499281E0,1.309809208E0,-7.545490861E-1,-1.635543555E-1
8.613211469E0,1.209630251E0,-8.058602214E-1,-1.305686086E-1
8.622922771E0,1.082574010E0,-7.569924593E-1,-3.161134571E-2
8.632635010E0,9.970554113E-1,-7.020162344E-1,1.223221645E-1
8.642347979E0,9.652913809E-1,-6.714738607E-1,2.701472044E-1
8.652060167E0,9.823951125E-1,-5.871769190E-1,3.813214004E-1
8.661771521E0,1.050809979E0,-4.259132445E-1,4.558447599E-1
8.671483760E0,1.155875683E0,-2.719797492E-1,4.839437306E-1
8.681196729E0,1.265828252E0,-1.229330078E-1,4.509579837E-1
8.690908917E0,1.356233597E0,4.077405483E-2,3.703261614E-1
8.700620271E0,1.413653255E0,2.044811249E-1,2.506000996E-1
8.710332510E0,1.450304151E0,3.523061574E-1,1.235438585E-1
8.720045479E0,1.457634330E0,4.756973088E-1,1.359135192E-2
8.729757667E0,1.453969240E0,5.575508475E-1,-6.459710002E-2
8.739469021E0,1.449082375E0,6.003101468E-1,-1.000262350E-1
8.749181260E0,1.420983434E0,5.929799676E-1,-1.049130186E-1
8.758894229E0,1.356233597E0,5.172349215E-1,-1.012479365E-1
8.768606417E0,1.258498073E0,4.048390090E-1,-1.049130186E-1
8.778317771E0,1.155875683E0,2.692309320E-1,-1.269035190E-1
8.788029958E0,1.072800517E0,1.556133330E-1,-1.440072358E-1
8.797742979E0,1.000720501E0,9.330692142E-2,-1.244601309E-1
8.807455167E0,9.433009028E-1,7.253811508E-2,-8.292251825E-2
8.817166469E0,8.980981708E-1,5.665608495E-2,-3.771981969E-2
8.826878708E0,8.565605879E-1,3.588727489E-2,1.603474095E-2
8.836591729E0,8.125795722E-1,2.901524538E-3,6.856760383E-2
8.846303917E0,7.759287357E-1,-3.374931216E-2,9.788827598E-2
8.856015271E0,7.649334669E-1,-3.985778242E-2,1.003316641E-1
8.865727510E0,7.905890942E-1,1.878355257E-2,9.055810422E-2
8.875440479E0,8.590039611E-1,1.214058921E-1,6.856760383E-2
8.885152667E0,9.506310225E-1,2.228065431E-1,3.802524135E-2
8.894864021E0,1.043479800E0,2.790044844E-1,1.114796288E-2
8.904576260E0,1.113116384E0,2.899997234E-1,-1.206423342E-2
8.914289229E0,1.148545504E0,2.643441558E-1,-2.550287358E-2
8.924001417E0,1.146102190E0,2.081461996E-1,-2.550287358E-2
8.933712771E0,1.103342891E0,1.714953631E-1,-1.572931744E-2
8.943425010E0,1.019045949E0,1.861557066E-1,1.374406274E-3
8.953137979E0,9.090934396E-1,2.252499312E-1,2.092151903E-2
8.962850167E0,7.954758406E-1,2.472404242E-1,2.458660305E-2
8.972561521E0,6.952968836E-1,2.692309320E-1,2.336490713E-2
8.982273760E0,6.268820167E-1,3.266505599E-1,3.436015919E-2
8.991986781E0,5.902311802E-1,4.170559645E-1,5.879404768E-2
9.001698969E0,5.792359114E-1,5.209000111E-1,9.177979827E-2
9.011410323E0,5.804576278E-1,6.125270724E-1,1.174353883E-1
9.021122562E0,5.853443742E-1,6.858287454E-1,1.333174109E-1
9.030835531E0,5.853443742E-1,7.469134927E-1,1.394258887E-1
9.040547719E0,5.829010010E-1,7.982246280E-1,1.198787764E-1
9.050259073E0,5.890094638E-1,8.544226289E-1,7.345438004E-2
9.059971312E0,5.865660906E-1,9.240592122E-1,3.817795310E-3
9.069684333E0,5.438067913E-1,9.875873327E-1,-5.604523420E-2
9.079396521E0,4.619532526E-1,1.029124975E0,-9.025268257E-2
9.089107875E0,3.654393852E-1,9.912523627E-1,-1.122431830E-1
9.098820115E0,3.043546379E-1,8.409839869E-1,-1.110214889E-1
9.108533083E0,2.738122940E-1,6.736118197E-1,-8.047912270E-2
9.118245271E0,2.750339806E-1,5.318952799E-1,-2.672456764E-2
9.127956625E0,3.116848171E-1,4.427115619E-1,6.261184346E-3
9.137668865E0,3.520007432E-1,4.598152637E-1,-1.572931744E-2
9.147381885E0,3.312319219E-1,5.563291311E-1,-6.704048812E-2
9.157094073E0,2.237228155E-1,6.503996253E-1,-1.550024897E-1
9.166805427E0,7.101099193E-2,7.298097610E-1,-2.564031482E-1
9.176517667E0,-2.550287358E-2,7.786775231E-1,-3.077143133E-1
9.186230687E0,-7.925742865E-2,8.483141065E-1,-2.918322682E-1
9.195942875E0,-1.904316396E-1,9.753703475E-1,-2.075353563E-1
9.205654229E0,-3.907895386E-1,9.863656163E-1,-6.093201414E-2
9.215366469E0,-6.974348426E-1,8.177717924E-1,1.113269106E-1
9.225079437E0,-1.088377118E0,5.673243999E-1,2.371614426E-1
9.234791677E0,-1.470767498E0,3.254288733E-1,2.762556672E-1
9.244503031E0,-1.790851474E0,2.105895877E-1,2.334963679E-1
9.254215271E0,-2.074284554E0,3.058817685E-1,1.626380831E-1
9.263928240E0,-2.325953722E0,5.441122055E-1,9.910997003E-2
9.273640479E0,-2.518981457E0,7.481352091E-1,3.802524135E-2
9.283351833E0,-2.650924444E0,8.312104344E-1,-3.894151375E-2
9.293064073E0,-2.726669550E0,8.263236284E-1,-1.073564067E-1
9.302777042E0,-2.766985416E0,7.689039707E-1,-1.293469071E-1
9.312489281E0,-2.753546715E0,6.540647149E-1,-1.012479365E-1
9.322200635E0,-2.680245161E0,5.013529062E-1,-3.527642787E-2
9.331912875E0,-2.566627502E0,3.804051280E-1,2.214321308E-2
9.341625896E0,-2.422467470E0,3.449759781E-1,6.368082762E-2
9.351338083E0,-2.253873587E0,4.194993675E-1,1.052184403E-1
9.361049437E0,-2.079171419E0,5.880932212E-1,1.491994411E-1
9.370761677E0,-1.915464282E0,7.982246280E-1,1.919587553E-1
9.380474698E0,-1.772526026E0,9.692618847E-1,2.041756958E-1
9.390186885E0,-1.679677248E0,1.021794796E0,1.443126649E-1
9.399898240E0,-1.654021621E0,9.607100487E-1,6.261184346E-3
9.409610479E0,-1.668681979E0,8.189934492E-1,-1.415638477E-1
9.419323500E0,-1.688229084E0,6.223006248E-1,-2.307475507E-1
9.429035687E0,-1.689450860E0,4.610369802E-1,-2.331909388E-1
9.438747042E0,-1.657686710E0,3.547495604E-1,-1.757712960E-1
9.448459333E0,-1.606375575E0,2.814478874E-1,-1.061347127E-1
9.458172302E0,-1.548955917E0,1.861557066E-1,-3.161134571E-2
9.467884542E0,-1.502531528E0,6.276455522E-2,2.214321308E-2
9.477595896E0,-1.460993886E0,-5.329642445E-2,5.268557742E-2
9.487308135E0,-1.403574347E0,-1.461452097E-1,7.345438004E-2
9.497021156E0,-1.308282137E0,-2.011214644E-1,8.811471611E-2
9.506733344E0,-1.172674060E0,-1.962346882E-1,1.003316641E-1
9.516444698E0,-1.002858520E0,-1.485885978E-1,1.064401343E-1
9.526156990E0,-8.049439788E-1,-4.718795046E-2,1.052184403E-1
9.535869958E0,-5.923691392E-1,9.452861547E-2,1.064401343E-1
9.545582198E0,-3.736858070E-1,2.374668717E-1,1.198787764E-1
9.555293552E0,-1.672194302E-1,3.449759781E-1,1.430909634E-1
9.565005792E0,1.481304597E-2,3.901786804E-1,1.663031727E-1
9.574718812E0,1.858502775E-1,3.779617548E-1,1.870719790E-1
9.584431000E0,3.568875194E-1,3.364241421E-1,2.053973973E-1
9.594142354E0,5.291464329E-1,2.997733057E-1,2.237228155E-1
9.603854646E0,7.050704360E-1,2.887780368E-1,2.481566966E-1
9.613567615E0,8.761076927E-1,2.814478874E-1,2.725905776E-1
9.623279854E0,1.027597785E0,2.728960216E-1,2.909159958E-1
9.632991208E0,1.148545504E0,2.655658424E-1,3.031329513E-1
9.642703448E0,1.235285878E0,2.570139766E-1,3.043546379E-1
9.652416469E0,1.293927193E0,2.289150059E-1,2.921377122E-1
9.662128656E0,1.329356313E0,1.947075576E-1,2.628170252E-1
9.671840062E0,1.341573238E0,2.057028115E-1,2.188360244E-1
9.681552302E0,1.324469566E0,2.973299026E-1,1.663031727E-1
9.691265323E0,1.274380088E0,4.854708612E-1,1.052184403E-1
9.700977510E0,1.220625520E0,7.408050299E-1,4.169032723E-2
9.710688865E0,1.174201131E0,1.058445573E0,-1.817270555E-2
9.720401156E0,1.127776742E0,1.417623758E0,-7.437065244E-2
9.730114177E0,1.089904189E0,1.786575556E0,-1.232384369E-1
9.739826365E0,1.044701576E0,2.033357859E0,-1.684411317E-1
9.749537719E0,9.555178285E-1,2.048018217E0,-2.160872221E-1
9.759250010E0,8.064711094E-1,1.830556512E0,-2.783936262E-1
9.768962979E0,5.877877474E-1,1.395633221E0,-3.345915973E-1
9.778675219E0,3.006895781E-1,7.469134927E-1,-3.529170156E-1
9.788386573E0,-3.038965166E-2,1.091889441E-1,-3.516952991E-1
9.798098812E0,-3.407000601E-1,-3.171824515E-1,-3.016058207E-1
9.807811833E0,-5.300627351E-1,-7.618792653E-1,-1.684411317E-1
9.817524073E0,-6.180247068E-1,-1.058750987E0,-6.581879407E-2
9.827235427E0,-6.913263798E-1,-1.013548255E0,-8.292251825E-2
9.836947667E0,-6.656708121E-1,-8.400676847E-1,-1.855448484E-1
9.846660687E0,-5.044071078E-1,-3.391729295E-1,-3.700207174E-1
9.856372927E0,-3.260397315E-1,6.566607859E-3,-5.202891231E-1
9.866084281E0,-1.586675793E-1,-3.513898849E-1,-5.312843919E-1
9.875796521E0,-1.269035190E-1,-7.960866690E-1,-4.726430774E-1
9.885509542E0,-2.026485801E-1,-9.109259844E-1,-4.286620617E-1
9.895221781E0,-1.598892659E-1,-1.047755718E0,-3.797942698E-1
9.904933135E0,5.512896553E-2,-1.260330558E0,-3.272614181E-1
9.914645375E0,2.774773538E-1,-1.261552334E0,-2.539597452E-1
9.924358396E0,4.301891923E-1,-9.048175216E-1,-1.305686086E-1
9.934070635E0,6.244385839E-1,-5.590779781E-1,1.603474095E-2
9.943781990E0,9.323056340E-1,-4.466820657E-1,1.382041872E-1
9.953494229E0,1.208408594E0,-3.965925872E-1,1.968455315E-1
9.963207250E0,1.367228866E0,-2.670929730E-1,1.882936656E-1
9.972919437E0,1.413653255E0,-1.424801201E-1,1.455343664E-1
9.982630844E0,1.395327806E0,-7.773031294E-2,1.027750522E-1
9.992343083E0,1.347681761E0,-7.773031294E-2,8.689302206E-2
1.000205610E1,1.271936655E0,-8.628217876E-2,1.247655526E-1
1.001176834E1,1.181531310E0,-5.207473040E-2,1.931804419E-1
1.002147970E1,1.107007980E0,7.788302377E-3,2.408265322E-1
1.003119199E1,1.074022174E0,9.208522737E-2,2.420482337E-1
1.004090496E1,1.098456025E0,2.081461996E-1,2.151709497E-1
1.005061720E1,1.163205862E0,3.584146202E-1,1.858502775E-1
1.006032855E1,1.249946237E0,5.465555787E-1,1.614163816E-1
1.007004084E1,1.346460104E0,7.554653287E-1,1.369825006E-1
1.007975381E1,1.416096687E0,9.680401683E-1,9.422318637E-2
1.008946605E1,1.452747464E0,1.139077425E0,2.214321308E-2
1.009917741E1,1.464964390E0,1.260025144E0,-5.848862603E-2
1.010888970E1,1.455190897E0,1.346765518E0,-1.232384369E-1
1.011860267E1,1.412431598E0,1.379751205E0,-1.537808031E-1
1.012831491E1,1.352568507E0,1.327218413E0,-1.537808031E-1
1.013802626E1,1.290262103E0,1.185501814E0,-1.317902952E-1
1.014773855E1,1.205965161E0,1.005912781E0,-1.049130186E-1
1.015745157E1,1.118003249E0,8.385405540E-1,-8.658760041E-2
1.016716376E1,1.056918502E0,6.907155514E-1,-7.070557028E-2
1.017687512E1,1.054475069E0,5.807630420E-1,-5.238015205E-2
1.018658741E1,1.099677801E0,5.404471159E-1,-3.283303976E-2
1.019630043E1,1.171757698E0,5.734328628E-1,-1.817270555E-2
1.020601262E1,1.231620789E0,6.394043565E-1,-1.068982761E-3
1.021572402E1,1.251167893E0,7.139277458E-1,1.374406274E-3
1.022543626E1,1.225512266E0,7.579087615E-1,-1.068982761E-3
1.023514928E1,1.170536041E0,7.701256871E-1,-2.290677279E-3
1.024486147E1,1.105786204E0,7.774558663E-1,6.261184346E-3
1.025457288E1,1.054475069E0,7.835643291E-1,3.313846514E-2
1.026428512E1,1.022711039E0,7.860077024E-1,7.834116369E-2
1.027399814E1,9.860602021E-1,7.908945084E-1,1.296523362E-1
1.028371038E1,9.213103652E-1,8.153283596E-1,1.748550236E-1
1.029342173E1,8.467870355E-1,8.568660021E-1,1.992889196E-1
1.030313397E1,7.954758406E-1,9.069554806E-1,2.029540092E-1
1.031284699E1,7.673768401E-1,9.643751383E-1,1.846285909E-1
1.032255923E1,7.490514517E-1,1.007134438E0,1.491994411E-1
1.033227058E1,7.307260633E-1,1.013242841E0,1.015533581E-1
1.034198288E1,7.233958840E-1,1.008356094E0,5.635065958E-2
1.035169584E1,7.319477201E-1,1.047450304E0,2.702999115E-2
1.036140808E1,7.429429889E-1,1.142742515E0,1.114796288E-2
1.037111944E1,7.246175408E-1,1.272242069E0,3.817795310E-3
1.038083173E1,6.525375843E-1,1.424953938E0,-8.399149403E-3
1.039054475E1,5.535803437E-1,1.558118701E0,-3.527642787E-2
1.040025694E1,4.717268050E-1,1.578887463E0,-8.414421231E-2
1.040996834E1,4.424061179E-1,1.454274654E0,-1.525591016E-1
1.041968058E1,4.570664763E-1,1.251473308E0,-2.160872221E-1
1.042939360E1,4.485146105E-1,1.104869962E0,-2.478512824E-1
1.043910579E1,4.069769979E-1,1.046228647E0,-2.612899244E-1
1.044881720E1,3.654393852E-1,1.005912781E0,-2.722851634E-1
1.045852944E1,3.067980409E-1,9.900307059E-1,-2.808370292E-1
1.046824246E1,2.078407854E-1,1.007134438E0,-2.979407609E-1
1.047795465E1,7.956285775E-2,1.007134438E0,-3.064926267E-1
1.048766605E1,-7.192726433E-2,9.863656163E-1,-2.735068500E-1
1.049737829E1,-2.197522968E-1,9.802571535E-1,-2.185306102E-1
1.050709131E1,-2.918322682E-1,1.031568289E0,-1.672194302E-1
1.051680355E1,-2.331909388E-1,1.128082156E0,-1.146865711E-1
1.052651491E1,-1.232384369E-1,1.297897696E0,-5.848862603E-2
1.053622715E1,-1.024696305E-1,1.578887463E0,-4.734066315E-3
1.054594017E1,-2.038702667E-1,1.840330124E0,1.969982497E-2
1.055565241E1,-3.736858070E-1,1.936843991E0,-7.177455351E-3
1.056536376E1,-6.070294380E-1,1.920961976E0,-5.848862603E-2
1.057507605E1,-9.295567870E-1,1.857433796E0,-7.681404054E-2
1.058478902E1,-1.332715988E0,1.781688690E0,-4.749337584E-2
1.059450126E1,-1.810398579E0,1.677844763E0,1.527118147E-4
1.060421262E1,-2.292967796E0,1.467713237E0,6.261184346E-3
1.061392491E1,-2.697348833E0,1.183058381E0,-3.649812192E-2
1.062363788E1,-3.006437540E0,8.800781965E-1,-7.437065244E-2
1.063335012E1,-3.233672619E0,5.819846988E-1,-7.925742865E-2
1.064306147E1,-3.371724129E0,3.095468581E-1,-4.382828996E-2
1.065277376E1,-3.407153368E0,8.475505561E-2,4.657710344E-2
1.066248673E1,-3.348511934E0,-5.085303262E-2,1.882936656E-1
1.067219897E1,-3.233672619E0,-6.306997687E-2,3.813214004E-1
1.068191032E1,-3.120055199E0,7.498150319E-2,6.061131954E-1
1.069162262E1,-3.018654346E0,3.254288733E-1,8.163973689E-1
1.070133564E1,-2.881824732E0,5.612159371E-1,9.703308940E-1
1.071104782E1,-2.650924444E0,5.905365944E-1,1.014311910E0
1.072075918E1,-2.306406498E0,4.756973088E-1,9.752176404E-1
1.073047147E1,-1.920351028E0,4.341596961E-1,8.921424150E-1
1.074018449E1,-1.558729529E0,6.125270724E-1,8.054021001E-1
1.074989668E1,-1.258192658E0,1.030346632E0,7.443174124E-1
1.075960803E1,-1.054169655E0,1.519024372E0,6.917845011E-1
1.076932032E1,-9.649859667E-1,1.856212139E0,6.183301210E-1
1.077903329E1,-9.539906979E-1,1.980824947E0,5.499152541E-1
1.078874553E1,-9.686510563E-1,1.892862916E0,4.900522232E-1
1.079845688E1,-9.600991607E-1,1.654632568E0,4.277457893E-1
1.080816918E1,-8.965710402E-1,1.431062460E0,3.568875194E-1
1.081788220E1,-7.805100679E-1,1.295454383E0,2.689255178E-1
1.082759439E1,-6.204680800E-1,1.206270576E0,1.785201132E-1
1.083730574E1,-4.433223903E-1,1.152516007E0,9.544488788E-2
1.084701803E1,-2.759502530E-1,1.120751977E0,2.214321308E-2
1.085673100E1,-1.342336833E-1,1.090209603E0,-3.161134571E-2
1.086644324E1,-1.328592747E-2,1.027903199E0,-7.192726433E-2
1.087615459E1,8.933641016E-2,9.436063170E-1,-1.122431830E-1
1.088586688E1,1.711899489E-1,8.495358229E-1,-1.550024897E-1
1.089557985E1,2.408265322E-1,7.371399403E-1,-1.867665499E-1
1.090529209E1,3.055763543E-1,6.332958937E-1,-1.977618039E-1
1.091500345E1,3.752129376E-1,5.612159371E-1,-1.904316396E-1
1.092471569E1,4.619532526E-1,5.135698318E-1,-1.488940120E-1
1.093442871E1,5.560237169E-1,4.414898455E-1,-5.238015205E-2
1.094414095E1,6.390989423E-1,3.315373361E-1,9.055810422E-2
1.095385230E1,6.904101372E-1,1.776038408E-1,2.469350100E-1
1.096356454E1,7.209524512E-1,-3.985778242E-2,3.764346242E-1
1.097327756E1,7.539382577E-1,-3.122956753E-1,4.643966258E-1
1.098298975E1,7.979192138E-1,-5.883986354E-1,5.181511641E-1
1.099270116E1,8.443436027E-1,-7.655443549E-1,5.596888065E-1
1.100241340E1,8.651124239E-1,-7.264500856E-1,6.024481058E-1
1.101212642E1,8.553388715E-1,-4.503471553E-1,6.415423155E-1
1.102183860E1,8.528954983E-1,4.581354442E-4,6.671979427E-1
1.103154996E1,8.590039611E-1,5.880932212E-1,6.807892919E-1
1.104126225E1,8.431219459E-1,1.224596024E0,6.771242023E-1
1.105097522E1,7.979192138E-1,1.680288076E0,6.439857483E-1
1.106068746E1,7.111788988E-1,1.770693541E0,5.767925382E-1
1.107039881E1,6.024481058E-1,1.549566746E0,4.631749392E-1
1.108011105E1,5.462501645E-1,1.184280157E0,3.080197275E-1
1.108982407E1,5.486935377E-1,8.886300325E-1,1.601946950E-1
1.109953626E1,5.609105229E-1,8.189934492E-1,5.024218559E-2
1.110924767E1,5.694623590E-1,9.228374958E-1,-3.649812192E-2
1.111895991E1,5.914528370E-1,1.084101200E0,-1.085781008E-1
1.112867293E1,6.219952106E-1,1.253916740E0,-1.806580722E-1
1.113838512E1,6.574243903E-1,1.224596024E0,-2.392994165E-1
1.114809647E1,6.281036735E-1,9.387195110E-1,-3.260397315E-1
1.115780876E1,4.753918648E-1,6.149705052E-1,-4.824166298E-1
1.116752173E1,2.591519356E-1,4.732539058E-1,-6.546755433E-1
1.117723397E1,4.291202128E-2,5.416688323E-1,-7.695148587E-1
1.118694532E1,-1.513374150E-1,6.076403260E-1,-7.817317843E-1
1.119665756E1,-2.478512824E-1,3.901786804E-1,-6.668924689E-1
1.120637058E1,-2.466295809E-1,-6.551336497E-2,-4.824166298E-1
1.121608277E1,-2.185306102E-1,-4.601207078E-1,-2.942756712E-1
1.122579412E1,-1.391204596E-1,-7.386670709E-1,-1.220167428E-1
1.123550642E1,2.336490713E-2,-1.011104941E0,-4.734066315E-3
1.124521938E1,1.992889196E-1,-1.272547603E0,7.467607409E-2
1.125493163E1,3.385621011E-1,-1.415485859E0,1.479777545E-1
1.126464298E1,4.485146105E-1,-1.402047157E0,2.053973973E-1
1.127435522E1,5.584670901E-1,-1.283542752E0,2.664821148E-1
1.128406824E1,6.989619732E-1,-1.132052660E0,3.348970115E-1
1.129378043E1,8.822161555E-1,-9.805625677E-1,3.898732662E-1
1.130349178E1,1.096012712E0,-7.765395641E-1,3.984251320E-1
1.131320407E1,1.296370625E0,-5.334223509E-1,3.788780272E-1
1.132291704E1,1.441752195E0,-2.878617644E-1,3.483356535E-1
1.133262923E1,1.510167122E0,-6.429167092E-2,3.312319219E-1
1.134234064E1,1.499171853E0,1.250709742E-1,3.251234591E-1
1.135205288E1,1.440530539E0,2.765611112E-1,3.239017725E-1
1.136176590E1,1.377002478E0,3.620797098E-1,3.226800561E-1
1.137147808E1,1.350125194E0,3.877353072E-1,3.141281903E-1
1.138118944E1,1.374559045E0,3.938437700E-1,2.786990702E-1
1.139090168E1,1.433200359E0,4.585935771E-1,2.225011140E-1
1.140061470E1,1.490620017E0,6.284091473E-1,1.626380831E-1
1.141032688E1,1.528492570E0,8.275453448E-1,8.322793990E-2
1.142003824E1,1.566365123E0,9.521581531E-1,-4.993676394E-2
1.142975053E1,1.614011168E0,1.025459886E0,-2.014268786E-1
1.143946350E1,1.636001706E0,1.069440842E0,-3.235963285E-1
1.144917569E1,1.611567736E0,1.068219185E0,-3.932329118E-1
1.145888709E1,1.537044406E0,1.023016453E0,-4.042281806E-1
1.146859933E1,1.411209822E0,9.387195110E-1,-3.761292100E-1
1.147831230E1,1.246281147E0,8.458707333E-1,-3.187095523E-1
1.148802454E1,1.081352353E0,7.725690603E-1,-2.392994165E-1
1.149773590E1,9.494093657E-1,6.919372082E-1,-1.550024897E-1
1.150744814E1,8.528954983E-1,5.599942207E-1,-9.269607067E-2
1.151716116E1,7.942541242E-1,3.901786804E-1,-5.482354015E-2
1.152687334E1,7.747070193E-1,2.472404242E-1,-2.672456764E-2
1.153658470E1,7.881456614E-1,1.812689304E-1,-5.955760833E-3
1.154629694E1,8.076927662E-1,2.154763639E-1,2.596100792E-3
1.155600996E1,8.138012886E-1,3.278722763E-1,-3.894151375E-2
1.156572215E1,8.150229454E-1,4.378247857E-1,-8.658760041E-2
1.157543350E1,8.260182142E-1,5.282301903E-1,-1.317902952E-1
1.158514574E1,8.541171551E-1,6.259657145E-1,-1.684411317E-1
1.159485876E1,8.968765140E-1,6.943806410E-1,-1.855448484E-1
1.160457095E1,9.384140968E-1,7.127060294E-1,-1.794363856E-1
1.161428230E1,9.567395449E-1,7.139277458E-1,-1.452289373E-1
1.162399454E1,9.384140968E-1,7.102626562E-1,-9.147437662E-2
1.163370756E1,8.834378719E-1,6.980457306E-1,-2.672456764E-2
1.164341975E1,7.954758406E-1,6.736118197E-1,4.046862945E-2
1.165313110E1,7.001836896E-1,6.381826997E-1,9.300149232E-2
1.166284334E1,6.146650314E-1,6.186355352E-1,1.382041872E-1
1.167255636E1,5.572454333E-1,6.430694461E-1,1.748550236E-1
1.168226855E1,5.340332389E-1,7.322531343E-1,2.041756958E-1
1.169197991E1,5.425850749E-1,8.580876589E-1,2.237228155E-1
1.170169215E1,5.951179266E-1,9.692618847E-1,2.200577259E-1
1.171140517E1,6.598677635E-1,1.059667230E0,1.638597846E-1
1.172111735E1,7.185090780E-1,1.121973753E0,6.978929788E-2
1.173082871E1,7.466080785E-1,1.145185947E0,-3.405473381E-2
1.174054095E1,7.343910933E-1,1.146407604E0,-1.122431830E-1
1.175025392E1,6.855233312E-1,1.131747246E0,-1.488940120E-1
1.175996616E1,5.926745534E-1,1.130525589E0,-1.562241912E-1
1.176967751E1,4.876088202E-1,1.135412335E0,-1.427855492E-1
1.177938975E1,4.277457893E-1,1.062110662E0,-1.061347127E-1
1.178910272E1,4.094203711E-1,9.387195110E-1,-8.047912270E-2
1.179881496E1,3.996468186E-1,8.617527485E-1,-7.314895838E-2
1.180852631E1,3.813214004E-1,8.580876589E-1,-6.948387623E-2
1.181823855E1,3.507790267E-1,8.715263009E-1,-7.070557028E-2
1.182795152E1,2.835858464E-1,8.593093753E-1,-7.925742865E-2
1.183766371E1,1.626380831E-1,8.593093753E-1,-1.391204596E-1
1.184737506E1,5.390727147E-2,8.886300325E-1,-2.527380586E-1
1.185708735E1,5.757235363E-2,8.690829277E-1,-3.089359999E-1
1.186680032E1,1.333174109E-1,9.106205702E-1,-2.991624475E-1
1.187651251E1,1.333174109E-1,1.088987947E0,-2.673983872E-1
1.188622387E1,1.969982497E-2,1.174506545E0,-2.173089087E-1
1.189593610E1,-2.136438340E-1,1.102426648E0,-1.623326540E-1
1.190564912E1,-5.679352283E-1,9.497147799E-1,-1.134648770E-1
1.191536131E1,-9.686510563E-1,7.664605975E-1,-5.482354015E-2
1.192507267E1,-1.347376347E0,6.369609833E-1,4.291202128E-2
1.193478491E1,-1.695559263E0,6.235223413E-1,1.614163816E-1
1.194449788E1,-2.008313179E0,6.772769094E-1,2.481566966E-1
1.195421006E1,-2.244100094E0,7.322531343E-1,2.640387416E-1
1.196392142E1,-2.398033619E0,7.872294188E-1,2.078407854E-1
1.197363366E1,-2.521424770E0,8.177717924E-1,1.101052165E-1
1.198334668E1,-2.633820772E0,8.104416132E-1,2.596100792E-3
1.199305886E1,-2.690018654E0,7.493568659E-1,-8.903098851E-2
1.200277022E1,-2.676579952E0,5.905365944E-1,-1.464506239E-1
1.201248246E1,-2.616716862E0,3.657447994E-1,-1.513374150E-1
1.202219543E1,-2.532419920E0,1.666085869E-1,-7.925742865E-2
1.203190762E1,-2.433462858E0,6.398624927E-2,6.368082762E-2
1.204161897E1,-2.314958334E0,1.165191159E-1,2.347180545E-1
1.205133126E1,-2.163468361E0,3.119902313E-1,4.155288339E-1
1.206104423E1,-2.013199806E0,5.428904891E-1,5.694623590E-1
1.207075642E1,-1.867818236E0,7.627955079E-1,6.317687631E-1
1.208046777E1,-1.721214890E0,8.593093753E-1,6.012263894E-1
1.209018001E1,-1.597823739E0,8.385405540E-1,5.169295073E-1
1.209989298E1,-1.526965380E0,8.312104344E-1,4.204156399E-1
1.210960517E1,-1.511083364E0,8.654178381E-1,3.520007432E-1
1.211931652E1,-1.514748454E0,8.739697337E-1,3.177932799E-1
1.212902876E1,-1.509861708E0,8.458707333E-1,3.031329513E-1
1.213874178E1,-1.496423125E0,7.957812548E-1,2.860292196E-1
1.214845397E1,-1.471989155E0,7.041541934E-1,2.542651594E-1
1.215816532E1,-1.403574347E0,5.502206683E-1,1.992889196E-1
1.216787756E1,-1.287513256E0,3.791834414E-1,1.247655526E-1
1.217759053E1,-1.140909910E0,2.606790662E-1,5.146388337E-2
1.218730272E1,-9.759812355E-1,2.252499312E-1,-8.399149403E-3
1.219701407E1,-7.951704264E-1,2.557922900E-1,-4.504998401E-2
1.220672631E1,-6.119162440E-1,3.229855001E-1,-4.504998401E-2
1.221643928E1,-4.335488379E-1,3.962871730E-1,-2.550287358E-2
1.222615147E1,-2.637332976E-1,4.647020400E-1,-8.399149403E-3
1.223586282E1,-1.110214889E-1,5.074613690E-1,-4.734066315E-3
1.224557512E1,2.580829710E-2,5.147915483E-1,-4.734066315E-3
1.225528808E1,1.553079188E-1,4.952444136E-1,6.261184346E-3
1.226500027E1,2.848075330E-1,4.598152637E-1,3.558185324E-2
1.227471162E1,4.130854607E-1,4.194993675E-1,8.078455180E-2
1.228442386E1,5.401417017E-1,3.669664860E-1,1.308740228E-1
1.229413683E1,6.610894203E-1,3.058817685E-1,1.821851879E-1
1.230384902E1,7.747070193E-1,2.472404242E-1,2.286095917E-1
1.231356038E1,8.822161555E-1,1.800472289E-1,2.579302490E-1
1.232327262E1,9.811733961E-1,9.208522737E-2,2.725905776E-1
1.233298558E1,1.061805248E0,3.710897267E-2,2.786990702E-1
1.234269777E1,1.115559816E0,4.077405483E-2,2.762556672E-1
1.235240913E1,1.158319116E0,6.520794332E-2,2.677038014E-1
1.236212136E1,1.193748236E0,1.079672500E-1,2.542651594E-1
1.237183433E1,1.219403863E0,2.118112892E-1,2.310529798E-1
1.238154652E1,1.231620789E0,4.280512035E-1,2.029540092E-1
1.239125788E1,1.237729311E0,7.591304183E-1,1.699682474E-1
1.240097017E1,1.251167893E0,1.154959440E0,1.296523362E-1
1.241068314E1,1.262163162E0,1.574000716E0,8.322793990E-2
1.242039532E1,1.232842445E0,1.944174170E0,3.313846514E-2
1.243010662E1,1.155875683E0,2.111546278E0,-1.572931744E-2
1.243981892E1,1.032484531E0,2.013810635E0,-7.437065244E-2
1.244953188E1,8.492304087E-1,1.712052107E0,-1.403421611E-1
1.245924407E1,5.780141950E-1,1.266133666E0,-2.050919682E-1
1.246895543E1,2.249445021E-1,7.273663878E-1,-2.588465214E-1
1.247866767E1,-1.366770715E-1,1.763821393E-1,-2.918322682E-1
1.248838064E1,-3.859027624E-1,-2.646495700E-1,-2.881672084E-1
1.249809282E1,-4.482091665E-1,-4.283566475E-1,-2.209739983E-1
1.250780418E1,-3.590254784E-1,-4.540122151E-1,-1.012479365E-1
1.251751642E1,-2.319692522E-1,-5.236487985E-1,-1.450762246E-2
1.252722938E1,-1.110214889E-1,-4.527905285E-1,-5.604523420E-2
1.253694157E1,5.039489828E-3,-1.131594554E-1,-1.831014603E-1
1.254665293E1,8.200624585E-2,2.386885732E-1,-2.991624475E-1
1.255636517E1,5.024218559E-2,2.936648130E-1,-3.602471650E-1
1.256607814E1,-9.025268257E-2,1.679830020E-3,-3.309265077E-1
1.257579032E1,-2.771719396E-1,-3.196258247E-1,-2.319692522E-1
1.258550168E1,-3.333698809E-1,-4.857762754E-1,-1.036913246E-1
1.259521392E1,-1.574458778E-1,-5.871769190E-1,2.214321308E-2
1.260492689E1,1.589729935E-1,-6.421532035E-1,1.101052165E-1
1.261463907E1,4.607315361E-1,-7.117897868E-1,1.443126649E-1
1.262435043E1,6.464291215E-1,-8.009734750E-1,1.382041872E-1
1.263406267E1,6.989619732E-1,-8.021951914E-1,1.174353883E-1
1.264377564E1,6.806365848E-1,-6.934643388E-1,1.186570823E-1
1.265348782E1,6.855233312E-1,-5.676298141E-1,1.626380831E-1
1.266319918E1,7.771504521E-1,-4.454603493E-1,2.053973973E-1
1.267291142E1,9.371923804E-1,-3.074088693E-1,2.151709497E-1
1.268262438E1,1.130220175E0,-1.815743446E-1,2.005106062E-1
1.269233657E1,1.307365894E0,-9.116895497E-2,1.699682474E-1
1.270204793E1,1.425870180E0,-1.786728203E-2,1.504211426E-1
1.271176017E1,1.462521076E0,5.054761097E-2,1.516428292E-1
1.272147314E1,1.423426867E0,1.091889441E-1,1.638597846E-1
1.273118532E1,1.362342119E0,1.580567211E-1,1.699682474E-1
1.274089663E1,1.330578089E0,2.264716178E-1,1.663031727E-1
1.275060886E1,1.366007209E0,3.058817685E-1,1.589729935E-1
1.276032189E1,1.460077643E0,4.256078303E-1,1.357607991E-1
1.277003407E1,1.563921690E0,6.394043565E-1,1.101052165E-1
1.277974538E1,1.659213901E0,8.874083757E-1,8.078455180E-2
1.278945762E1,1.732515574E0,1.091431379E0,5.757235363E-2
1.279917058E1,1.768097401E0,1.209935665E0,3.191677108E-2
1.280888277E1,1.750993609E0,1.266133666E0,3.817795310E-3
1.281859412E1,1.683647752E0,1.257581830E0,-2.672456764E-2
1.282830637E1,1.579803705E0,1.173284888E0,-5.482354015E-2
1.283801933E1,1.436865449E0,1.026681542E0,-7.070557028E-2
1.284773152E1,1.265828252E0,8.690829277E-1,-7.559234649E-2
1.285744288E1,1.104564548E0,7.310314775E-1,-6.459710002E-2
1.286715512E1,9.775083065E-1,6.210789680E-1,-4.504998401E-2
1.287686808E1,8.907679915E-1,5.685460567E-1,-2.305948362E-2
1.288658027E1,8.553388715E-1,5.893148780E-1,-7.177455351E-3
1.289629162E1,8.675557971E-1,6.467345357E-1,-5.955760833E-3
1.290600386E1,9.115368128E-1,7.127060294E-1,-1.572931744E-2
1.291571683E1,9.665130973E-1,7.786775231E-1,-3.771981969E-2
1.292542902E1,1.020267606E0,8.079982400E-1,-6.826218218E-2
1.293514032E1,1.055696726E0,7.847860456E-1,-1.049130186E-1
1.294485256E1,1.060583591E0,7.481352091E-1,-1.366770715E-1
1.295456553E1,1.030041218E0,7.212579250E-1,-1.415638477E-1
1.296427772E1,9.591829181E-1,7.163711190E-1,-1.183516532E-1
1.297398907E1,8.541171551E-1,7.224795818E-1,-6.459710002E-2
1.298370131E1,7.356128097E-1,6.943806410E-1,1.725643501E-2
1.299341428E1,6.183301210E-1,6.357392669E-1,1.101052165E-1
1.300312647E1,5.132644176E-1,5.795413256E-1,1.944021434E-1
1.301283782E1,4.362976551E-1,5.294518471E-1,2.481566966E-1
1.302255006E1,4.020902216E-1,4.720322192E-1,2.542651594E-1
1.303226303E1,4.069769979E-1,4.402681589E-1,2.090624720E-1
1.304197522E1,4.509579837E-1,4.524851143E-1,1.491994411E-1
1.305168652E1,5.181511641E-1,5.013529062E-1,9.300149232E-2
1.306139876E1,5.938962698E-1,5.673243999E-1,4.535540938E-2
1.307111173E1,6.525375843E-1,6.540647149E-1,2.596100792E-3
1.308082392E1,6.635328531E-1,7.713474035E-1,-3.038965166E-2
1.309053527E1,6.183301210E-1,8.861866593E-1,-5.604523420E-2
1.310024751E1,5.242596865E-1,9.729269743E-1,-7.681404054E-2
1.310996048E1,4.081986845E-1,1.019351363E0,-7.681404054E-2
1.311967267E1,3.202366829E-1,9.790354371E-1,-9.147437662E-2
1.312938402E1,3.067980409E-1,8.299887180E-1,-1.134648770E-1
1.313909626E1,3.361186981E-1,6.846070886E-1,-1.293469071E-1
1.314880923E1,3.495573401E-1,6.320741773E-1,-1.269035190E-1
1.315852136E1,3.226800561E-1,6.662816405E-1,-1.317902952E-1
1.316823272E1,2.188360244E-1,7.371399403E-1,-1.464506239E-1
1.317794496E1,4.413371533E-2,7.896727920E-1,-1.806580722E-1
1.318765793E1,-1.305686086E-1,8.251019120E-1,-2.331909388E-1
1.319737012E1,-1.977618039E-1,8.544226289E-1,-2.796153426E-1
1.320708147E1,-1.097997949E-1,8.422056437E-1,-2.930539846E-1
1.321679371E1,-1.817270555E-2,8.910734653E-1,-2.747285664E-1
1.322650668E1,-5.726693198E-2,1.051115394E0,-2.417428046E-1
1.323621887E1,-2.099787444E-1,1.168398142E0,-1.965401024E-1
1.324593017E1,-4.323271513E-1,1.222152710E0,-1.440072358E-1
1.325564241E1,-6.644490957E-1,1.229482770E0,-1.073564067E-1
1.326535538E1,-8.721371889E-1,1.195275426E0,-9.269607067E-2
1.327506756E1,-1.073716760E0,1.158624530E0,-8.903098851E-2
1.328477892E1,-1.314390540E0,1.183058381E0,-9.269607067E-2
1.329449116E1,-1.602710485E0,1.253916740E0,-1.024696305E-1
1.330420412E1,-1.916685939E0,1.327218413E0,-1.159082651E-1
1.331391631E1,-2.219666243E0,1.390746474E0,-1.281252056E-1
1.332362762E1,-2.478665352E0,1.424953938E0,-1.220167428E-1
1.333333985E1,-2.669249773E0,1.365090966E0,-1.146865711E-1
1.334305282E1,-2.797527790E0,1.208714008E0,-1.293469071E-1
1.335276501E1,-2.881824732E0,9.753703475E-1,-1.611109674E-1
1.336247637E1,-2.898928404E0,6.968240142E-1,-1.745496094E-1
1.337218860E1,-2.837843657E0,4.647020400E-1,-1.342336833E-1
1.338190157E1,-2.713230848E0,3.999522328E-1,-2.794626169E-2
1.339161376E1,-2.548301935E0,5.282301903E-1,1.369825006E-1
1.340132506E1,-2.366269588E0,7.469134927E-1,3.312319219E-1
1.341103730E1,-2.196454048E0,9.472714067E-1,4.924955964E-1
1.342075027E1,-2.059624195E0,1.059667230E0,5.645755529E-1
1.343046246E1,-1.915464282E0,1.060889006E0,5.389199853E-1
1.344017381E1,-1.749313831E0,9.692618847E-1,4.424061179E-1
1.344988605E1,-1.594158649E0,8.947384953E-1,3.190149665E-1
1.345959902E1,-1.467102408E0,9.350544214E-1,2.212794125E-1
1.346931121E1,-1.381583810E0,1.058445573E0,1.724116355E-1
1.347902251E1,-1.331494331E0,1.164733052E0,1.601946950E-1
1.348873475E1,-1.316833973E0,1.153737783E0,1.467560530E-1
1.349844772E1,-1.305838704E0,1.040120125E0,1.186570823E-1
1.350815991E1,-1.287513256E0,8.751913905E-1,7.834116369E-2
1.351787126E1,-1.263079405E0,6.980457306E-1,1.847812906E-2
1.352758350E1,-1.214211583E0,5.331169367E-1,-4.871506989E-2
1.353729647E1,-1.131136417E0,3.914003670E-1,-1.134648770E-1
1.354700866E1,-1.010188699E0,2.838912606E-1,-1.794363856E-1
1.355671996E1,-8.684720993E-1,2.362451702E-1,-2.173089087E-1
1.356643220E1,-7.145385742E-1,2.350234836E-1,-2.295258641E-1
1.357614517E1,-5.557183027E-1,2.374668717E-1,-2.331909388E-1
1.358585735E1,-4.127800465E-1,1.983726472E-1,-2.283041626E-1
1.359556871E1,-2.918322682E-1,1.189625040E-1,-2.185306102E-1
1.360528090E1,-1.867665499E-1,2.489202656E-2,-1.989834905E-1
1.361499386E1,-8.780929446E-2,-7.773031294E-2,-1.623326540E-1
1.362470605E1,1.847812906E-2,-1.608055383E-1,-9.880454093E-2
1.363441741E1,1.369825006E-1,-1.962346882E-1,-1.450762246E-2
1.364412965E1,2.738122940E-1,-1.937913001E-1,8.444963396E-2
1.365384262E1,4.277457893E-1,-1.962346882E-1,1.736333370E-1
1.366355480E1,5.829010010E-1,-2.255553454E-1,2.506000996E-1
1.367326610E1,7.233958840E-1,-2.866400778E-1,3.055763543E-1
1.368297834E1,8.480086923E-1,-3.697153032E-1,3.348970115E-1
1.369269131E1,9.567395449E-1,-4.698942602E-1,3.434488773E-1
1.370240350E1,1.056918502E0,-5.786250830E-1,3.361186981E-1
1.371211485E1,1.133885264E0,-6.482616663E-1,3.239017725E-1
1.372182709E1,1.172979474E0,-6.262711287E-1,3.116848171E-1
1.373154006E1,1.170536041E0,-4.637857676E-1,2.982461751E-1
1.374125220E1,1.148545504E0,-1.644706279E-1,2.848075330E-1
1.375096355E1,1.113116384E0,3.071034551E-1,2.603736520E-1
1.376067579E1,1.085017443E0,8.764131069E-1,2.200577259E-1
1.377038876E1,1.086239100E0,1.351652265E0,1.785201132E-1
1.378010095E1,1.087460876E0,1.654632568E0,1.149920002E-1
1.378981225E1,1.059361815E0,1.756033182E0,7.482878864E-3
1.379952449E1,9.579612017E-1,1.606986403E0,-1.171299592E-1
1.380923746E1,7.514948249E-1,1.269798756E0,-2.197522968E-1
1.381894965E1,4.424061179E-1,8.128849864E-1,-2.710634768E-1
1.382866100E1,8.444963396E-2,3.339807391E-1,-2.954973578E-1
1.383837319E1,-2.063136548E-1,-9.849911928E-2,-2.942756712E-1
1.384808616E1,-3.199312389E-1,-3.122956753E-1,-2.429644912E-1
1.385779834E1,-2.209739983E-1,-2.536543310E-1,-1.281252056E-1
1.386750970E1,-4.871506989E-2,-2.292204350E-1,1.114796288E-2
1.387722194E1,3.313846514E-2,-4.051444530E-1,5.512896553E-2
1.388693491E1,-1.328592747E-2,-4.491254389E-1,-3.161134571E-2
1.389664704E1,-1.892099380E-1,-2.084516287E-1,-1.562241912E-1
1.390635840E1,-4.078932703E-1,2.611372061E-2,-2.454078794E-1
1.391607064E1,-4.934118688E-1,-1.420219894E-2,-2.466295809E-1
1.392578360E1,-4.555393457E-1,-2.683146596E-1,-1.843231618E-1
1.393549579E1,-3.712424338E-1,-3.220692277E-1,-1.061347127E-1
1.394520709E1,-1.586675793E-1,-1.864611208E-1,-4.627167806E-2
1.395491933E1,1.919587553E-1,-2.597627938E-1,-5.115845799E-2
1.396463230E1,5.059342384E-1,-4.711159468E-1,-1.061347127E-1
1.397434449E1,6.476507783E-1,-6.152759194E-1,-1.623326540E-1
1.398405579E1,6.610894203E-1,-6.739172339E-1,-1.696628332E-1
1.399376803E1,6.244385839E-1,-6.946860552E-1,-9.758284688E-2
1.400348100E1,5.902311802E-1,-6.849125028E-1,6.856760383E-2
1.401319319E1,5.914528370E-1,-6.519267559E-1,2.823641598E-1
1.402290454E1,6.427640319E-1,-5.725166202E-1,4.436278343E-1
1.403261673E1,7.527165413E-1,-4.430169761E-1,5.144860744E-1
1.404232970E1,9.042066336E-1,-3.342861533E-1,5.144860744E-1
1.405204189E1,1.050809979E0,-2.292204350E-1,4.692834020E-1
1.406175324E1,1.148545504E0,-9.483403713E-2,4.179722369E-1
1.407146548E1,1.190083146E0,6.398624927E-2,3.703261614E-1
1.408117840E1,1.214517117E0,1.995943487E-1,3.141281903E-1
1.409089058E1,1.260941505E0,2.936648130E-1,2.420482337E-1
1.410060194E1,1.326912999E0,3.791834414E-1,1.528645307E-1
1.411031418E1,1.402657986E0,5.074613690E-1,6.368082762E-2
1.412002715E1,1.477181435E0,6.613948941E-1,-4.734066315E-3
1.412973928E1,1.534600973E0,7.957812548E-1,-5.482354015E-2
1.413945064E1,1.533379316E0,9.130639434E-1,-7.803573459E-2
1.414916288E1,1.483289838E0,9.912523627E-1,-8.658760041E-2
1.415887584E1,1.401436329E0,9.973608851E-1,-1.024696305E-1
1.416858798E1,1.306144118E0,9.167290330E-1,-1.244601309E-1
1.417829933E1,1.214517117E0,7.725690603E-1,-1.330119967E-1
1.418801157E1,1.131441832E0,6.076403260E-1,-1.195733473E-1
1.419772454E1,1.054475069E0,4.989095032E-1,-8.780929446E-2
1.420743668E1,9.811733961E-1,4.512633979E-1,-4.627167806E-2
1.421714803E1,9.286405444E-1,4.573718905E-1,-8.399149403E-3
1.422686027E1,9.005415440E-1,5.001311898E-1,1.603474095E-2
1.423657324E1,8.968765140E-1,5.575508475E-1,2.336490713E-2
1.424628538E1,9.164236188E-1,6.137487888E-1,5.039489828E-3
1.425599673E1,9.652913809E-1,6.613948941E-1,-3.527642787E-2
1.426570897E1,1.017824292E0,7.041541934E-1,-7.559234649E-2
1.427542194E1,1.049588323E0,7.566870451E-1,-9.636115283E-2
1.428513407E1,1.061805248E0,7.847860456E-1,-9.636115283E-2
1.429484543E1,1.052031636E0,7.689039707E-1,-7.803573459E-2
1.430455767E1,1.016602516E0,7.175928354E-1,-4.138490185E-2
1.431427064E1,9.677347541E-1,6.161921620E-1,1.847812906E-2
1.432398277E1,9.103151560E-1,4.818057716E-1,8.811471611E-2
1.433369413E1,8.370134830E-1,3.608580232E-1,1.540862173E-1
1.434340637E1,7.563816309E-1,2.680092454E-1,2.090624720E-1
1.435311933E1,6.879667044E-1,1.849340051E-1,2.554868758E-1
1.436283147E1,6.427640319E-1,1.336228400E-1,2.848075330E-1
1.437254282E1,6.256603003E-1,1.214058921E-1,2.994678617E-1
1.438225506E1,6.439857483E-1,1.299577504E-1,3.031329513E-1
1.439196803E1,6.818582416E-1,1.873773932E-1,2.982461751E-1
1.440168017E1,7.124006152E-1,2.838912606E-1,2.799207568E-1
1.441139152E1,7.160657048E-1,3.730749488E-1,2.481566966E-1
1.442110376E1,6.952968836E-1,4.182776511E-1,2.041756958E-1
1.443081668E1,6.488724947E-1,4.243861437E-1,1.443126649E-1
1.444052887E1,5.841227174E-1,4.182776511E-1,7.467607409E-2
1.445024022E1,5.279247165E-1,3.999522328E-1,1.481304597E-2
1.445995241E1,4.961606860E-1,3.669664860E-1,-1.328592747E-2
1.446966538E1,4.741701782E-1,3.364241421E-1,-2.428117767E-2
1.447937756E1,4.387410581E-1,3.071034551E-1,-1.450762246E-2
1.448908892E1,3.825430870E-1,2.790044844E-1,1.481304597E-2
1.449880110E1,3.275668323E-1,2.240282297E-1,5.635065958E-2
1.450851407E1,3.067980409E-1,1.336228400E-1,9.544488788E-2
1.451822626E1,3.190149665E-1,7.375980914E-2,1.320957243E-1
1.452793756E1,3.422271907E-1,6.520794332E-2,1.504211426E-1
1.453764980E1,3.373403847E-1,9.330692142E-2,1.223221645E-1
1.454736277E1,2.664821148E-1,1.495048702E-1,6.123743951E-2
1.455707496E1,1.308740228E-1,2.362451702E-1,-2.916795574E-2
1.456678626E1,2.458660305E-2,3.034383655E-1,-1.220167428E-1
1.457649850E1,1.847812906E-2,3.559712470E-1,-1.647760421E-1
1.458621147E1,3.436015919E-2,4.647020400E-1,-1.611109674E-1
1.459592360E1,1.527118147E-4,5.453338623E-1,-1.317902952E-1
1.460563496E1,-1.085781008E-1,5.416688323E-1,-9.880454093E-2
1.461534720E1,-3.248180151E-1,5.135698318E-1,-6.704048812E-2
1.462506012E1,-6.168029904E-1,4.830274582E-1,-4.016320780E-2
1.463477230E1,-9.100096822E-1,4.292729199E-1,-1.206423342E-2
1.464448366E1,-1.189777732E0,4.194993675E-1,2.825168520E-2
1.465419584E1,-1.487871170E0,4.280512035E-1,8.322793990E-2
1.466390881E1,-1.789629698E0,3.681881726E-1,1.308740228E-1
1.467362100E1,-2.074284554E0,2.814478874E-1,1.601946950E-1
1.468333235E1,-2.338170528E0,2.228065431E-1,1.797417998E-1
1.469304454E1,-2.570292473E0,1.641651988E-1,2.005106062E-1
1.470275751E1,-2.733999729E0,8.842013776E-2,2.090624720E-1
1.471246970E1,-2.818296432E0,-2.519745007E-2,2.005106062E-1
1.472218100E1,-2.842730522E0,-1.498102844E-1,1.809635013E-1
1.473189324E1,-2.815853119E0,-2.255553454E-1,1.418692768E-1
1.474160621E1,-2.726669550E0,-2.365505993E-1,8.078455180E-2
1.475131834E1,-2.566627502E0,-1.925695986E-1,2.214321308E-2
1.476102970E1,-2.335727215E0,-8.383878320E-2,-1.084253844E-2
1.477074194E1,-2.063289404E0,1.079672500E-1,-2.183778957E-2
1.478045485E1,-1.794516563E0,3.376458287E-1,-1.695101149E-2
1.479016704E1,-1.589271903E0,5.465555787E-1,-2.428117767E-2
1.479987840E1,-1.475654244E0,6.943806410E-1,-5.482354015E-2
1.480959058E1,-1.417012930E0,7.127060294E-1,-1.183516532E-1
1.481930355E1,-1.380362034E0,6.003101468E-1,-1.879882365E-1
1.482901574E1,-1.369366884E0,4.256078303E-1,-2.490729690E-1
1.483872704E1,-1.384027123E0,2.447970361E-1,-2.673983872E-1
1.484843928E1,-1.414569497E0,7.986827940E-2,-2.429644912E-1
1.485815220E1,-1.442668557E0,-5.207473040E-2,-2.050919682E-1
1.486786438E1,-1.452442050E0,-1.962346882E-1,-1.635543555E-1
1.487757574E1,-1.442668557E0,-3.355078697E-1,-1.354553849E-1
1.488728793E1,-1.419456363E0,-4.198047817E-1,-1.195733473E-1
1.489700090E1,-1.364480019E0,-4.613423944E-1,-1.159082651E-1
1.490671308E1,-1.263079405E0,-4.698942602E-1,-1.195733473E-1
1.491642439E1,-1.127471328E0,-4.442386627E-1,-1.134648770E-1
1.492613663E1,-9.735378027E-1,-3.684936166E-1,-9.758284688E-2
1.493584959E1,-8.183826208E-1,-2.841966748E-1,-9.025268257E-2
1.494556173E1,-6.815528274E-1,-2.414373755E-1,-9.147437662E-2
1.495527308E1,-5.581616759E-1,-2.145601064E-1,-1.049130186E-1
1.496498527E1,-4.359922409E-1,-1.827960461E-1,-1.195733473E-1
1.497469824E1,-3.064926267E-1,-1.571404636E-1,-1.293469071E-1
1.498441043E1,-1.684411317E-1,-1.388150454E-1,-1.330119967E-1
1.499412173E1,-2.916795574E-2,-1.070509851E-1,-1.122431830E-1
1.500383397E1,1.076618284E-1,-6.429167092E-2,-6.459710002E-2
1.501354694E1,2.420482337E-1,-4.963133857E-2,-9.620844387E-3
1.502325907E1,3.715478480E-1,-8.139539510E-2,4.169032723E-2
1.503297043E1,4.937172830E-1,-1.327065676E-1,8.444963396E-2
