"Time (s)","Acceleration x (m/s^2)","Acceleration y (m/s^2)","Acceleration z (m/s^2)"
5.104684300E-2,1.610967875E0,-7.420741320E-1,-9.719346046E0
6.076106200E-2,1.608574986E0,-7.444669604E-1,-9.695418358E0
7.047377000E-2,1.601396561E0,-7.707880139E-1,-9.709774971E0
8.018798900E-2,1.606182218E0,-7.755736113E-1,-9.731310844E0
8.990142700E-2,1.589432478E0,-7.660023570E-1,-9.767203331E0
9.961408300E-2,1.565504193E0,-7.707880139E-1,-9.776774406E0
1.093276240E-1,1.577468276E0,-7.660023570E-1,-9.786345482E0
1.190418950E-1,1.587039590E0,-7.827520967E-1,-9.752845764E0
1.287552810E-1,1.579861164E0,-8.018946648E-1,-9.740881920E0
1.384679890E-1,1.567897081E0,-8.186444640E-1,-9.755238533E0
1.481814270E-1,1.553241014E0,-8.138588071E-1,-9.781559944E0
1.578957490E-1,1.546062589E0,-8.210372925E-1,-9.776774406E0
1.676091350E-1,1.553241014E0,-7.947162390E-1,-9.760024071E0
1.773218430E-1,1.572682738E0,-7.731808424E-1,-9.748060226E0
1.870352810E-1,1.582253933E0,-7.660023570E-1,-9.726525307E0
1.967496040E-1,1.579861164E0,-7.492526174E-1,-9.721739769E0
2.064629890E-1,1.603789330E0,-7.516453862E-1,-9.736096382E0
2.161756970E-1,1.615753531E0,-7.468597889E-1,-9.762416840E0
2.258891350E-1,1.603789330E0,-7.564310431E-1,-9.793523788E0
2.356034580E-1,1.587039590E0,-7.588238716E-1,-9.862915993E0
2.453168950E-1,1.575075507E0,-7.588238716E-1,-9.685847282E0
2.550295520E-1,1.550848126E0,-7.444669604E-1,-9.736096382E0
2.647429890E-1,1.582253933E0,-7.516453862E-1,-9.934999466E0
2.744573120E-1,1.613360643E0,-7.588238716E-1,-9.764810562E0
2.841707490E-1,1.613360643E0,-7.420741320E-1,-9.635597229E0
2.938834060E-1,1.625324726E0,-7.564310431E-1,-9.805487633E0
3.035969470E-1,1.642074585E0,-7.755736113E-1,-9.795916557E0
3.133111660E-1,1.618146300E0,-7.803592682E-1,-9.604491234E0
3.230246040E-1,1.579861164E0,-7.803592682E-1,-9.707382202E0
3.327372600E-1,1.563111424E0,-8.018946648E-1,-9.923035622E0
3.424508020E-1,1.558026671E0,-7.971090674E-1,-9.803094864E0
3.521650200E-1,1.538884044E0,-7.588238716E-1,-9.719346046E0
3.618784580E-1,1.538884044E0,-7.444669604E-1,-9.915857315E0
3.715911140E-1,1.560718536E0,-7.229315639E-1,-9.910772324E0
3.813046560E-1,1.575075507E0,-7.109674215E-1,-9.683454514E0
3.910189270E-1,1.565504193E0,-7.037889361E-1,-9.752845764E0
4.007323120E-1,1.563111424E0,-7.277171612E-1,-9.886843681E0
4.104449680E-1,1.587039590E0,-7.827520967E-1,-9.712167740E0
4.201585100E-1,1.577468276E0,-8.114659786E-1,-9.587740898E0
4.298727810E-1,1.560718536E0,-8.497511148E-1,-9.807881355E0
4.395861660E-1,1.572682738E0,-8.641080856E-1,-9.824630737E0
4.492988220E-1,1.577468276E0,-8.473583460E-1,-9.669096947E0
4.590123640E-1,1.577468276E0,-8.234301209E-1,-9.798309326E0
4.687266350E-1,1.606182218E0,-8.114659786E-1,-9.987641335E0
4.784400200E-1,1.630110383E0,-7.923234105E-1,-9.807881355E0
4.881527290E-1,1.620539188E0,-7.492526174E-1,-9.704989433E0
4.978661660E-1,1.587039590E0,-7.205387354E-1,-9.889236450E0
5.075804890E-1,1.601396561E0,-7.157530785E-1,-9.831809044E0
5.172938740E-1,1.608574986E0,-7.061817646E-1,-9.654740334E0
5.270065830E-1,1.589432478E0,-7.253243923E-1,-9.767203331E0
5.367200200E-1,1.577468276E0,-7.468597889E-1,-9.903594017E0
5.464343430E-1,1.582253933E0,-7.564310431E-1,-9.721739769E0
5.561477290E-1,1.565504193E0,-7.420741320E-1,-9.654740334E0
5.658604370E-1,1.572682738E0,-7.564310431E-1,-9.846165657E0
5.755738740E-1,1.587039590E0,-7.779664397E-1,-9.810274124E0
5.852881970E-1,1.584646821E0,-7.755736113E-1,-9.645169258E0
5.950015830E-1,1.575075507E0,-7.660023570E-1,-9.769596100E0
6.047142910E-1,1.584646821E0,-7.803592682E-1,-9.913165092E0
6.144277290E-1,1.596610904E0,-7.899305820E-1,-9.740881920E0
6.241420520E-1,1.570289850E0,-7.923234105E-1,-9.714560509E0
6.338554890E-1,1.565504193E0,-8.042874932E-1,-9.913165092E0
6.435681450E-1,1.567897081E0,-8.306085467E-1,-9.853344917E0
6.532815830E-1,1.558026671E0,-8.186444640E-1,-9.666704178E0
6.629959060E-1,1.543669701E0,-7.971090674E-1,-9.788738251E0
6.727093430E-1,1.546062589E0,-7.947162390E-1,-9.898808479E0
6.824219990E-1,1.567897081E0,-7.755736113E-1,-9.714560509E0
6.921355410E-1,1.572682738E0,-7.588238716E-1,-9.657133102E0
7.018497600E-1,1.567897081E0,-7.348956466E-1,-9.843772888E0
7.115631970E-1,1.584646821E0,-7.516453862E-1,-9.793523788E0
7.212758540E-1,1.558026671E0,-7.468597889E-1,-9.640383720E0
7.309893950E-1,1.553241014E0,-7.420741320E-1,-9.783952713E0
7.407036660E-1,1.577468276E0,-7.731808424E-1,-9.870094299E0
7.504170520E-1,1.575075507E0,-7.755736113E-1,-9.831809044E0
7.601297600E-1,1.587039590E0,-7.851449251E-1,-9.836594582E0
7.698431970E-1,1.596610904E0,-7.731808424E-1,-9.834201813E0
7.795575200E-1,1.610967875E0,-7.707880139E-1,-9.836594582E0
7.892709060E-1,1.637288928E0,-7.564310431E-1,-9.822237968E0
7.989836140E-1,1.639681697E0,-7.612167001E-1,-9.810274124E0
8.086970520E-1,1.637288928E0,-7.636095285E-1,-9.783952713E0
8.184113740E-1,1.632503271E0,-7.683951855E-1,-9.750452995E0
8.281248120E-1,1.613360643E0,-7.755736113E-1,-9.743274689E0
8.378374680E-1,1.606182218E0,-7.851449251E-1,-9.740881920E0
8.475510100E-1,1.582253933E0,-7.827520967E-1,-9.755238533E0
8.572652290E-1,1.558026671E0,-7.731808424E-1,-9.760024071E0
8.669786660E-1,1.546062589E0,-7.588238716E-1,-9.760024071E0
8.766913220E-1,1.536491275E0,-7.468597889E-1,-9.769596100E0
8.864048640E-1,1.550848126E0,-7.396813035E-1,-9.805487633E0
8.961191350E-1,1.555633783E0,-7.396813035E-1,-9.815059662E0
9.058325200E-1,1.550848126E0,-7.540382147E-1,-9.817452431E0
9.155452290E-1,1.543669701E0,-7.779664397E-1,-9.812666893E0
9.252586660E-1,1.526919961E0,-7.899305820E-1,-9.810274124E0
9.349729890E-1,1.519741535E0,-8.210372925E-1,-9.810274124E0
9.446864270E-1,1.507777333E0,-8.330013752E-1,-9.810274124E0
9.543990830E-1,1.538884044E0,-8.330013752E-1,-9.795916557E0
9.641126240E-1,1.563111424E0,-8.282157183E-1,-9.788738251E0
9.738268950E-1,1.596610904E0,-7.995018363E-1,-9.812666893E0
9.835402810E-1,1.630110383E0,-7.971090674E-1,-9.795916557E0
9.932529890E-1,1.618146300E0,-7.660023570E-1,-9.788738251E0
1.002966427E0,1.601396561E0,-7.564310431E-1,-9.767203331E0
1.012680749E0,1.575075507E0,-7.468597889E-1,-9.764810562E0
1.022394187E0,1.567897081E0,-7.372884750E-1,-9.769596100E0
1.032106843E0,1.584646821E0,-7.325028181E-1,-9.776774406E0
1.041820385E0,1.594218135E0,-7.396813035E-1,-9.795916557E0
1.051534656E0,1.603789330E0,-7.492526174E-1,-9.800702095E0
1.061248041E0,1.601396561E0,-7.444669604E-1,-9.776774406E0
1.070960749E0,1.601396561E0,-7.492526174E-1,-9.764810562E0
1.080674291E0,1.599003673E0,-7.588238716E-1,-9.745667458E0
1.090388510E0,1.594218135E0,-7.683951855E-1,-9.738489151E0
1.100101947E0,1.582253933E0,-7.683951855E-1,-9.716953278E0
1.109814656E0,1.550848126E0,-7.540382147E-1,-9.728918076E0
1.119528093E0,1.546062589E0,-7.660023570E-1,-9.745667458E0
1.129242416E0,1.558026671E0,-7.540382147E-1,-9.774381638E0
1.138955854E0,1.558026671E0,-7.660023570E-1,-9.786345482E0
1.148668510E0,1.546062589E0,-7.683951855E-1,-9.781559944E0
1.158382052E0,1.529312730E0,-7.923234105E-1,-9.798309326E0
1.168096322E0,1.514955878E0,-8.234301209E-1,-9.819845200E0
1.177809760E0,1.486241937E0,-8.401798606E-1,-9.846165657E0
1.187522416E0,1.483849168E0,-8.282157183E-1,-9.846165657E0
1.197235958E0,1.505384564E0,-8.090731502E-1,-9.822237968E0
1.206950229E0,1.536491275E0,-7.803592682E-1,-9.815059662E0
1.216663666E0,1.548455358E0,-7.636095285E-1,-9.791131020E0
1.226376322E0,1.582253933E0,-7.420741320E-1,-9.774381638E0
1.236089864E0,1.620539188E0,-7.564310431E-1,-9.774381638E0
1.245804135E0,1.639681697E0,-7.612167001E-1,-9.760024071E0
1.255517520E0,1.634896040E0,-7.540382147E-1,-9.745667458E0
1.265230229E0,1.649253011E0,-7.516453862E-1,-9.752845764E0
1.274943770E0,1.639681697E0,-7.612167001E-1,-9.771988869E0
1.284658041E0,1.627717614E0,-7.660023570E-1,-9.781559944E0
1.294371427E0,1.615753531E0,-7.731808424E-1,-9.791131020E0
1.304084135E0,1.601396561E0,-7.516453862E-1,-9.793523788E0
1.313797677E0,1.572682738E0,-7.683951855E-1,-9.783952713E0
1.323511947E0,1.591825247E0,-7.564310431E-1,-9.795916557E0
1.333225333E0,1.555633783E0,-7.564310431E-1,-9.800702095E0
1.342938041E0,1.543669701E0,-7.803592682E-1,-9.803094864E0
1.352651583E0,1.526919961E0,-8.018946648E-1,-9.803094864E0
1.362365854E0,1.543669701E0,-8.114659786E-1,-9.788738251E0
1.372079291E0,1.553241014E0,-7.995018363E-1,-9.786345482E0
1.381791947E0,1.579861164E0,-7.803592682E-1,-9.779167175E0
1.391505489E0,1.594218135E0,-7.660023570E-1,-9.774381638E0
1.401219760E0,1.591825247E0,-7.372884750E-1,-9.767203331E0
1.410933197E0,1.587039590E0,-7.301099896E-1,-9.764810562E0
1.420645854E0,1.560718536E0,-7.229315639E-1,-9.764810562E0
1.430359395E0,1.541276932E0,-7.301099896E-1,-9.779167175E0
1.440073666E0,1.536491275E0,-7.636095285E-1,-9.793523788E0
1.449787104E0,1.522134304E0,-7.899305820E-1,-9.803094864E0
1.459499760E0,1.507777333E0,-8.114659786E-1,-9.800702095E0
1.469213302E0,1.517348647E0,-8.186444640E-1,-9.800702095E0
1.478927572E0,1.553241014E0,-8.138588071E-1,-9.788738251E0
1.488641010E0,1.582253933E0,-8.114659786E-1,-9.795916557E0
1.498353718E0,1.603789330E0,-7.875377536E-1,-9.793523788E0
1.508067156E0,1.601396561E0,-7.612167001E-1,-9.776774406E0
1.517781479E0,1.599003673E0,-7.372884750E-1,-9.764810562E0
1.527494916E0,1.567897081E0,-7.301099896E-1,-9.767203331E0
1.537207624E0,1.560718536E0,-7.205387354E-1,-9.767203331E0
1.546921166E0,1.550848126E0,-7.253243923E-1,-9.795916557E0
1.556635437E0,1.553241014E0,-7.420741320E-1,-9.798309326E0
1.566348822E0,1.555633783E0,-7.348956466E-1,-9.769596100E0
1.576061531E0,1.570289850E0,-7.516453862E-1,-9.767203331E0
1.585775072E0,1.572682738E0,-7.540382147E-1,-9.755238533E0
1.595489343E0,1.560718536E0,-7.660023570E-1,-9.740881920E0
1.605202781E0,1.577468276E0,-7.636095285E-1,-9.726525307E0
1.614915437E0,1.570289850E0,-7.564310431E-1,-9.736096382E0
1.624628979E0,1.567897081E0,-7.660023570E-1,-9.750452995E0
1.634343249E0,1.555633783E0,-7.707880139E-1,-9.764810562E0
1.644056687E0,1.558026671E0,-7.636095285E-1,-9.776774406E0
1.653769395E0,1.558026671E0,-7.588238716E-1,-9.810274124E0
1.663482937E0,1.558026671E0,-7.803592682E-1,-9.810274124E0
1.673197208E0,1.558026671E0,-7.851449251E-1,-9.807881355E0
1.682910593E0,1.546062589E0,-7.851449251E-1,-9.774381638E0
1.692623302E0,1.558026671E0,-8.042874932E-1,-9.769596100E0
1.702336843E0,1.572682738E0,-8.138588071E-1,-9.738489151E0
1.712051114E0,1.567897081E0,-7.995018363E-1,-9.748060226E0
1.721764552E0,1.563111424E0,-8.018946648E-1,-9.760024071E0
1.731477260E0,1.570289850E0,-7.899305820E-1,-9.764810562E0
1.741190697E0,1.565504193E0,-7.827520967E-1,-9.769596100E0
1.750905020E0,1.570289850E0,-7.660023570E-1,-9.767203331E0
1.760618458E0,1.579861164E0,-7.468597889E-1,-9.781559944E0
1.770331166E0,1.591825247E0,-7.540382147E-1,-9.786345482E0
1.780044708E0,1.589432478E0,-7.468597889E-1,-9.786345482E0
1.789758979E0,1.577468276E0,-7.468597889E-1,-9.760024071E0
1.799472416E0,1.558026671E0,-7.516453862E-1,-9.762416840E0
1.809185072E0,1.546062589E0,-7.396813035E-1,-9.750452995E0
1.818898614E0,1.543669701E0,-7.348956466E-1,-9.748060226E0
1.828612885E0,1.543669701E0,-7.325028181E-1,-9.752845764E0
1.838326322E0,1.555633783E0,-7.372884750E-1,-9.769596100E0
1.848039031E0,1.563111424E0,-7.492526174E-1,-9.783952713E0
1.857752572E0,1.553241014E0,-7.660023570E-1,-9.793523788E0
1.867466843E0,1.560718536E0,-7.827520967E-1,-9.769596100E0
1.877180281E0,1.553241014E0,-7.947162390E-1,-9.781559944E0
1.886892937E0,1.555633783E0,-8.018946648E-1,-9.776774406E0
1.896606479E0,1.565504193E0,-7.803592682E-1,-9.764810562E0
1.906320749E0,1.565504193E0,-7.660023570E-1,-9.783952713E0
1.916034187E0,1.572682738E0,-7.731808424E-1,-9.791131020E0
1.925746895E0,1.575075507E0,-7.372884750E-1,-9.769596100E0
1.935460437E0,1.560718536E0,-7.372884750E-1,-9.767203331E0
1.945174708E0,1.555633783E0,-7.277171612E-1,-9.767203331E0
1.954888145E0,1.548455358E0,-7.468597889E-1,-9.755238533E0
1.964600802E0,1.558026671E0,-7.636095285E-1,-9.748060226E0
1.974314343E0,1.524527073E0,-7.779664397E-1,-9.740881920E0
1.984028614E0,1.531705618E0,-7.923234105E-1,-9.743274689E0
1.993742052E0,1.526919961E0,-7.899305820E-1,-9.757631302E0
2.003454760E0,1.553241014E0,-7.851449251E-1,-9.791131020E0
2.013168302E0,1.555633783E0,-7.779664397E-1,-9.793523788E0
2.022882572E0,1.587039590E0,-7.755736113E-1,-9.786345482E0
2.032596010E0,1.577468276E0,-7.707880139E-1,-9.776774406E0
2.042308666E0,1.555633783E0,-7.516453862E-1,-9.779167175E0
2.052022208E0,1.543669701E0,-7.420741320E-1,-9.781559944E0
2.061736479E0,1.546062589E0,-7.420741320E-1,-9.774381638E0
2.071449916E0,1.548455358E0,-7.612167001E-1,-9.781559944E0
2.081162624E0,1.558026671E0,-7.564310431E-1,-9.767203331E0
2.090876166E0,1.567897081E0,-7.492526174E-1,-9.740881920E0
2.100590437E0,1.570289850E0,-7.564310431E-1,-9.738489151E0
2.110303874E0,1.584646821E0,-7.564310431E-1,-9.731310844E0
2.120016531E0,1.589432478E0,-7.516453862E-1,-9.716953278E0
2.129730072E0,1.567897081E0,-7.516453862E-1,-9.736096382E0
2.139444343E0,1.560718536E0,-7.540382147E-1,-9.738489151E0
2.149157781E0,1.555633783E0,-7.588238716E-1,-9.736096382E0
2.158870489E0,1.543669701E0,-7.564310431E-1,-9.760024071E0
2.168584031E0,1.548455358E0,-7.588238716E-1,-9.793523788E0
2.178298302E0,1.550848126E0,-7.588238716E-1,-9.803094864E0
2.188011739E0,1.560718536E0,-7.923234105E-1,-9.798309326E0
2.197724395E0,1.546062589E0,-8.018946648E-1,-9.791131020E0
2.207437937E0,1.553241014E0,-8.090731502E-1,-9.771988869E0
2.217152208E0,1.555633783E0,-8.090731502E-1,-9.771988869E0
2.226865645E0,1.538884044E0,-7.947162390E-1,-9.748060226E0
2.236578354E0,1.563111424E0,-7.875377536E-1,-9.736096382E0
2.246291895E0,1.558026671E0,-7.612167001E-1,-9.724132538E0
2.256006166E0,1.558026671E0,-7.540382147E-1,-9.733703613E0
2.265719604E0,1.572682738E0,-7.516453862E-1,-9.748060226E0
2.275432312E0,1.553241014E0,-7.468597889E-1,-9.743274689E0
2.285145749E0,1.558026671E0,-7.588238716E-1,-9.771988869E0
2.294860072E0,1.567897081E0,-7.588238716E-1,-9.779167175E0
2.304573510E0,1.553241014E0,-7.612167001E-1,-9.795916557E0
2.314286218E0,1.546062589E0,-7.540382147E-1,-9.781559944E0
2.323999760E0,1.546062589E0,-7.516453862E-1,-9.779167175E0
2.333714031E0,1.558026671E0,-7.540382147E-1,-9.752845764E0
2.343427468E0,1.582253933E0,-7.396813035E-1,-9.757631302E0
2.353140177E0,1.579861164E0,-7.564310431E-1,-9.757631302E0
2.362853718E0,1.577468276E0,-7.564310431E-1,-9.750452995E0
2.372567937E0,1.575075507E0,-7.683951855E-1,-9.752845764E0
2.382281374E0,1.555633783E0,-7.755736113E-1,-9.752845764E0
2.391994083E0,1.553241014E0,-7.899305820E-1,-9.767203331E0
2.401707624E0,1.553241014E0,-7.779664397E-1,-9.762416840E0
2.411421895E0,1.548455358E0,-7.875377536E-1,-9.764810562E0
2.421135333E0,1.541276932E0,-7.707880139E-1,-9.786345482E0
2.430848041E0,1.560718536E0,-7.588238716E-1,-9.774381638E0
2.440561583E0,1.553241014E0,-7.468597889E-1,-9.779167175E0
2.450275854E0,1.563111424E0,-7.181459069E-1,-9.764810562E0
2.459989291E0,1.553241014E0,-7.253243923E-1,-9.783952713E0
2.469701947E0,1.553241014E0,-7.205387354E-1,-9.755238533E0
2.479415489E0,1.536491275E0,-7.468597889E-1,-9.743274689E0
2.489129760E0,1.519741535E0,-7.827520967E-1,-9.752845764E0
2.498843197E0,1.522134304E0,-8.114659786E-1,-9.755238533E0
2.508555906E0,1.526919961E0,-8.425726891E-1,-9.748060226E0
2.518269447E0,1.519741535E0,-8.425726891E-1,-9.757631302E0
2.527983718E0,1.563111424E0,-8.258228898E-1,-9.771988869E0
2.537697156E0,1.577468276E0,-7.995018363E-1,-9.807881355E0
2.547409812E0,1.618146300E0,-7.923234105E-1,-9.795916557E0
2.557123354E0,1.599003673E0,-7.444669604E-1,-9.776774406E0
2.566837624E0,1.589432478E0,-7.301099896E-1,-9.752845764E0
2.576551062E0,1.548455358E0,-7.085745931E-1,-9.748060226E0
2.586263770E0,1.555633783E0,-7.037889361E-1,-9.767203331E0
2.595977312E0,1.563111424E0,-7.157530785E-1,-9.767203331E0
2.605691583E0,1.575075507E0,-7.348956466E-1,-9.760024071E0
2.615405020E0,1.563111424E0,-7.396813035E-1,-9.743274689E0
2.625117677E0,1.579861164E0,-7.420741320E-1,-9.721739769E0
2.634831218E0,1.563111424E0,-7.540382147E-1,-9.709774971E0
2.644545489E0,1.558026671E0,-7.731808424E-1,-9.719346046E0
2.654258927E0,1.548455358E0,-7.827520967E-1,-9.740881920E0
2.663971635E0,1.553241014E0,-7.803592682E-1,-9.748060226E0
2.673685177E0,1.538884044E0,-7.827520967E-1,-9.752845764E0
2.683399447E0,1.553241014E0,-7.779664397E-1,-9.781559944E0
2.693112885E0,1.560718536E0,-7.660023570E-1,-9.788738251E0
2.702825541E0,1.560718536E0,-7.731808424E-1,-9.819845200E0
2.712539083E0,1.536491275E0,-7.875377536E-1,-9.807881355E0
2.722253354E0,1.536491275E0,-7.947162390E-1,-9.798309326E0
2.731966791E0,1.541276932E0,-8.066803217E-1,-9.779167175E0
2.741679499E0,1.550848126E0,-8.138588071E-1,-9.781559944E0
2.751393041E0,1.555633783E0,-8.210372925E-1,-9.774381638E0
2.761107312E0,1.548455358E0,-7.971090674E-1,-9.771988869E0
2.770820749E0,1.553241014E0,-7.827520967E-1,-9.767203331E0
2.780533406E0,1.560718536E0,-7.707880139E-1,-9.728918076E0
2.790246947E0,1.589432478E0,-7.636095285E-1,-9.700203896E0
2.799961218E0,1.589432478E0,-7.372884750E-1,-9.697811127E0
2.809674656E0,1.599003673E0,-7.372884750E-1,-9.714560509E0
2.819387364E0,1.575075507E0,-7.396813035E-1,-9.738489151E0
2.829100906E0,1.548455358E0,-7.277171612E-1,-9.764810562E0
2.838815177E0,1.536491275E0,-7.325028181E-1,-9.767203331E0
2.848528614E0,1.529312730E0,-7.420741320E-1,-9.760024071E0
2.858241270E0,1.541276932E0,-7.468597889E-1,-9.798309326E0
2.867954812E0,1.560718536E0,-7.707880139E-1,-9.807881355E0
2.877669083E0,1.582253933E0,-7.731808424E-1,-9.807881355E0
2.887382520E0,1.570289850E0,-7.779664397E-1,-9.795916557E0
2.897095229E0,1.570289850E0,-7.731808424E-1,-9.771988869E0
2.906808770E0,1.587039590E0,-7.707880139E-1,-9.745667458E0
2.916523041E0,1.591825247E0,-7.827520967E-1,-9.748060226E0
2.926236427E0,1.618146300E0,-7.899305820E-1,-9.731310844E0
2.935949135E0,1.622931957E0,-7.851449251E-1,-9.719346046E0
2.945662677E0,1.608574986E0,-7.875377536E-1,-9.716953278E0
2.955376947E0,1.589432478E0,-7.683951855E-1,-9.707382202E0
2.965090385E0,1.567897081E0,-7.420741320E-1,-9.736096382E0
2.974803093E0,1.550848126E0,-7.348956466E-1,-9.757631302E0
2.984516531E0,1.560718536E0,-7.301099896E-1,-9.788738251E0
2.994230906E0,1.567897081E0,-7.253243923E-1,-9.815059662E0
3.003944291E0,1.563111424E0,-7.372884750E-1,-9.836594582E0
3.013656999E0,1.553241014E0,-7.707880139E-1,-9.841380119E0
3.023370541E0,1.526919961E0,-8.210372925E-1,-9.838987350E0
3.033084812E0,1.514955878E0,-8.497511148E-1,-9.800702095E0
3.042798249E0,1.495813251E0,-8.545367718E-1,-9.743274689E0
3.052510958E0,1.514955878E0,-8.353942037E-1,-9.709774971E0
3.062224395E0,1.575075507E0,-7.971090674E-1,-9.685847282E0
3.071938718E0,1.637288928E0,-7.947162390E-1,-9.681061745E0
3.081652156E0,1.666002750E0,-7.660023570E-1,-9.693025589E0
3.091364864E0,1.673181176E0,-7.444669604E-1,-9.702596664E0
3.101078406E0,1.615753531E0,-7.205387354E-1,-9.728918076E0
3.110792677E0,1.577468276E0,-7.037889361E-1,-9.769596100E0
3.120506114E0,1.555633783E0,-7.109674215E-1,-9.829416275E0
3.130218770E0,1.543669701E0,-7.253243923E-1,-9.865308762E0
3.139932312E0,1.558026671E0,-7.540382147E-1,-9.862915993E0
3.149646583E0,1.577468276E0,-7.636095285E-1,-9.793523788E0
3.159360020E0,1.603789330E0,-7.875377536E-1,-9.736096382E0
3.169072729E0,1.615753531E0,-7.851449251E-1,-9.681061745E0
3.178786270E0,1.608574986E0,-7.827520967E-1,-9.683454514E0
3.188500489E0,1.599003673E0,-7.851449251E-1,-9.693025589E0
3.198213927E0,1.589432478E0,-7.683951855E-1,-9.719346046E0
3.207926635E0,1.594218135E0,-7.444669604E-1,-9.726525307E0
3.217640177E0,1.608574986E0,-7.277171612E-1,-9.728918076E0
3.227354447E0,1.606182218E0,-7.372884750E-1,-9.736096382E0
3.237067885E0,1.584646821E0,-7.420741320E-1,-9.748060226E0
3.246780541E0,1.543669701E0,-7.755736113E-1,-9.760024071E0
3.256494083E0,1.510170221E0,-7.923234105E-1,-9.769596100E0
3.266208354E0,1.488634825E0,-7.803592682E-1,-9.791131020E0
3.275921791E0,1.495813251E0,-8.066803217E-1,-9.781559944E0
3.285634499E0,1.543669701E0,-8.018946648E-1,-9.783952713E0
3.295348041E0,1.587039590E0,-7.899305820E-1,-9.736096382E0
3.305062260E0,1.618146300E0,-7.899305820E-1,-9.740881920E0
3.314775697E0,1.620539188E0,-7.779664397E-1,-9.731310844E0
3.324488406E0,1.606182218E0,-7.707880139E-1,-9.757631302E0
3.334201947E0,1.584646821E0,-7.612167001E-1,-9.752845764E0
3.343916218E0,1.577468276E0,-7.468597889E-1,-9.767203331E0
3.353629656E0,1.555633783E0,-7.396813035E-1,-9.764810562E0
3.363342312E0,1.558026671E0,-7.444669604E-1,-9.771988869E0
3.373055854E0,1.589432478E0,-7.396813035E-1,-9.767203331E0
3.382770124E0,1.601396561E0,-7.468597889E-1,-9.748060226E0
3.392483562E0,1.618146300E0,-7.372884750E-1,-9.721739769E0
3.402196270E0,1.634896040E0,-7.468597889E-1,-9.719346046E0
3.411909812E0,1.618146300E0,-7.660023570E-1,-9.731310844E0
3.421624083E0,1.627717614E0,-7.827520967E-1,-9.769596100E0
3.431337468E0,1.591825247E0,-7.947162390E-1,-9.795916557E0
3.441050177E0,1.572682738E0,-7.947162390E-1,-9.807881355E0
3.450763718E0,1.555633783E0,-8.090731502E-1,-9.817452431E0
3.460477989E0,1.541276932E0,-7.875377536E-1,-9.810274124E0
3.470191427E0,1.534098387E0,-7.755736113E-1,-9.798309326E0
3.479904135E0,1.553241014E0,-7.612167001E-1,-9.760024071E0
3.489617572E0,1.560718536E0,-7.420741320E-1,-9.726525307E0
3.499331895E0,1.567897081E0,-7.325028181E-1,-9.709774971E0
3.509045333E0,1.575075507E0,-7.277171612E-1,-9.724132538E0
3.518758041E0,1.565504193E0,-7.253243923E-1,-9.743274689E0
3.528471583E0,1.563111424E0,-7.301099896E-1,-9.740881920E0
3.538185854E0,1.558026671E0,-7.444669604E-1,-9.755238533E0
3.547899291E0,1.543669701E0,-7.827520967E-1,-9.767203331E0
3.557611947E0,1.536491275E0,-8.162516356E-1,-9.791131020E0
3.567325489E0,1.519741535E0,-8.234301209E-1,-9.800702095E0
3.577039760E0,1.526919961E0,-8.258228898E-1,-9.800702095E0
3.586753197E0,1.560718536E0,-8.210372925E-1,-9.807881355E0
3.596465906E0,1.606182218E0,-8.042874932E-1,-9.788738251E0
3.606179343E0,1.634896040E0,-7.851449251E-1,-9.779167175E0
3.615893718E0,1.632503271E0,-7.707880139E-1,-9.781559944E0
3.625607104E0,1.608574986E0,-7.468597889E-1,-9.776774406E0
3.635319812E0,1.582253933E0,-7.277171612E-1,-9.764810562E0
3.645033354E0,1.570289850E0,-7.205387354E-1,-9.764810562E0
3.654747624E0,1.587039590E0,-7.325028181E-1,-9.750452995E0
3.664461062E0,1.594218135E0,-7.444669604E-1,-9.745667458E0
3.674173718E0,1.596610904E0,-7.516453862E-1,-9.745667458E0
3.683887260E0,1.572682738E0,-7.516453862E-1,-9.748060226E0
3.693601531E0,1.560718536E0,-7.564310431E-1,-9.757631302E0
3.703314968E0,1.543669701E0,-7.683951855E-1,-9.740881920E0
3.713027677E0,1.546062589E0,-7.683951855E-1,-9.745667458E0
3.722741218E0,1.558026671E0,-7.779664397E-1,-9.740881920E0
3.732455489E0,1.567897081E0,-7.851449251E-1,-9.757631302E0
3.742168927E0,1.560718536E0,-7.899305820E-1,-9.788738251E0
3.751881583E0,1.548455358E0,-7.803592682E-1,-9.805487633E0
3.761595124E0,1.538884044E0,-7.636095285E-1,-9.803094864E0
3.771309395E0,1.567897081E0,-7.636095285E-1,-9.788738251E0
3.781022833E0,1.587039590E0,-7.636095285E-1,-9.769596100E0
3.790735541E0,1.591825247E0,-7.683951855E-1,-9.757631302E0
3.800449083E0,1.579861164E0,-7.827520967E-1,-9.743274689E0
3.810163354E0,1.575075507E0,-7.995018363E-1,-9.748060226E0
3.819876739E0,1.560718536E0,-7.923234105E-1,-9.755238533E0
3.829589447E0,1.560718536E0,-7.803592682E-1,-9.752845764E0
3.839302989E0,1.538884044E0,-7.564310431E-1,-9.752845764E0
3.849017260E0,1.563111424E0,-7.707880139E-1,-9.755238533E0
3.858730697E0,1.577468276E0,-7.612167001E-1,-9.757631302E0
3.868443406E0,1.572682738E0,-7.540382147E-1,-9.755238533E0
3.878156843E0,1.565504193E0,-7.540382147E-1,-9.769596100E0
3.887871166E0,1.565504193E0,-7.612167001E-1,-9.769596100E0
3.897584604E0,1.550848126E0,-7.588238716E-1,-9.783952713E0
3.907297312E0,1.563111424E0,-7.636095285E-1,-9.815059662E0
3.917010854E0,1.584646821E0,-7.755736113E-1,-9.841380119E0
3.926725124E0,1.613360643E0,-7.636095285E-1,-9.824630737E0
3.936438562E0,1.618146300E0,-7.588238716E-1,-9.791131020E0
3.946151218E0,1.606182218E0,-7.612167001E-1,-9.733703613E0
3.955864760E0,1.603789330E0,-7.540382147E-1,-9.728918076E0
3.965579031E0,1.601396561E0,-7.564310431E-1,-9.731310844E0
3.975292468E0,1.622931957E0,-7.588238716E-1,-9.714560509E0
3.985005177E0,1.608574986E0,-7.564310431E-1,-9.709774971E0
3.994718718E0,1.570289850E0,-7.444669604E-1,-9.681061745E0
4.004432989E0,1.517348647E0,-7.444669604E-1,-9.702596664E0
4.014146427E0,1.476670623E0,-7.731808424E-1,-9.733703613E0
4.023859083E0,1.462313771E0,-7.827520967E-1,-9.786345482E0
4.033572624E0,1.476670623E0,-7.851449251E-1,-9.862915993E0
4.043286895E0,1.512562990E0,-7.827520967E-1,-9.886843681E0
4.053000333E0,1.536491275E0,-7.779664397E-1,-9.858130455E0
4.062713041E0,1.565504193E0,-7.683951855E-1,-9.817452431E0
4.072426583E0,1.591825247E0,-7.707880139E-1,-9.779167175E0
4.082140854E0,1.601396561E0,-7.731808424E-1,-9.724132538E0
4.091854239E0,1.587039590E0,-7.707880139E-1,-9.721739769E0
4.101566947E0,1.579861164E0,-7.660023570E-1,-9.671489716E0
4.111280489E0,1.575075507E0,-7.636095285E-1,-9.633204460E0
4.120994760E0,1.606182218E0,-7.516453862E-1,-9.630811691E0
4.130708197E0,1.589432478E0,-7.564310431E-1,-9.719346046E0
4.140420906E0,1.570289850E0,-7.755736113E-1,-9.798309326E0
4.150134343E0,1.512562990E0,-7.707880139E-1,-9.846165657E0
4.159848666E0,1.471885085E0,-7.372884750E-1,-9.872487068E0
4.169562104E0,1.476670623E0,-7.348956466E-1,-9.838987350E0
4.179274812E0,1.512562990E0,-7.348956466E-1,-9.805487633E0
4.188988354E0,1.587039590E0,-7.396813035E-1,-9.767203331E0
4.198702624E0,1.639681697E0,-7.516453862E-1,-9.755238533E0
4.208416062E0,1.666002750E0,-7.564310431E-1,-9.709774971E0
4.218128718E0,1.675574064E0,-7.755736113E-1,-9.693025589E0
4.227842260E0,1.651645780E0,-7.612167001E-1,-9.685847282E0
4.237556531E0,1.601396561E0,-7.636095285E-1,-9.709774971E0
4.247269968E0,1.538884044E0,-7.588238716E-1,-9.740881920E0
4.256982677E0,1.507777333E0,-7.540382147E-1,-9.788738251E0
4.266696218E0,1.507777333E0,-7.588238716E-1,-9.795916557E0
4.276410489E0,1.514955878E0,-7.636095285E-1,-9.774381638E0
4.286123927E0,1.555633783E0,-7.612167001E-1,-9.748060226E0
4.295836583E0,1.584646821E0,-7.683951855E-1,-9.731310844E0
4.305550124E0,1.608574986E0,-7.612167001E-1,-9.709774971E0
4.315264395E0,1.596610904E0,-7.516453862E-1,-9.733703613E0
4.324977833E0,1.589432478E0,-7.755736113E-1,-9.740881920E0
4.334690541E0,1.575075507E0,-7.803592682E-1,-9.760024071E0
4.344403979E0,1.558026671E0,-8.066803217E-1,-9.774381638E0
4.354118354E0,1.546062589E0,-7.923234105E-1,-9.812666893E0
4.363831739E0,1.546062589E0,-7.899305820E-1,-9.822237968E0
4.373544447E0,1.534098387E0,-7.803592682E-1,-9.805487633E0
4.383257989E0,1.550848126E0,-7.803592682E-1,-9.771988869E0
4.392972260E0,1.567897081E0,-7.660023570E-1,-9.740881920E0
4.402685697E0,1.565504193E0,-7.564310431E-1,-9.716953278E0
4.412398354E0,1.582253933E0,-7.468597889E-1,-9.719346046E0
4.422111895E0,1.584646821E0,-7.444669604E-1,-9.733703613E0
4.431826166E0,1.589432478E0,-7.468597889E-1,-9.750452995E0
4.441539604E0,1.572682738E0,-7.444669604E-1,-9.774381638E0
4.451252312E0,1.567897081E0,-7.492526174E-1,-9.783952713E0
4.460965854E0,1.558026671E0,-7.492526174E-1,-9.771988869E0
4.470680124E0,1.575075507E0,-7.492526174E-1,-9.764810562E0
4.480393510E0,1.567897081E0,-7.420741320E-1,-9.762416840E0
4.490106218E0,1.548455358E0,-7.301099896E-1,-9.774381638E0
4.499819760E0,1.563111424E0,-7.181459069E-1,-9.745667458E0
4.509534031E0,1.558026671E0,-7.372884750E-1,-9.743274689E0
4.519247468E0,1.565504193E0,-7.564310431E-1,-9.757631302E0
4.528960124E0,1.577468276E0,-7.827520967E-1,-9.764810562E0
4.538673666E0,1.575075507E0,-7.947162390E-1,-9.752845764E0
4.548387937E0,1.594218135E0,-7.971090674E-1,-9.745667458E0
4.558101374E0,1.601396561E0,-7.875377536E-1,-9.767203331E0
4.567814083E0,1.594218135E0,-7.875377536E-1,-9.783952713E0
4.577527624E0,1.555633783E0,-7.707880139E-1,-9.781559944E0
4.587241895E0,1.538884044E0,-7.420741320E-1,-9.788738251E0
4.596955281E0,1.531705618E0,-7.205387354E-1,-9.800702095E0
4.606667989E0,1.546062589E0,-6.990033388E-1,-9.776774406E0
4.616381531E0,1.548455358E0,-7.109674215E-1,-9.752845764E0
4.626095802E0,1.555633783E0,-7.396813035E-1,-9.709774971E0
4.635809239E0,1.572682738E0,-7.660023570E-1,-9.707382202E0
4.645521947E0,1.563111424E0,-7.971090674E-1,-9.712167740E0
4.655235385E0,1.563111424E0,-8.090731502E-1,-9.726525307E0
4.664949708E0,1.572682738E0,-8.138588071E-1,-9.743274689E0
4.674663145E0,1.587039590E0,-7.995018363E-1,-9.800702095E0
4.684375854E0,1.596610904E0,-7.851449251E-1,-9.829416275E0
4.694089395E0,1.584646821E0,-7.779664397E-1,-9.838987350E0
4.703803666E0,1.567897081E0,-7.516453862E-1,-9.807881355E0
4.713517104E0,1.555633783E0,-7.468597889E-1,-9.781559944E0
4.723229760E0,1.558026671E0,-7.396813035E-1,-9.733703613E0
4.732943302E0,1.575075507E0,-7.492526174E-1,-9.733703613E0
4.742657572E0,1.563111424E0,-7.396813035E-1,-9.731310844E0
4.752371010E0,1.563111424E0,-7.325028181E-1,-9.726525307E0
4.762083666E0,1.577468276E0,-7.348956466E-1,-9.702596664E0
4.771797208E0,1.584646821E0,-7.372884750E-1,-9.709774971E0
4.781511479E0,1.591825247E0,-7.468597889E-1,-9.738489151E0
4.791224916E0,1.577468276E0,-7.444669604E-1,-9.776774406E0
4.800937624E0,1.546062589E0,-7.468597889E-1,-9.803094864E0
4.810651166E0,1.541276932E0,-7.540382147E-1,-9.781559944E0
4.820365437E0,1.555633783E0,-7.492526174E-1,-9.745667458E0
4.830078822E0,1.543669701E0,-7.564310431E-1,-9.724132538E0
4.839791531E0,1.575075507E0,-7.636095285E-1,-9.736096382E0
4.849505072E0,1.594218135E0,-7.755736113E-1,-9.762416840E0
4.859219343E0,1.591825247E0,-7.971090674E-1,-9.760024071E0
4.868932781E0,1.558026671E0,-8.018946648E-1,-9.781559944E0
4.878645437E0,1.531705618E0,-8.018946648E-1,-9.764810562E0
4.888358979E0,1.524527073E0,-7.851449251E-1,-9.774381638E0
4.898073249E0,1.529312730E0,-7.612167001E-1,-9.757631302E0
4.907786687E0,1.541276932E0,-7.396813035E-1,-9.764810562E0
4.917499395E0,1.577468276E0,-7.516453862E-1,-9.764810562E0
4.927212833E0,1.577468276E0,-7.348956466E-1,-9.757631302E0
4.936927156E0,1.582253933E0,-7.444669604E-1,-9.736096382E0
4.946640593E0,1.582253933E0,-7.612167001E-1,-9.719346046E0
4.956353302E0,1.584646821E0,-7.540382147E-1,-9.728918076E0
4.966066843E0,1.587039590E0,-7.731808424E-1,-9.740881920E0
4.975781114E0,1.596610904E0,-7.707880139E-1,-9.786345482E0
4.985494499E0,1.550848126E0,-7.564310431E-1,-9.800702095E0
4.995207208E0,1.546062589E0,-7.420741320E-1,-9.779167175E0
5.004920749E0,1.548455358E0,-7.396813035E-1,-9.764810562E0
5.014635020E0,1.589432478E0,-7.348956466E-1,-9.748060226E0
5.024348458E0,1.579861164E0,-7.348956466E-1,-9.750452995E0
5.034061114E0,1.591825247E0,-7.253243923E-1,-9.760024071E0
5.043774656E0,1.572682738E0,-7.468597889E-1,-9.743274689E0
5.053488927E0,1.567897081E0,-7.540382147E-1,-9.740881920E0
5.063202364E0,1.560718536E0,-7.803592682E-1,-9.745667458E0
5.072915020E0,1.577468276E0,-7.851449251E-1,-9.738489151E0
5.082628562E0,1.567897081E0,-8.018946648E-1,-9.760024071E0
5.092342833E0,1.563111424E0,-8.090731502E-1,-9.774381638E0
5.102056270E0,1.550848126E0,-7.875377536E-1,-9.769596100E0
5.111768979E0,1.553241014E0,-7.803592682E-1,-9.781559944E0
5.121482416E0,1.560718536E0,-7.660023570E-1,-9.769596100E0
5.131196739E0,1.563111424E0,-7.492526174E-1,-9.781559944E0
5.140910177E0,1.555633783E0,-7.325028181E-1,-9.764810562E0
5.150622885E0,1.567897081E0,-7.085745931E-1,-9.748060226E0
5.160336427E0,1.577468276E0,-6.894320250E-1,-9.726525307E0
5.170050697E0,1.579861164E0,-7.181459069E-1,-9.719346046E0
5.179764083E0,1.563111424E0,-7.612167001E-1,-9.728918076E0
5.189476791E0,1.546062589E0,-8.066803217E-1,-9.726525307E0
5.199190333E0,1.531705618E0,-8.306085467E-1,-9.745667458E0
5.208904604E0,1.529312730E0,-8.449655175E-1,-9.764810562E0
5.218618041E0,1.536491275E0,-8.258228898E-1,-9.800702095E0
5.228330697E0,1.570289850E0,-8.210372925E-1,-9.817452431E0
5.238044239E0,1.596610904E0,-8.186444640E-1,-9.831809044E0
5.247758510E0,1.615753531E0,-7.755736113E-1,-9.798309326E0
5.257471947E0,1.596610904E0,-7.325028181E-1,-9.769596100E0
5.267184604E0,1.584646821E0,-7.085745931E-1,-9.748060226E0
5.276898145E0,1.587039590E0,-7.085745931E-1,-9.745667458E0
5.286612416E0,1.601396561E0,-7.085745931E-1,-9.750452995E0
5.296325854E0,1.615753531E0,-7.013961077E-1,-9.769596100E0
5.306038510E0,1.615753531E0,-7.205387354E-1,-9.774381638E0
5.315752052E0,1.620539188E0,-7.516453862E-1,-9.767203331E0
5.325466322E0,1.591825247E0,-7.660023570E-1,-9.745667458E0
5.335179760E0,1.572682738E0,-7.683951855E-1,-9.736096382E0
5.344892416E0,1.548455358E0,-7.803592682E-1,-9.712167740E0
5.354605958E0,1.543669701E0,-7.731808424E-1,-9.702596664E0
5.364320229E0,1.538884044E0,-7.779664397E-1,-9.700203896E0
5.374033666E0,1.570289850E0,-7.588238716E-1,-9.709774971E0
5.383746374E0,1.582253933E0,-7.683951855E-1,-9.733703613E0
5.393459812E0,1.587039590E0,-7.779664397E-1,-9.762416840E0
5.403174135E0,1.579861164E0,-7.923234105E-1,-9.795916557E0
5.412887572E0,1.543669701E0,-8.114659786E-1,-9.838987350E0
5.422600281E0,1.488634825E0,-8.042874932E-1,-9.817452431E0
5.432313718E0,1.455135226E0,-7.971090674E-1,-9.781559944E0
5.442028041E0,1.467099428E0,-7.755736113E-1,-9.745667458E0
5.451741479E0,1.505384564E0,-7.683951855E-1,-9.704989433E0
5.461454187E0,1.536491275E0,-7.564310431E-1,-9.685847282E0
5.471167729E0,1.548455358E0,-7.492526174E-1,-9.697811127E0
5.480881947E0,1.563111424E0,-7.325028181E-1,-9.719346046E0
5.490595385E0,1.548455358E0,-7.372884750E-1,-9.757631302E0
5.500308093E0,1.558026671E0,-7.396813035E-1,-9.781559944E0
5.510021635E0,1.565504193E0,-7.588238716E-1,-9.829416275E0
5.519735854E0,1.599003673E0,-7.588238716E-1,-9.822237968E0
5.529449291E0,1.584646821E0,-7.827520967E-1,-9.807881355E0
5.539161999E0,1.620539188E0,-7.851449251E-1,-9.767203331E0
5.548875541E0,1.622931957E0,-7.947162390E-1,-9.745667458E0
5.558589760E0,1.630110383E0,-7.995018363E-1,-9.719346046E0
5.568303197E0,1.627717614E0,-8.066803217E-1,-9.702596664E0
5.578015906E0,1.627717614E0,-7.875377536E-1,-9.716953278E0
5.587729447E0,1.601396561E0,-7.827520967E-1,-9.726525307E0
5.597443666E0,1.594218135E0,-7.707880139E-1,-9.762416840E0
5.607157104E0,1.589432478E0,-7.444669604E-1,-9.769596100E0
5.616869812E0,1.603789330E0,-7.564310431E-1,-9.771988869E0
5.626583354E0,1.618146300E0,-7.564310431E-1,-9.764810562E0
5.636297572E0,1.603789330E0,-7.588238716E-1,-9.764810562E0
5.646011010E0,1.577468276E0,-7.636095285E-1,-9.764810562E0
5.655723718E0,1.555633783E0,-7.636095285E-1,-9.752845764E0
5.665437260E0,1.543669701E0,-7.540382147E-1,-9.738489151E0
5.675151479E0,1.536491275E0,-7.540382147E-1,-9.733703613E0
5.684864916E0,1.510170221E0,-7.564310431E-1,-9.724132538E0
5.694577624E0,1.505384564E0,-7.396813035E-1,-9.760024071E0
5.704291062E0,1.493420482E0,-7.301099896E-1,-9.771988869E0
5.714005385E0,1.488634825E0,-7.205387354E-1,-9.760024071E0
5.723718822E0,1.502991676E0,-7.348956466E-1,-9.752845764E0
5.733431531E0,1.519741535E0,-7.660023570E-1,-9.750452995E0
5.743144968E0,1.522134304E0,-7.875377536E-1,-9.764810562E0
5.752859291E0,1.514955878E0,-8.138588071E-1,-9.779167175E0
5.762572729E0,1.512562990E0,-8.282157183E-1,-9.779167175E0
5.772285437E0,1.558026671E0,-8.066803217E-1,-9.757631302E0
5.781998874E0,1.589432478E0,-7.827520967E-1,-9.760024071E0
5.791713197E0,1.613360643E0,-7.707880139E-1,-9.752845764E0
5.801426635E0,1.615753531E0,-7.540382147E-1,-9.738489151E0
5.811139343E0,1.591825247E0,-7.301099896E-1,-9.743274689E0
5.820852781E0,1.572682738E0,-7.181459069E-1,-9.760024071E0
5.830567104E0,1.594218135E0,-7.157530785E-1,-9.748060226E0
5.840280541E0,1.618146300E0,-7.372884750E-1,-9.757631302E0
5.849993197E0,1.615753531E0,-7.492526174E-1,-9.779167175E0
5.859706739E0,1.618146300E0,-7.588238716E-1,-9.776774406E0
5.869421010E0,1.622931957E0,-7.755736113E-1,-9.752845764E0
5.879134447E0,1.610967875E0,-7.636095285E-1,-9.740881920E0
5.888847104E0,1.610967875E0,-7.779664397E-1,-9.721739769E0
5.898560645E0,1.599003673E0,-7.779664397E-1,-9.714560509E0
5.908274916E0,1.577468276E0,-7.899305820E-1,-9.738489151E0
5.917988354E0,1.550848126E0,-7.755736113E-1,-9.760024071E0
5.927701010E0,1.526919961E0,-7.755736113E-1,-9.767203331E0
5.937414552E0,1.507777333E0,-7.683951855E-1,-9.783952713E0
5.947128822E0,1.529312730E0,-7.683951855E-1,-9.781559944E0
5.956842208E0,1.543669701E0,-7.851449251E-1,-9.776774406E0
5.966554916E0,1.567897081E0,-7.803592682E-1,-9.771988869E0
5.976268458E0,1.560718536E0,-7.875377536E-1,-9.740881920E0
5.985982729E0,1.565504193E0,-7.803592682E-1,-9.716953278E0
5.995696114E0,1.575075507E0,-7.875377536E-1,-9.714560509E0
6.005408822E0,1.570289850E0,-7.827520967E-1,-9.748060226E0
6.015122364E0,1.565504193E0,-7.779664397E-1,-9.781559944E0
6.024836583E0,1.563111424E0,-7.827520967E-1,-9.793523788E0
6.034550020E0,1.558026671E0,-7.660023570E-1,-9.774381638E0
6.044262729E0,1.572682738E0,-7.588238716E-1,-9.752845764E0
6.053976166E0,1.558026671E0,-7.516453862E-1,-9.752845764E0
6.063690489E0,1.541276932E0,-7.468597889E-1,-9.760024071E0
6.073403927E0,1.536491275E0,-7.348956466E-1,-9.779167175E0
6.083116635E0,1.536491275E0,-7.348956466E-1,-9.755238533E0
6.092830072E0,1.548455358E0,-7.468597889E-1,-9.738489151E0
6.102544395E0,1.541276932E0,-7.277171612E-1,-9.721739769E0
6.112257833E0,1.550848126E0,-7.301099896E-1,-9.721739769E0
6.121970489E0,1.579861164E0,-7.301099896E-1,-9.731310844E0
6.131684031E0,1.579861164E0,-7.468597889E-1,-9.738489151E0
6.141398302E0,1.579861164E0,-7.636095285E-1,-9.748060226E0
6.151111739E0,1.572682738E0,-7.707880139E-1,-9.776774406E0
6.160824395E0,1.570289850E0,-7.899305820E-1,-9.810274124E0
6.170537937E0,1.579861164E0,-7.995018363E-1,-9.807881355E0
6.180252208E0,1.596610904E0,-7.971090674E-1,-9.788738251E0
6.189965593E0,1.577468276E0,-7.875377536E-1,-9.769596100E0
6.199678302E0,1.575075507E0,-7.875377536E-1,-9.783952713E0
6.209391843E0,1.558026671E0,-7.755736113E-1,-9.748060226E0
6.219106062E0,1.572682738E0,-7.707880139E-1,-9.714560509E0
6.228819499E0,1.596610904E0,-7.612167001E-1,-9.693025589E0
6.238532208E0,1.601396561E0,-7.564310431E-1,-9.697811127E0
6.248245645E0,1.591825247E0,-7.396813035E-1,-9.719346046E0
6.257959968E0,1.577468276E0,-7.396813035E-1,-9.771988869E0
6.267673406E0,1.536491275E0,-7.348956466E-1,-9.791131020E0
6.277386062E0,1.531705618E0,-7.444669604E-1,-9.779167175E0
6.287099604E0,1.522134304E0,-7.492526174E-1,-9.786345482E0
6.296813874E0,1.538884044E0,-7.947162390E-1,-9.781559944E0
6.306527312E0,1.538884044E0,-8.234301209E-1,-9.788738251E0
6.316239968E0,1.546062589E0,-8.138588071E-1,-9.779167175E0
6.325953510E0,1.550848126E0,-8.042874932E-1,-9.760024071E0
6.335667781E0,1.587039590E0,-7.731808424E-1,-9.757631302E0
6.345381166E0,1.615753531E0,-7.636095285E-1,-9.745667458E0
6.355093874E0,1.603789330E0,-7.396813035E-1,-9.745667458E0
6.364807312E0,1.548455358E0,-7.348956466E-1,-9.764810562E0
6.374521635E0,1.519741535E0,-7.205387354E-1,-9.771988869E0
6.384235072E0,1.522134304E0,-7.205387354E-1,-9.760024071E0
6.393947781E0,1.553241014E0,-7.277171612E-1,-9.743274689E0
6.403661218E0,1.563111424E0,-7.396813035E-1,-9.748060226E0
6.413375541E0,1.589432478E0,-7.564310431E-1,-9.731310844E0
6.423088979E0,1.594218135E0,-7.444669604E-1,-9.719346046E0
6.432801635E0,1.589432478E0,-7.492526174E-1,-9.728918076E0
6.442515177E0,1.587039590E0,-7.468597889E-1,-9.750452995E0
6.452229447E0,1.567897081E0,-7.564310431E-1,-9.786345482E0
6.461942833E0,1.555633783E0,-7.755736113E-1,-9.817452431E0
6.471655541E0,1.541276932E0,-7.779664397E-1,-9.805487633E0
6.481369083E0,1.546062589E0,-7.827520967E-1,-9.776774406E0
6.491083302E0,1.567897081E0,-7.827520967E-1,-9.731310844E0
6.500796739E0,1.582253933E0,-7.731808424E-1,-9.724132538E0
6.510509395E0,1.596610904E0,-7.803592682E-1,-9.714560509E0
6.520222937E0,1.579861164E0,-7.707880139E-1,-9.714560509E0
6.529937208E0,1.565504193E0,-7.731808424E-1,-9.712167740E0
6.539650645E0,1.553241014E0,-7.707880139E-1,-9.724132538E0
6.549363302E0,1.519741535E0,-7.731808424E-1,-9.750452995E0
6.559076843E0,1.514955878E0,-7.779664397E-1,-9.788738251E0
6.568791114E0,1.522134304E0,-7.516453862E-1,-9.800702095E0
6.578504499E0,1.555633783E0,-7.683951855E-1,-9.807881355E0
6.588217208E0,1.567897081E0,-7.660023570E-1,-9.779167175E0
6.597930645E0,1.567897081E0,-7.660023570E-1,-9.769596100E0
6.607644968E0,1.567897081E0,-7.707880139E-1,-9.736096382E0
6.617358406E0,1.560718536E0,-7.683951855E-1,-9.724132538E0
6.627071062E0,1.555633783E0,-7.660023570E-1,-9.728918076E0
6.636784604E0,1.548455358E0,-7.516453862E-1,-9.760024071E0
6.646498874E0,1.563111424E0,-7.612167001E-1,-9.769596100E0
6.656212260E0,1.570289850E0,-7.516453862E-1,-9.760024071E0
6.665924968E0,1.582253933E0,-7.420741320E-1,-9.757631302E0
6.675638510E0,1.582253933E0,-7.396813035E-1,-9.762416840E0
6.685352729E0,1.579861164E0,-7.396813035E-1,-9.764810562E0
6.695066166E0,1.587039590E0,-7.325028181E-1,-9.748060226E0
6.704778822E0,1.591825247E0,-7.277171612E-1,-9.726525307E0
6.714492364E0,1.594218135E0,-7.372884750E-1,-9.714560509E0
6.724206635E0,1.575075507E0,-7.492526174E-1,-9.731310844E0
6.733920020E0,1.546062589E0,-7.564310431E-1,-9.755238533E0
6.743632729E0,1.534098387E0,-7.707880139E-1,-9.771988869E0
6.753346270E0,1.531705618E0,-7.755736113E-1,-9.781559944E0
6.763060489E0,1.541276932E0,-7.660023570E-1,-9.760024071E0
6.772773927E0,1.531705618E0,-7.540382147E-1,-9.774381638E0
6.782486635E0,1.529312730E0,-7.588238716E-1,-9.781559944E0
6.792200072E0,1.522134304E0,-7.468597889E-1,-9.795916557E0
6.801914395E0,1.541276932E0,-7.444669604E-1,-9.779167175E0
6.811627833E0,1.550848126E0,-7.348956466E-1,-9.750452995E0
6.821340489E0,1.553241014E0,-7.229315639E-1,-9.726525307E0
6.831054031E0,1.546062589E0,-7.348956466E-1,-9.721739769E0
6.840768249E0,1.558026671E0,-7.683951855E-1,-9.704989433E0
6.850481687E0,1.555633783E0,-8.018946648E-1,-9.731310844E0
6.860194343E0,1.536491275E0,-8.210372925E-1,-9.757631302E0
6.869907885E0,1.534098387E0,-8.258228898E-1,-9.791131020E0
6.879622156E0,1.543669701E0,-8.210372925E-1,-9.810274124E0
6.889335593E0,1.555633783E0,-7.995018363E-1,-9.810274124E0
6.899048249E0,1.582253933E0,-7.731808424E-1,-9.781559944E0
6.908761791E0,1.596610904E0,-7.444669604E-1,-9.750452995E0
6.918476010E0,1.582253933E0,-7.133602500E-1,-9.721739769E0
6.928189447E0,1.591825247E0,-7.181459069E-1,-9.731310844E0
6.937902104E0,1.603789330E0,-7.301099896E-1,-9.760024071E0
6.947615645E0,1.591825247E0,-7.372884750E-1,-9.793523788E0
6.957329916E0,1.584646821E0,-7.420741320E-1,-9.793523788E0
6.967043354E0,1.579861164E0,-7.492526174E-1,-9.757631302E0
6.976756010E0,1.575075507E0,-7.468597889E-1,-9.743274689E0
6.986469552E0,1.570289850E0,-7.516453862E-1,-9.726525307E0
6.996183770E0,1.565504193E0,-7.516453862E-1,-9.721739769E0
7.005897208E0,1.558026671E0,-7.612167001E-1,-9.714560509E0
7.015609864E0,1.560718536E0,-7.707880139E-1,-9.731310844E0
7.025323406E0,1.541276932E0,-7.851449251E-1,-9.757631302E0
7.035037677E0,1.526919961E0,-7.755736113E-1,-9.795916557E0
7.044751062E0,1.529312730E0,-7.588238716E-1,-9.791131020E0
7.054463770E0,1.541276932E0,-7.492526174E-1,-9.755238533E0
7.064177208E0,1.575075507E0,-7.468597889E-1,-9.748060226E0
7.073891531E0,1.594218135E0,-7.612167001E-1,-9.736096382E0
7.083604968E0,1.599003673E0,-7.827520967E-1,-9.721739769E0
7.093317624E0,1.603789330E0,-7.899305820E-1,-9.733703613E0
7.103031166E0,1.591825247E0,-7.971090674E-1,-9.716953278E0
7.112745437E0,1.594218135E0,-7.875377536E-1,-9.712167740E0
7.122458822E0,1.599003673E0,-7.612167001E-1,-9.697811127E0
7.132171531E0,1.596610904E0,-7.420741320E-1,-9.704989433E0
7.141884968E0,1.563111424E0,-7.516453862E-1,-9.721739769E0
7.151599291E0,1.495813251E0,-7.731808424E-1,-9.771988869E0
7.161312729E0,1.443171144E0,-7.995018363E-1,-9.846165657E0
7.171025385E0,1.416850090E0,-7.899305820E-1,-9.896415710E0
7.180738927E0,1.388136268E0,-7.731808424E-1,-9.896415710E0
7.190453145E0,1.414457321E0,-7.396813035E-1,-9.831809044E0
7.200166583E0,1.479063511E0,-7.444669604E-1,-9.769596100E0
7.209879239E0,1.534098387E0,-7.372884750E-1,-9.745667458E0
7.219592781E0,1.565504193E0,-7.325028181E-1,-9.738489151E0
7.229307052E0,1.596610904E0,-7.396813035E-1,-9.728918076E0
7.239020437E0,1.625324726E0,-7.707880139E-1,-9.731310844E0
7.248733145E0,1.627717614E0,-7.683951855E-1,-9.726525307E0
7.258446583E0,1.608574986E0,-7.707880139E-1,-9.728918076E0
7.268160906E0,1.603789330E0,-7.851449251E-1,-9.736096382E0
7.277874343E0,1.601396561E0,-8.042874932E-1,-9.779167175E0
7.287586999E0,1.594218135E0,-8.090731502E-1,-9.795916557E0
7.297300541E0,1.575075507E0,-8.210372925E-1,-9.783952713E0
7.307014760E0,1.584646821E0,-8.042874932E-1,-9.793523788E0
7.316728197E0,1.589432478E0,-7.875377536E-1,-9.779167175E0
7.326440854E0,1.582253933E0,-7.612167001E-1,-9.769596100E0
7.336154395E0,1.579861164E0,-7.636095285E-1,-9.745667458E0
7.345868666E0,1.555633783E0,-7.396813035E-1,-9.716953278E0
7.355582052E0,1.534098387E0,-7.181459069E-1,-9.707382202E0
7.365294760E0,1.500598907E0,-7.181459069E-1,-9.731310844E0
7.375008197E0,1.483849168E0,-7.492526174E-1,-9.788738251E0
7.384722520E0,1.474277854E0,-7.851449251E-1,-9.800702095E0
7.394435958E0,1.479063511E0,-8.138588071E-1,-9.810274124E0
7.404148614E0,1.502991676E0,-8.377870321E-1,-9.800702095E0
7.413862156E0,1.519741535E0,-8.425726891E-1,-9.769596100E0
7.423576374E0,1.550848126E0,-8.210372925E-1,-9.745667458E0
7.433289812E0,1.594218135E0,-8.042874932E-1,-9.755238533E0
7.443002468E0,1.630110383E0,-7.803592682E-1,-9.764810562E0
7.452716010E0,1.625324726E0,-7.588238716E-1,-9.743274689E0
7.462430229E0,1.606182218E0,-7.277171612E-1,-9.731310844E0
7.472143666E0,1.570289850E0,-7.229315639E-1,-9.716953278E0
7.481856374E0,1.553241014E0,-7.109674215E-1,-9.733703613E0
7.491569812E0,1.531705618E0,-7.229315639E-1,-9.776774406E0
7.501284135E0,1.507777333E0,-7.157530785E-1,-9.774381638E0
7.510997520E0,1.500598907E0,-7.181459069E-1,-9.733703613E0
7.520710229E0,1.500598907E0,-7.348956466E-1,-9.697811127E0
7.530423666E0,1.505384564E0,-7.636095285E-1,-9.707382202E0
7.540137989E0,1.517348647E0,-7.683951855E-1,-9.745667458E0
7.549851427E0,1.524527073E0,-7.731808424E-1,-9.791131020E0
7.559564083E0,1.536491275E0,-7.827520967E-1,-9.800702095E0
7.569277624E0,1.534098387E0,-7.803592682E-1,-9.771988869E0
7.578991843E0,1.550848126E0,-7.683951855E-1,-9.762416840E0
7.588705281E0,1.587039590E0,-7.731808424E-1,-9.760024071E0
7.598417937E0,1.608574986E0,-7.827520967E-1,-9.779167175E0
7.608131479E0,1.587039590E0,-7.995018363E-1,-9.779167175E0
7.617845749E0,1.548455358E0,-8.162516356E-1,-9.769596100E0
7.627559135E0,1.538884044E0,-8.210372925E-1,-9.745667458E0
7.637271843E0,1.565504193E0,-8.210372925E-1,-9.731310844E0
7.646985281E0,1.599003673E0,-8.066803217E-1,-9.709774971E0
7.656699604E0,1.627717614E0,-7.899305820E-1,-9.728918076E0
7.666412989E0,1.608574986E0,-7.947162390E-1,-9.724132538E0
7.676125697E0,1.584646821E0,-7.731808424E-1,-9.733703613E0
7.685839135E0,1.565504193E0,-7.588238716E-1,-9.743274689E0
7.695553458E0,1.538884044E0,-7.492526174E-1,-9.757631302E0
7.705266895E0,1.529312730E0,-7.396813035E-1,-9.767203331E0
7.714979552E0,1.529312730E0,-7.420741320E-1,-9.776774406E0
7.724692989E0,1.531705618E0,-7.492526174E-1,-9.767203331E0
7.734407312E0,1.534098387E0,-7.588238716E-1,-9.762416840E0
7.744120749E0,1.553241014E0,-7.731808424E-1,-9.779167175E0
7.753833406E0,1.560718536E0,-7.683951855E-1,-9.764810562E0
7.763546947E0,1.558026671E0,-7.803592682E-1,-9.757631302E0
7.773261166E0,1.541276932E0,-7.683951855E-1,-9.755238533E0
7.782974604E0,1.529312730E0,-7.564310431E-1,-9.755238533E0
7.792687260E0,1.517348647E0,-7.444669604E-1,-9.750452995E0
7.802400802E0,1.524527073E0,-7.516453862E-1,-9.752845764E0
7.812115020E0,1.548455358E0,-7.755736113E-1,-9.771988869E0
7.821828458E0,1.567897081E0,-7.827520967E-1,-9.771988869E0
7.831541114E0,1.565504193E0,-8.042874932E-1,-9.791131020E0
7.841254656E0,1.558026671E0,-8.018946648E-1,-9.791131020E0
7.850968927E0,1.550848126E0,-7.875377536E-1,-9.767203331E0
7.860682312E0,1.553241014E0,-7.731808424E-1,-9.740881920E0
7.870394968E0,1.550848126E0,-7.588238716E-1,-9.733703613E0
7.880108510E0,1.563111424E0,-7.444669604E-1,-9.721739769E0
7.889822781E0,1.582253933E0,-7.301099896E-1,-9.726525307E0
7.899536166E0,1.582253933E0,-7.157530785E-1,-9.745667458E0
7.909248874E0,1.577468276E0,-7.325028181E-1,-9.740881920E0
7.918962312E0,1.563111424E0,-7.564310431E-1,-9.733703613E0
7.928675310E0,1.546062589E0,-7.947162390E-1,-9.748060226E0
7.938388695E0,1.512562990E0,-8.377870321E-1,-9.752845764E0
7.948101404E0,1.510170221E0,-8.521439433E-1,-9.745667458E0
7.957814841E0,1.505384564E0,-8.425726891E-1,-9.771988869E0
7.967529164E0,1.536491275E0,-8.138588071E-1,-9.819845200E0
7.977242602E0,1.563111424E0,-8.090731502E-1,-9.853344917E0
7.986955258E0,1.625324726E0,-7.803592682E-1,-9.834201813E0
7.996668695E0,1.625324726E0,-7.468597889E-1,-9.810274124E0
8.006383018E0,1.608574986E0,-7.301099896E-1,-9.769596100E0
8.016096404E0,1.587039590E0,-7.133602500E-1,-9.752845764E0
8.025809112E0,1.579861164E0,-7.277171612E-1,-9.769596100E0
8.035522549E0,1.560718536E0,-7.444669604E-1,-9.762416840E0
8.045236872E0,1.558026671E0,-7.540382147E-1,-9.719346046E0
8.054950310E0,1.565504193E0,-7.636095285E-1,-9.673882484E0
8.064662966E0,1.582253933E0,-7.564310431E-1,-9.654740334E0
8.074376508E0,1.599003673E0,-7.540382147E-1,-9.673882484E0
8.084090727E0,1.570289850E0,-7.540382147E-1,-9.700203896E0
8.093804164E0,1.548455358E0,-7.588238716E-1,-9.740881920E0
8.103516820E0,1.531705618E0,-7.683951855E-1,-9.786345482E0
8.113230362E0,1.500598907E0,-7.779664397E-1,-9.817452431E0
8.122944581E0,1.486241937E0,-7.779664397E-1,-9.846165657E0
8.132658018E0,1.507777333E0,-7.731808424E-1,-9.850952148E0
8.142370674E0,1.512562990E0,-7.731808424E-1,-9.822237968E0
8.152084216E0,1.522134304E0,-7.923234105E-1,-9.776774406E0
8.161798435E0,1.531705618E0,-7.899305820E-1,-9.726525307E0
8.171511872E0,1.524527073E0,-7.899305820E-1,-9.709774971E0
8.181224529E0,1.519741535E0,-7.731808424E-1,-9.690632820E0
8.190938070E0,1.538884044E0,-7.707880139E-1,-9.700203896E0
8.200652289E0,1.560718536E0,-7.779664397E-1,-9.709774971E0
8.210365727E0,1.567897081E0,-7.564310431E-1,-9.748060226E0
8.220078383E0,1.589432478E0,-7.731808424E-1,-9.776774406E0
8.229791924E0,1.589432478E0,-7.707880139E-1,-9.817452431E0
8.239506143E0,1.582253933E0,-7.755736113E-1,-9.846165657E0
8.249219581E0,1.582253933E0,-7.755736113E-1,-9.822237968E0
8.258932237E0,1.579861164E0,-7.731808424E-1,-9.807881355E0
8.268645779E0,1.589432478E0,-7.731808424E-1,-9.771988869E0
8.278359997E0,1.591825247E0,-7.564310431E-1,-9.745667458E0
8.288073435E0,1.603789330E0,-7.516453862E-1,-9.707382202E0
8.297786091E0,1.601396561E0,-7.325028181E-1,-9.697811127E0
8.307499633E0,1.594218135E0,-7.301099896E-1,-9.726525307E0
8.317213852E0,1.565504193E0,-7.277171612E-1,-9.767203331E0
8.326927289E0,1.546062589E0,-7.444669604E-1,-9.791131020E0
8.336639945E0,1.543669701E0,-7.588238716E-1,-9.800702095E0
8.346353487E0,1.529312730E0,-7.660023570E-1,-9.781559944E0
8.356067706E0,1.524527073E0,-7.899305820E-1,-9.793523788E0
8.365781143E0,1.512562990E0,-7.995018363E-1,-9.764810562E0
8.375493799E0,1.522134304E0,-7.971090674E-1,-9.764810562E0
8.385207341E0,1.541276932E0,-7.875377536E-1,-9.776774406E0
8.394921560E0,1.558026671E0,-7.851449251E-1,-9.762416840E0
8.404634997E0,1.548455358E0,-7.683951855E-1,-9.760024071E0
8.414347654E0,1.548455358E0,-7.516453862E-1,-9.767203331E0
8.424061195E0,1.553241014E0,-7.420741320E-1,-9.776774406E0
8.433775466E0,1.550848126E0,-7.325028181E-1,-9.795916557E0
8.443488852E0,1.538884044E0,-7.229315639E-1,-9.779167175E0
8.453201560E0,1.541276932E0,-7.325028181E-1,-9.760024071E0
8.462914997E0,1.541276932E0,-7.588238716E-1,-9.740881920E0
8.472629320E0,1.536491275E0,-7.947162390E-1,-9.733703613E0
8.482342706E0,1.529312730E0,-8.401798606E-1,-9.743274689E0
8.492055414E0,1.524527073E0,-8.593224287E-1,-9.745667458E0
8.501768852E0,1.541276932E0,-8.521439433E-1,-9.771988869E0
8.511483174E0,1.560718536E0,-8.258228898E-1,-9.807881355E0
8.521196560E0,1.575075507E0,-7.827520967E-1,-9.838987350E0
8.530909268E0,1.587039590E0,-7.444669604E-1,-9.817452431E0
8.540622706E0,1.582253933E0,-7.061817646E-1,-9.779167175E0
8.550337029E0,1.582253933E0,-6.822535396E-1,-9.748060226E0
8.560050414E0,1.570289850E0,-6.870391965E-1,-9.733703613E0
8.569763122E0,1.558026671E0,-6.918248534E-1,-9.736096382E0
8.579476560E0,1.558026671E0,-7.157530785E-1,-9.743274689E0
8.589190883E0,1.572682738E0,-7.372884750E-1,-9.745667458E0
8.598904268E0,1.572682738E0,-7.516453862E-1,-9.733703613E0
8.608616977E0,1.577468276E0,-7.540382147E-1,-9.719346046E0
8.618330414E0,1.599003673E0,-7.731808424E-1,-9.726525307E0
8.628044737E0,1.584646821E0,-7.683951855E-1,-9.752845764E0
8.637758122E0,1.565504193E0,-7.851449251E-1,-9.771988869E0
8.647470831E0,1.538884044E0,-7.851449251E-1,-9.798309326E0
8.657184268E0,1.502991676E0,-7.827520967E-1,-9.817452431E0
8.666898591E0,1.519741535E0,-7.779664397E-1,-9.805487633E0
8.676612029E0,1.548455358E0,-7.827520967E-1,-9.786345482E0
8.686324685E0,1.587039590E0,-7.923234105E-1,-9.760024071E0
8.696038122E0,1.584646821E0,-7.875377536E-1,-9.750452995E0
8.705752445E0,1.548455358E0,-7.923234105E-1,-9.757631302E0
8.715465883E0,1.512562990E0,-8.018946648E-1,-9.731310844E0
8.725178539E0,1.514955878E0,-7.923234105E-1,-9.733703613E0
8.734892081E0,1.505384564E0,-7.707880139E-1,-9.743274689E0
8.744606299E0,1.517348647E0,-7.731808424E-1,-9.757631302E0
8.754319737E0,1.543669701E0,-7.660023570E-1,-9.762416840E0
8.764032393E0,1.567897081E0,-7.564310431E-1,-9.776774406E0
8.773745935E0,1.575075507E0,-7.540382147E-1,-9.779167175E0
8.783460154E0,1.577468276E0,-7.516453862E-1,-9.805487633E0
8.793173591E0,1.577468276E0,-7.612167001E-1,-9.793523788E0
8.802886247E0,1.582253933E0,-7.636095285E-1,-9.786345482E0
8.812599789E0,1.555633783E0,-7.540382147E-1,-9.776774406E0
8.822314008E0,1.548455358E0,-7.516453862E-1,-9.776774406E0
8.832027445E0,1.546062589E0,-7.516453862E-1,-9.771988869E0
8.841740102E0,1.560718536E0,-7.325028181E-1,-9.771988869E0
8.851453643E0,1.567897081E0,-7.301099896E-1,-9.748060226E0
8.861167862E0,1.577468276E0,-7.348956466E-1,-9.740881920E0
8.870881299E0,1.587039590E0,-7.253243923E-1,-9.731310844E0
8.880593956E0,1.589432478E0,-7.348956466E-1,-9.743274689E0
8.890307497E0,1.579861164E0,-7.468597889E-1,-9.755238533E0
8.900021768E0,1.553241014E0,-7.660023570E-1,-9.771988869E0
8.909735154E0,1.548455358E0,-7.779664397E-1,-9.767203331E0
8.919447810E0,1.548455358E0,-7.851449251E-1,-9.776774406E0
8.929161352E0,1.536491275E0,-8.090731502E-1,-9.776774406E0
8.938875622E0,1.543669701E0,-8.114659786E-1,-9.795916557E0
8.948589008E0,1.546062589E0,-8.042874932E-1,-9.803094864E0
8.958301716E0,1.560718536E0,-7.779664397E-1,-9.793523788E0
8.968015154E0,1.546062589E0,-7.588238716E-1,-9.786345482E0
8.977729477E0,1.541276932E0,-7.420741320E-1,-9.764810562E0
8.987442862E0,1.536491275E0,-7.253243923E-1,-9.736096382E0
8.997155570E0,1.538884044E0,-7.277171612E-1,-9.731310844E0
9.006869008E0,1.526919961E0,-7.277171612E-1,-9.743274689E0
9.016583331E0,1.498206019E0,-7.612167001E-1,-9.767203331E0
9.026296716E0,1.488634825E0,-8.066803217E-1,-9.779167175E0
9.036009424E0,1.502991676E0,-8.258228898E-1,-9.786345482E0
9.045722862E0,1.536491275E0,-8.353942037E-1,-9.776774406E0
9.055437185E0,1.575075507E0,-8.138588071E-1,-9.810274124E0
9.065150622E0,1.591825247E0,-7.971090674E-1,-9.803094864E0
9.074863279E0,1.618146300E0,-7.803592682E-1,-9.771988869E0
9.084576820E0,1.646860242E0,-7.516453862E-1,-9.731310844E0
9.094291039E0,1.622931957E0,-7.301099896E-1,-9.736096382E0
9.104004477E0,1.599003673E0,-7.205387354E-1,-9.740881920E0
9.113717133E0,1.575075507E0,-7.133602500E-1,-9.752845764E0
9.123430674E0,1.575075507E0,-7.205387354E-1,-9.781559944E0
9.133144893E0,1.541276932E0,-7.301099896E-1,-9.795916557E0
9.142858331E0,1.531705618E0,-7.277171612E-1,-9.788738251E0
9.152570987E0,1.522134304E0,-7.420741320E-1,-9.771988869E0
9.162284529E0,1.543669701E0,-7.540382147E-1,-9.752845764E0
9.171998799E0,1.555633783E0,-7.588238716E-1,-9.719346046E0
9.181712185E0,1.577468276E0,-7.731808424E-1,-9.721739769E0
9.191424893E0,1.575075507E0,-7.851449251E-1,-9.750452995E0
9.201138331E0,1.572682738E0,-7.731808424E-1,-9.783952713E0
9.210852654E0,1.563111424E0,-7.707880139E-1,-9.788738251E0
9.220566039E0,1.529312730E0,-7.636095285E-1,-9.788738251E0
9.230278747E0,1.522134304E0,-7.731808424E-1,-9.752845764E0
9.239992185E0,1.522134304E0,-7.971090674E-1,-9.767203331E0
9.249706508E0,1.534098387E0,-8.066803217E-1,-9.793523788E0
9.259419945E0,1.507777333E0,-7.971090674E-1,-9.791131020E0
9.269132602E0,1.464706540E0,-7.683951855E-1,-9.764810562E0
9.278846039E0,1.464706540E0,-7.636095285E-1,-9.752845764E0
9.288560362E0,1.493420482E0,-7.899305820E-1,-9.774381638E0
9.298273799E0,1.543669701E0,-7.707880139E-1,-9.805487633E0
9.307986456E0,1.596610904E0,-7.851449251E-1,-9.795916557E0
9.317699997E0,1.649253011E0,-7.875377536E-1,-9.760024071E0
9.327414216E0,1.661217093E0,-7.803592682E-1,-9.748060226E0
9.337127654E0,1.639681697E0,-7.731808424E-1,-9.740881920E0
9.346840310E0,1.610967875E0,-7.588238716E-1,-9.767203331E0
9.356553852E0,1.591825247E0,-7.540382147E-1,-9.788738251E0
9.366268122E0,1.567897081E0,-7.372884750E-1,-9.805487633E0
9.375981508E0,1.572682738E0,-7.277171612E-1,-9.783952713E0
9.385694216E0,1.575075507E0,-7.181459069E-1,-9.764810562E0
9.395407654E0,1.550848126E0,-7.181459069E-1,-9.743274689E0
9.405121977E0,1.531705618E0,-7.301099896E-1,-9.743274689E0
9.414835362E0,1.514955878E0,-7.564310431E-1,-9.738489151E0
9.424548070E0,1.524527073E0,-7.707880139E-1,-9.733703613E0
9.434261508E0,1.524527073E0,-7.779664397E-1,-9.743274689E0
9.443975831E0,1.524527073E0,-7.731808424E-1,-9.774381638E0
9.453689268E0,1.543669701E0,-7.707880139E-1,-9.805487633E0
9.463401924E0,1.572682738E0,-7.923234105E-1,-9.824630737E0
9.473115466E0,1.570289850E0,-7.971090674E-1,-9.819845200E0
9.482829685E0,1.565504193E0,-7.803592682E-1,-9.815059662E0
9.492543122E0,1.563111424E0,-7.707880139E-1,-9.791131020E0
9.502255779E0,1.538884044E0,-7.516453862E-1,-9.752845764E0
9.511969320E0,1.526919961E0,-7.277171612E-1,-9.719346046E0
9.521683591E0,1.534098387E0,-7.396813035E-1,-9.721739769E0
9.531396977E0,1.560718536E0,-7.277171612E-1,-9.719346046E0
9.541109685E0,1.555633783E0,-7.301099896E-1,-9.716953278E0
9.550823122E0,1.543669701E0,-7.707880139E-1,-9.743274689E0
9.560537445E0,1.512562990E0,-7.827520967E-1,-9.776774406E0
9.570250831E0,1.498206019E0,-8.018946648E-1,-9.810274124E0
9.579963539E0,1.495813251E0,-8.306085467E-1,-9.807881355E0
9.589677081E0,1.534098387E0,-8.162516356E-1,-9.815059662E0
9.599391299E0,1.563111424E0,-8.162516356E-1,-9.827023506E0
9.609104737E0,1.577468276E0,-8.186444640E-1,-9.836594582E0
9.618817393E0,1.563111424E0,-7.851449251E-1,-9.795916557E0
9.628530935E0,1.560718536E0,-7.492526174E-1,-9.769596100E0
9.638245206E0,1.560718536E0,-7.157530785E-1,-9.743274689E0
9.647958591E0,1.565504193E0,-7.157530785E-1,-9.721739769E0
9.657671299E0,1.606182218E0,-7.109674215E-1,-9.702596664E0
9.667384737E0,1.596610904E0,-7.157530785E-1,-9.745667458E0
9.677099060E0,1.603789330E0,-7.253243923E-1,-9.762416840E0
9.686812445E0,1.594218135E0,-7.516453862E-1,-9.748060226E0
9.696525154E0,1.591825247E0,-7.540382147E-1,-9.743274689E0
9.706238591E0,1.577468276E0,-7.660023570E-1,-9.740881920E0
9.715952914E0,1.560718536E0,-7.683951855E-1,-9.743274689E0
9.725666352E0,1.536491275E0,-7.588238716E-1,-9.764810562E0
9.735379008E0,1.524527073E0,-7.683951855E-1,-9.762416840E0
9.745092549E0,1.531705618E0,-7.636095285E-1,-9.769596100E0
9.754806820E0,1.538884044E0,-7.707880139E-1,-9.774381638E0
9.764520206E0,1.567897081E0,-7.899305820E-1,-9.776774406E0
9.774232862E0,1.560718536E0,-7.779664397E-1,-9.779167175E0
9.783946404E0,1.546062589E0,-7.803592682E-1,-9.776774406E0
9.793660674E0,1.538884044E0,-8.018946648E-1,-9.769596100E0
9.803374060E0,1.534098387E0,-8.138588071E-1,-9.752845764E0
9.813086768E0,1.517348647E0,-8.162516356E-1,-9.769596100E0
9.822800206E0,1.507777333E0,-7.779664397E-1,-9.769596100E0
9.832514529E0,1.510170221E0,-7.755736113E-1,-9.769596100E0
9.842227966E0,1.541276932E0,-7.540382147E-1,-9.745667458E0
9.851940622E0,1.558026671E0,-7.660023570E-1,-9.731310844E0
9.861654164E0,1.572682738E0,-7.540382147E-1,-9.733703613E0
9.871368435E0,1.591825247E0,-7.516453862E-1,-9.731310844E0
9.881081820E0,1.582253933E0,-7.468597889E-1,-9.769596100E0
9.890794477E0,1.567897081E0,-7.444669604E-1,-9.779167175E0
9.900508018E0,1.558026671E0,-7.468597889E-1,-9.810274124E0
9.910222289E0,1.553241014E0,-7.588238716E-1,-9.822237968E0
9.919935674E0,1.567897081E0,-7.564310431E-1,-9.803094864E0
9.929648383E0,1.577468276E0,-7.492526174E-1,-9.786345482E0
9.939361820E0,1.575075507E0,-7.516453862E-1,-9.750452995E0
9.949076143E0,1.560718536E0,-7.444669604E-1,-9.731310844E0
9.958789581E0,1.563111424E0,-7.325028181E-1,-9.709774971E0
9.968502237E0,1.567897081E0,-7.636095285E-1,-9.700203896E0
9.978215779E0,1.579861164E0,-7.755736113E-1,-9.712167740E0
9.987929997E0,1.572682738E0,-7.899305820E-1,-9.726525307E0
9.997643435E0,1.550848126E0,-7.923234105E-1,-9.776774406E0
1.000735609E1,1.538884044E0,-7.923234105E-1,-9.834201813E0
1.001706963E1,1.541276932E0,-7.827520967E-1,-9.843772888E0
1.002678390E1,1.550848126E0,-7.707880139E-1,-9.824630737E0
1.003649729E1,1.579861164E0,-7.707880139E-1,-9.800702095E0
1.004621000E1,1.579861164E0,-7.540382147E-1,-9.776774406E0
1.005592344E1,1.560718536E0,-7.277171612E-1,-9.738489151E0
1.006563776E1,1.560718536E0,-7.205387354E-1,-9.726525307E0
1.007535120E1,1.538884044E0,-7.253243923E-1,-9.693025589E0
1.008506385E1,1.529312730E0,-7.444669604E-1,-9.697811127E0
1.009477739E1,1.505384564E0,-7.731808424E-1,-9.728918076E0
1.010449161E1,1.500598907E0,-7.947162390E-1,-9.757631302E0
1.011420505E1,1.498206019E0,-8.018946648E-1,-9.788738251E0
1.012391771E1,1.531705618E0,-8.090731502E-1,-9.812666893E0
1.013363125E1,1.563111424E0,-7.971090674E-1,-9.815059662E0
1.014334552E1,1.577468276E0,-7.851449251E-1,-9.798309326E0
1.015305890E1,1.579861164E0,-7.683951855E-1,-9.762416840E0
1.016277161E1,1.567897081E0,-7.444669604E-1,-9.750452995E0
1.017248505E1,1.555633783E0,-7.348956466E-1,-9.748060226E0
1.018219937E1,1.558026671E0,-7.468597889E-1,-9.757631302E0
1.019191281E1,1.553241014E0,-7.444669604E-1,-9.781559944E0
1.020162547E1,1.560718536E0,-7.420741320E-1,-9.800702095E0
1.021133901E1,1.543669701E0,-7.396813035E-1,-9.774381638E0
1.022105323E1,1.558026671E0,-7.348956466E-1,-9.757631302E0
1.023076666E1,1.555633783E0,-7.372884750E-1,-9.743274689E0
1.024047932E1,1.543669701E0,-7.372884750E-1,-9.704989433E0
1.025019286E1,1.553241014E0,-7.396813035E-1,-9.700203896E0
1.025990713E1,1.560718536E0,-7.420741320E-1,-9.697811127E0
1.026962052E1,1.567897081E0,-7.492526174E-1,-9.719346046E0
1.027933323E1,1.570289850E0,-7.612167001E-1,-9.750452995E0
1.028904666E1,1.577468276E0,-7.707880139E-1,-9.791131020E0
1.029876099E1,1.577468276E0,-7.923234105E-1,-9.829416275E0
1.030847437E1,1.567897081E0,-7.851449251E-1,-9.848558426E0
1.031818708E1,1.560718536E0,-7.851449251E-1,-9.815059662E0
1.032790052E1,1.553241014E0,-8.018946648E-1,-9.764810562E0
1.033761484E1,1.570289850E0,-7.875377536E-1,-9.728918076E0
1.034732828E1,1.582253933E0,-7.827520967E-1,-9.702596664E0
1.035704094E1,1.577468276E0,-7.731808424E-1,-9.704989433E0
1.036675448E1,1.570289850E0,-7.588238716E-1,-9.697811127E0
1.037646870E1,1.589432478E0,-7.588238716E-1,-9.695418358E0
1.038618213E1,1.589432478E0,-7.540382147E-1,-9.709774971E0
1.039589479E1,1.563111424E0,-7.636095285E-1,-9.728918076E0
1.040560833E1,1.510170221E0,-7.444669604E-1,-9.786345482E0
1.041532260E1,1.493420482E0,-7.396813035E-1,-9.831809044E0
1.042503599E1,1.493420482E0,-7.396813035E-1,-9.834201813E0
1.043474870E1,1.510170221E0,-7.516453862E-1,-9.831809044E0
1.044446213E1,1.534098387E0,-7.516453862E-1,-9.807881355E0
1.045417646E1,1.550848126E0,-7.492526174E-1,-9.776774406E0
1.046388984E1,1.577468276E0,-7.492526174E-1,-9.762416840E0
1.047360255E1,1.591825247E0,-7.564310431E-1,-9.721739769E0
1.048331599E1,1.601396561E0,-7.540382147E-1,-9.704989433E0
1.049303031E1,1.618146300E0,-7.492526174E-1,-9.709774971E0
1.050274375E1,1.618146300E0,-7.540382147E-1,-9.716953278E0
1.051245640E1,1.594218135E0,-7.492526174E-1,-9.731310844E0
1.052216994E1,1.553241014E0,-7.636095285E-1,-9.755238533E0
1.053188416E1,1.534098387E0,-7.707880139E-1,-9.786345482E0
1.054159760E1,1.512562990E0,-7.707880139E-1,-9.788738251E0
1.055131026E1,1.514955878E0,-7.803592682E-1,-9.781559944E0
1.056102380E1,1.538884044E0,-7.755736113E-1,-9.774381638E0
1.057073802E1,1.558026671E0,-7.636095285E-1,-9.740881920E0
1.058045146E1,1.567897081E0,-7.444669604E-1,-9.750452995E0
1.059016411E1,1.584646821E0,-7.396813035E-1,-9.769596100E0
1.059987765E1,1.565504193E0,-7.181459069E-1,-9.750452995E0
1.060959192E1,1.572682738E0,-7.181459069E-1,-9.764810562E0
1.061930531E1,1.543669701E0,-7.325028181E-1,-9.764810562E0
1.062901802E1,1.526919961E0,-7.636095285E-1,-9.774381638E0
1.063873146E1,1.498206019E0,-7.995018363E-1,-9.771988869E0
1.064844578E1,1.502991676E0,-8.138588071E-1,-9.743274689E0
1.065815916E1,1.517348647E0,-8.090731502E-1,-9.752845764E0
1.066787187E1,1.563111424E0,-8.018946648E-1,-9.760024071E0
1.067758531E1,1.599003673E0,-7.899305820E-1,-9.779167175E0
1.068729963E1,1.646860242E0,-7.707880139E-1,-9.767203331E0
1.069701307E1,1.634896040E0,-7.612167001E-1,-9.757631302E0
1.070672573E1,1.591825247E0,-7.372884750E-1,-9.779167175E0
1.071643927E1,1.538884044E0,-7.229315639E-1,-9.793523788E0
1.072615349E1,1.522134304E0,-7.181459069E-1,-9.805487633E0
1.073586692E1,1.519741535E0,-7.133602500E-1,-9.774381638E0
1.074557958E1,1.560718536E0,-7.301099896E-1,-9.755238533E0
1.075529312E1,1.589432478E0,-7.348956466E-1,-9.721739769E0
1.076500739E1,1.603789330E0,-7.372884750E-1,-9.700203896E0
1.077472078E1,1.599003673E0,-7.420741320E-1,-9.688240051E0
1.078443344E1,1.596610904E0,-7.540382147E-1,-9.719346046E0
1.079414698E1,1.582253933E0,-7.612167001E-1,-9.750452995E0
1.080386125E1,1.555633783E0,-7.731808424E-1,-9.786345482E0
1.081357463E1,1.536491275E0,-7.755736113E-1,-9.800702095E0
1.082328734E1,1.502991676E0,-7.755736113E-1,-9.812666893E0
1.083300078E1,1.510170221E0,-7.636095285E-1,-9.815059662E0
1.084271510E1,1.524527073E0,-7.564310431E-1,-9.783952713E0
1.085242849E1,1.548455358E0,-7.588238716E-1,-9.745667458E0
1.086214120E1,1.563111424E0,-7.779664397E-1,-9.716953278E0
1.087185463E1,1.579861164E0,-7.875377536E-1,-9.721739769E0
1.088156896E1,1.560718536E0,-7.947162390E-1,-9.726525307E0
1.089128234E1,1.548455358E0,-7.779664397E-1,-9.738489151E0
1.090099505E1,1.560718536E0,-7.707880139E-1,-9.771988869E0
1.091070849E1,1.558026671E0,-7.779664397E-1,-9.776774406E0
1.092042281E1,1.567897081E0,-7.779664397E-1,-9.750452995E0
1.093013625E1,1.563111424E0,-7.683951855E-1,-9.738489151E0
1.093984890E1,1.563111424E0,-7.444669604E-1,-9.731310844E0
1.094956245E1,1.565504193E0,-7.444669604E-1,-9.752845764E0
1.095927666E1,1.572682738E0,-7.444669604E-1,-9.767203331E0
1.096899010E1,1.572682738E0,-7.468597889E-1,-9.779167175E0
1.097870276E1,1.577468276E0,-7.468597889E-1,-9.793523788E0
1.098841630E1,1.589432478E0,-7.516453862E-1,-9.803094864E0
1.099813052E1,1.577468276E0,-7.588238716E-1,-9.783952713E0
1.100784396E1,1.558026671E0,-7.564310431E-1,-9.771988869E0
1.101755661E1,1.565504193E0,-7.588238716E-1,-9.728918076E0
1.102727015E1,1.553241014E0,-7.420741320E-1,-9.707382202E0
1.103698437E1,1.558026671E0,-7.540382147E-1,-9.719346046E0
1.104669781E1,1.536491275E0,-7.444669604E-1,-9.714560509E0
1.105641047E1,1.536491275E0,-7.492526174E-1,-9.769596100E0
1.106612401E1,1.536491275E0,-7.588238716E-1,-9.791131020E0
1.107583823E1,1.546062589E0,-7.683951855E-1,-9.791131020E0
1.108555166E1,1.553241014E0,-7.779664397E-1,-9.786345482E0
1.109526432E1,1.565504193E0,-7.851449251E-1,-9.793523788E0
1.110497786E1,1.560718536E0,-7.851449251E-1,-9.803094864E0
1.111469208E1,1.560718536E0,-7.875377536E-1,-9.774381638E0
1.112440552E1,1.560718536E0,-7.683951855E-1,-9.743274689E0
1.113411817E1,1.575075507E0,-7.660023570E-1,-9.709774971E0
1.114383172E1,1.591825247E0,-7.396813035E-1,-9.738489151E0
1.115354594E1,1.596610904E0,-7.277171612E-1,-9.752845764E0
1.116325937E1,1.577468276E0,-7.205387354E-1,-9.750452995E0
1.117297203E1,1.572682738E0,-7.181459069E-1,-9.736096382E0
1.118268557E1,1.558026671E0,-7.468597889E-1,-9.712167740E0
1.119239979E1,1.536491275E0,-7.875377536E-1,-9.721739769E0
1.120211323E1,1.519741535E0,-8.210372925E-1,-9.755238533E0
1.121182588E1,1.507777333E0,-8.377870321E-1,-9.774381638E0
1.122153942E1,1.510170221E0,-8.258228898E-1,-9.771988869E0
1.123125364E1,1.538884044E0,-8.018946648E-1,-9.779167175E0
1.124096708E1,1.565504193E0,-7.827520967E-1,-9.783952713E0
1.125067974E1,1.599003673E0,-7.636095285E-1,-9.764810562E0
1.126039328E1,1.599003673E0,-7.468597889E-1,-9.748060226E0
1.127010750E1,1.587039590E0,-7.157530785E-1,-9.762416840E0
1.127982094E1,1.565504193E0,-7.109674215E-1,-9.767203331E0
1.128953359E1,1.536491275E0,-6.990033388E-1,-9.803094864E0
1.129924713E1,1.500598907E0,-7.133602500E-1,-9.798309326E0
1.130896135E1,1.519741535E0,-7.325028181E-1,-9.788738251E0
1.131867479E1,1.565504193E0,-7.564310431E-1,-9.757631302E0
1.132838744E1,1.606182218E0,-7.564310431E-1,-9.721739769E0
1.133810099E1,1.620539188E0,-7.731808424E-1,-9.724132538E0
1.134781521E1,1.618146300E0,-7.827520967E-1,-9.724132538E0
1.135752864E1,1.615753531E0,-7.827520967E-1,-9.719346046E0
1.136724130E1,1.599003673E0,-7.827520967E-1,-9.736096382E0
1.137695484E1,1.575075507E0,-7.612167001E-1,-9.733703613E0
1.138666906E1,1.563111424E0,-7.516453862E-1,-9.738489151E0
1.139638250E1,1.570289850E0,-7.444669604E-1,-9.736096382E0
1.140609515E1,1.577468276E0,-7.612167001E-1,-9.755238533E0
1.141580870E1,1.567897081E0,-7.971090674E-1,-9.769596100E0
1.142552291E1,1.526919961E0,-8.114659786E-1,-9.791131020E0
1.143523635E1,1.512562990E0,-8.162516356E-1,-9.788738251E0
1.144494901E1,1.500598907E0,-8.138588071E-1,-9.774381638E0
1.145466255E1,1.512562990E0,-8.042874932E-1,-9.750452995E0
1.146437677E1,1.524527073E0,-7.923234105E-1,-9.750452995E0
1.147409021E1,1.543669701E0,-7.875377536E-1,-9.752845764E0
1.148380286E1,1.546062589E0,-7.588238716E-1,-9.764810562E0
1.149351640E1,1.548455358E0,-7.516453862E-1,-9.776774406E0
1.150323062E1,1.543669701E0,-7.420741320E-1,-9.774381638E0
1.151294406E1,1.543669701E0,-7.277171612E-1,-9.762416840E0
1.152265672E1,1.567897081E0,-7.420741320E-1,-9.771988869E0
1.153237015E1,1.587039590E0,-7.396813035E-1,-9.771988869E0
1.154208448E1,1.584646821E0,-7.277171612E-1,-9.771988869E0
1.155179786E1,1.591825247E0,-7.348956466E-1,-9.752845764E0
1.156151057E1,1.589432478E0,-7.444669604E-1,-9.733703613E0
1.157122401E1,1.601396561E0,-7.348956466E-1,-9.728918076E0
1.158093833E1,1.603789330E0,-7.564310431E-1,-9.748060226E0
1.159065172E1,1.579861164E0,-7.660023570E-1,-9.767203331E0
1.160036442E1,1.567897081E0,-7.612167001E-1,-9.776774406E0
1.161007786E1,1.567897081E0,-7.612167001E-1,-9.771988869E0
1.161979219E1,1.570289850E0,-7.612167001E-1,-9.788738251E0
1.162950557E1,1.546062589E0,-7.731808424E-1,-9.767203331E0
1.163921828E1,1.538884044E0,-7.660023570E-1,-9.783952713E0
1.164893172E1,1.526919961E0,-7.731808424E-1,-9.760024071E0
1.165864604E1,1.538884044E0,-7.779664397E-1,-9.731310844E0
1.166835942E1,1.522134304E0,-7.803592682E-1,-9.728918076E0
1.167807208E1,1.519741535E0,-7.875377536E-1,-9.724132538E0
1.168778562E1,1.502991676E0,-7.683951855E-1,-9.743274689E0
1.169749984E1,1.505384564E0,-7.731808424E-1,-9.755238533E0
1.170721328E1,1.512562990E0,-7.636095285E-1,-9.750452995E0
1.171692594E1,1.538884044E0,-7.540382147E-1,-9.771988869E0
1.172663948E1,1.565504193E0,-7.396813035E-1,-9.788738251E0
1.173635370E1,1.596610904E0,-7.516453862E-1,-9.793523788E0
1.174606713E1,1.606182218E0,-7.540382147E-1,-9.788738251E0
1.175577979E1,1.601396561E0,-7.540382147E-1,-9.774381638E0
1.176549333E1,1.567897081E0,-7.827520967E-1,-9.764810562E0
1.177520755E1,1.563111424E0,-8.018946648E-1,-9.767203331E0
1.178492094E1,1.555633783E0,-8.162516356E-1,-9.779167175E0
1.179463364E1,1.541276932E0,-8.042874932E-1,-9.752845764E0
1.180434708E1,1.565504193E0,-7.923234105E-1,-9.752845764E0
1.181406140E1,1.591825247E0,-7.731808424E-1,-9.745667458E0
1.182377479E1,1.601396561E0,-7.540382147E-1,-9.733703613E0
1.183348750E1,1.577468276E0,-7.205387354E-1,-9.733703613E0
1.184320094E1,1.546062589E0,-6.942176819E-1,-9.736096382E0
1.185291526E1,1.526919961E0,-6.942176819E-1,-9.740881920E0
1.186262864E1,1.529312730E0,-7.133602500E-1,-9.771988869E0
1.187234130E1,1.541276932E0,-7.372884750E-1,-9.810274124E0
1.188205484E1,1.548455358E0,-7.612167001E-1,-9.800702095E0
1.189176906E1,1.565504193E0,-7.588238716E-1,-9.774381638E0
1.190148250E1,1.548455358E0,-7.636095285E-1,-9.733703613E0
1.191119515E1,1.572682738E0,-7.612167001E-1,-9.721739769E0
1.192090870E1,1.575075507E0,-7.588238716E-1,-9.693025589E0
1.193062291E1,1.570289850E0,-7.564310431E-1,-9.681061745E0
1.194033635E1,1.546062589E0,-7.564310431E-1,-9.690632820E0
1.195004901E1,1.538884044E0,-7.564310431E-1,-9.724132538E0
1.195976244E1,1.514955878E0,-7.540382147E-1,-9.786345482E0
1.196947677E1,1.524527073E0,-7.564310431E-1,-9.846165657E0
1.197919015E1,1.536491275E0,-7.683951855E-1,-9.860523224E0
1.198890286E1,1.555633783E0,-7.803592682E-1,-9.824630737E0
1.199861630E1,1.577468276E0,-8.042874932E-1,-9.764810562E0
1.200833062E1,1.584646821E0,-8.162516356E-1,-9.728918076E0
1.201804401E1,1.563111424E0,-8.138588071E-1,-9.707382202E0
1.202775666E1,1.565504193E0,-7.851449251E-1,-9.702596664E0
1.203747021E1,1.560718536E0,-7.683951855E-1,-9.704989433E0
1.204718442E1,1.582253933E0,-7.540382147E-1,-9.707382202E0
1.205689786E1,1.591825247E0,-7.612167001E-1,-9.726525307E0
1.206661052E1,1.579861164E0,-7.516453862E-1,-9.774381638E0
1.207632396E1,1.560718536E0,-7.468597889E-1,-9.781559944E0
1.208603828E1,1.541276932E0,-7.516453862E-1,-9.803094864E0
1.209575166E1,1.529312730E0,-7.612167001E-1,-9.812666893E0
1.210546437E1,1.534098387E0,-7.564310431E-1,-9.803094864E0
1.211517781E1,1.546062589E0,-7.325028181E-1,-9.786345482E0
1.212489213E1,1.558026671E0,-7.492526174E-1,-9.752845764E0
1.213460552E1,1.591825247E0,-7.468597889E-1,-9.731310844E0
1.214431817E1,1.601396561E0,-7.516453862E-1,-9.724132538E0
1.215403172E1,1.599003673E0,-7.683951855E-1,-9.740881920E0
1.216374594E1,1.584646821E0,-7.516453862E-1,-9.743274689E0
1.217345937E1,1.577468276E0,-7.492526174E-1,-9.745667458E0
1.218317203E1,1.558026671E0,-7.516453862E-1,-9.733703613E0
1.219288547E1,1.577468276E0,-7.540382147E-1,-9.738489151E0
1.220259979E1,1.577468276E0,-7.564310431E-1,-9.760024071E0
1.221231317E1,1.555633783E0,-7.420741320E-1,-9.788738251E0
1.222202588E1,1.531705618E0,-7.516453862E-1,-9.791131020E0
1.223173932E1,1.507777333E0,-7.516453862E-1,-9.786345482E0
1.224145364E1,1.512562990E0,-7.660023570E-1,-9.769596100E0
1.225116703E1,1.507777333E0,-7.755736113E-1,-9.743274689E0
1.226087968E1,1.546062589E0,-7.827520967E-1,-9.740881920E0
1.227059323E1,1.546062589E0,-7.683951855E-1,-9.764810562E0
1.228030744E1,1.529312730E0,-7.540382147E-1,-9.760024071E0
1.229002088E1,1.512562990E0,-7.372884750E-1,-9.748060226E0
1.229973354E1,1.526919961E0,-7.085745931E-1,-9.736096382E0
1.230944698E1,1.546062589E0,-7.181459069E-1,-9.745667458E0
1.231916130E1,1.553241014E0,-7.325028181E-1,-9.755238533E0
1.232887468E1,1.519741535E0,-7.492526174E-1,-9.776774406E0
1.233858739E1,1.505384564E0,-7.707880139E-1,-9.793523788E0
1.234830083E1,1.500598907E0,-8.042874932E-1,-9.783952713E0
1.235801515E1,1.526919961E0,-8.138588071E-1,-9.779167175E0
1.236772854E1,1.575075507E0,-8.162516356E-1,-9.752845764E0
1.237744120E1,1.622931957E0,-8.090731502E-1,-9.771988869E0
1.238715463E1,1.642074585E0,-7.875377536E-1,-9.769596100E0
1.239686896E1,1.627717614E0,-7.827520967E-1,-9.769596100E0
1.240658234E1,1.591825247E0,-7.420741320E-1,-9.760024071E0
1.241629505E1,1.584646821E0,-7.229315639E-1,-9.743274689E0
1.242600849E1,1.572682738E0,-7.157530785E-1,-9.719346046E0
1.243572281E1,1.560718536E0,-7.253243923E-1,-9.750452995E0
1.244543620E1,1.560718536E0,-7.229315639E-1,-9.769596100E0
1.245514885E1,1.560718536E0,-7.348956466E-1,-9.779167175E0
1.246486239E1,1.577468276E0,-7.468597889E-1,-9.769596100E0
1.247457661E1,1.589432478E0,-7.588238716E-1,-9.731310844E0
1.248429005E1,1.591825247E0,-7.636095285E-1,-9.719346046E0
1.249400271E1,1.577468276E0,-7.588238716E-1,-9.736096382E0
1.250371614E1,1.548455358E0,-7.564310431E-1,-9.755238533E0
1.251343047E1,1.522134304E0,-7.540382147E-1,-9.769596100E0
1.252314385E1,1.507777333E0,-7.564310431E-1,-9.781559944E0
1.253285651E1,1.522134304E0,-7.707880139E-1,-9.786345482E0
1.254257005E1,1.546062589E0,-7.636095285E-1,-9.786345482E0
1.255228427E1,1.570289850E0,-7.540382147E-1,-9.781559944E0
1.256199771E1,1.575075507E0,-7.683951855E-1,-9.764810562E0
1.257171036E1,1.555633783E0,-7.636095285E-1,-9.743274689E0
1.258142380E1,1.541276932E0,-7.636095285E-1,-9.714560509E0
1.259113812E1,1.543669701E0,-7.755736113E-1,-9.700203896E0
1.260085151E1,1.534098387E0,-7.612167001E-1,-9.709774971E0
1.261056422E1,1.526919961E0,-7.636095285E-1,-9.743274689E0
1.262027765E1,1.524527073E0,-7.540382147E-1,-9.786345482E0
1.262999192E1,1.526919961E0,-7.468597889E-1,-9.793523788E0
1.263970536E1,1.541276932E0,-7.540382147E-1,-9.786345482E0
1.264941802E1,1.548455358E0,-7.444669604E-1,-9.769596100E0
1.265913146E1,1.579861164E0,-7.612167001E-1,-9.748060226E0
1.266884578E1,1.570289850E0,-7.540382147E-1,-9.745667458E0
1.267855916E1,1.572682738E0,-7.468597889E-1,-9.745667458E0
1.268827182E1,1.563111424E0,-7.372884750E-1,-9.752845764E0
1.269798536E1,1.565504193E0,-7.277171612E-1,-9.750452995E0
1.270769958E1,1.572682738E0,-7.372884750E-1,-9.755238533E0
1.271741302E1,1.560718536E0,-7.301099896E-1,-9.755238533E0
1.272712567E1,1.550848126E0,-7.516453862E-1,-9.774381638E0
1.273683911E1,1.538884044E0,-7.420741320E-1,-9.769596100E0
1.274655344E1,1.550848126E0,-7.516453862E-1,-9.757631302E0
1.275626682E1,1.546062589E0,-7.636095285E-1,-9.750452995E0
1.276597948E1,1.563111424E0,-7.612167001E-1,-9.731310844E0
1.277569302E1,1.577468276E0,-7.588238716E-1,-9.731310844E0
1.278540724E1,1.589432478E0,-7.803592682E-1,-9.748060226E0
1.279512067E1,1.577468276E0,-7.851449251E-1,-9.757631302E0
1.280483333E1,1.565504193E0,-7.779664397E-1,-9.781559944E0
1.281454677E1,1.555633783E0,-7.827520967E-1,-9.776774406E0
1.282426109E1,1.550848126E0,-7.827520967E-1,-9.795916557E0
1.283397448E1,1.531705618E0,-7.683951855E-1,-9.788738251E0
1.284368713E1,1.524527073E0,-7.612167001E-1,-9.767203331E0
1.285340067E1,1.524527073E0,-7.420741320E-1,-9.755238533E0
1.286311489E1,1.541276932E0,-7.301099896E-1,-9.757631302E0
1.287282828E1,1.560718536E0,-7.229315639E-1,-9.752845764E0
1.288254099E1,1.567897081E0,-7.133602500E-1,-9.740881920E0
1.289225442E1,1.582253933E0,-7.205387354E-1,-9.724132538E0
1.290196875E1,1.550848126E0,-7.516453862E-1,-9.714560509E0
1.291168213E1,1.526919961E0,-7.755736113E-1,-9.738489151E0
1.292139479E1,1.491027594E0,-8.186444640E-1,-9.774381638E0
1.293110833E1,1.486241937E0,-8.186444640E-1,-9.800702095E0
1.294082255E1,1.498206019E0,-7.995018363E-1,-9.807881355E0
1.295053594E1,1.526919961E0,-7.875377536E-1,-9.800702095E0
1.296024859E1,1.558026671E0,-7.707880139E-1,-9.793523788E0
1.296996213E1,1.587039590E0,-7.540382147E-1,-9.774381638E0
1.297967635E1,1.591825247E0,-7.301099896E-1,-9.757631302E0
1.298938979E1,1.575075507E0,-7.085745931E-1,-9.748060226E0
1.299910244E1,1.572682738E0,-7.061817646E-1,-9.733703613E0
1.300881588E1,1.575075507E0,-7.085745931E-1,-9.724132538E0
1.301853021E1,1.563111424E0,-7.181459069E-1,-9.748060226E0
1.302824359E1,1.567897081E0,-7.277171612E-1,-9.762416840E0
1.303795625E1,1.572682738E0,-7.325028181E-1,-9.743274689E0
1.304766979E1,1.567897081E0,-7.588238716E-1,-9.750452995E0
1.305738401E1,1.570289850E0,-7.660023570E-1,-9.743274689E0
1.306709739E1,1.565504193E0,-7.779664397E-1,-9.748060226E0
1.307681010E1,1.560718536E0,-7.755736113E-1,-9.769596100E0
1.308652354E1,1.558026671E0,-7.875377536E-1,-9.771988869E0
1.309623781E1,1.558026671E0,-7.923234105E-1,-9.793523788E0
1.310595125E1,1.560718536E0,-7.803592682E-1,-9.800702095E0
1.311566390E1,1.555633783E0,-7.731808424E-1,-9.815059662E0
1.312537734E1,1.548455358E0,-7.803592682E-1,-9.805487633E0
1.313509166E1,1.529312730E0,-7.971090674E-1,-9.795916557E0
1.314480505E1,1.507777333E0,-8.090731502E-1,-9.769596100E0
1.315451771E1,1.507777333E0,-8.042874932E-1,-9.757631302E0
1.316423125E1,1.483849168E0,-7.995018363E-1,-9.767203331E0
1.317394547E1,1.481456280E0,-7.707880139E-1,-9.769596100E0
1.318365885E1,1.483849168E0,-7.444669604E-1,-9.767203331E0
1.319337156E1,1.512562990E0,-7.301099896E-1,-9.767203331E0
1.320308500E1,1.558026671E0,-7.277171612E-1,-9.755238533E0
1.321279927E1,1.596610904E0,-7.492526174E-1,-9.779167175E0
1.322251271E1,1.639681697E0,-7.779664397E-1,-9.803094864E0
1.323222536E1,1.663609982E0,-7.851449251E-1,-9.810274124E0
1.324193880E1,1.668395638E0,-7.851449251E-1,-9.774381638E0
1.325165312E1,1.644467354E0,-7.995018363E-1,-9.719346046E0
1.326136651E1,1.656431437E0,-7.851449251E-1,-9.704989433E0
1.327107916E1,1.656431437E0,-7.851449251E-1,-9.733703613E0
1.328079271E1,1.651645780E0,-7.588238716E-1,-9.757631302E0
1.329050692E1,1.625324726E0,-7.636095285E-1,-9.795916557E0
1.330022036E1,1.594218135E0,-7.660023570E-1,-9.781559944E0
1.330993302E1,1.572682738E0,-7.564310431E-1,-9.779167175E0
1.331964646E1,1.526919961E0,-7.683951855E-1,-9.760024071E0
1.332936078E1,1.498206019E0,-7.707880139E-1,-9.762416840E0
1.333907416E1,1.462313771E0,-7.755736113E-1,-9.776774406E0
1.334878682E1,1.438385487E0,-7.755736113E-1,-9.791131020E0
1.335850036E1,1.392921925E0,-7.636095285E-1,-9.798309326E0
1.336821458E1,1.380957723E0,-7.564310431E-1,-9.812666893E0
1.337792797E1,1.376172066E0,-7.516453862E-1,-9.803094864E0
1.338764067E1,1.378564954E0,-7.516453862E-1,-9.815059662E0
1.339735411E1,1.361815214E0,-7.444669604E-1,-9.795916557E0
1.340706844E1,1.361815214E0,-7.372884750E-1,-9.779167175E0
1.341678182E1,1.357029557E0,-7.037889361E-1,-9.750452995E0
1.342649448E1,1.390529037E0,-6.750751138E-1,-9.748060226E0
1.343620791E1,1.452742457E0,-6.702894568E-1,-9.752845764E0
1.344592224E1,1.502991676E0,-6.798607111E-1,-9.757631302E0
1.345563562E1,1.570289850E0,-7.061817646E-1,-9.740881920E0
1.346534833E1,1.618146300E0,-7.731808424E-1,-9.745667458E0
1.347506177E1,1.622931957E0,-8.497511148E-1,-9.769596100E0
1.348477604E1,1.620539188E0,-9.000003934E-1,-9.815059662E0
1.349448948E1,1.606182218E0,-9.143573642E-1,-9.824630737E0
1.350420213E1,1.610967875E0,-8.641080856E-1,-9.831809044E0
1.351391557E1,1.627717614E0,-8.377870321E-1,-9.829416275E0
1.352362989E1,1.680359721E0,-8.018946648E-1,-9.795916557E0
1.353334328E1,1.699502230E0,-7.612167001E-1,-9.743274689E0
1.354305594E1,1.685145378E0,-7.372884750E-1,-9.721739769E0
1.355276948E1,1.632503271E0,-7.109674215E-1,-9.719346046E0
1.356248370E1,1.582253933E0,-7.157530785E-1,-9.748060226E0
1.357219713E1,1.546062589E0,-7.348956466E-1,-9.791131020E0
1.358190979E1,1.541276932E0,-7.372884750E-1,-9.831809044E0
1.359162323E1,1.524527073E0,-7.707880139E-1,-9.827023506E0
1.360133755E1,1.538884044E0,-7.827520967E-1,-9.779167175E0
1.361105094E1,1.555633783E0,-7.947162390E-1,-9.743274689E0
1.362076364E1,1.563111424E0,-8.018946648E-1,-9.724132538E0
1.363047708E1,1.565504193E0,-7.995018363E-1,-9.712167740E0
1.364019135E1,1.553241014E0,-7.971090674E-1,-9.709774971E0
1.364990479E1,1.526919961E0,-7.899305820E-1,-9.736096382E0
1.365961744E1,1.510170221E0,-7.636095285E-1,-9.764810562E0
1.366933099E1,1.502991676E0,-7.516453862E-1,-9.805487633E0
1.367904521E1,1.476670623E0,-7.636095285E-1,-9.831809044E0
1.368875864E1,1.481456280E0,-7.731808424E-1,-9.843772888E0
1.369847130E1,1.493420482E0,-7.923234105E-1,-9.843772888E0
1.370818474E1,1.498206019E0,-8.186444640E-1,-9.803094864E0
1.371789906E1,1.510170221E0,-8.186444640E-1,-9.764810562E0
1.372761244E1,1.519741535E0,-8.114659786E-1,-9.736096382E0
1.373732510E1,1.531705618E0,-7.899305820E-1,-9.738489151E0
1.374703864E1,1.541276932E0,-7.875377536E-1,-9.740881920E0
1.375675286E1,1.529312730E0,-7.540382147E-1,-9.721739769E0
1.376646630E1,1.541276932E0,-7.492526174E-1,-9.728918076E0
1.377617896E1,1.543669701E0,-7.420741320E-1,-9.750452995E0
1.378589239E1,1.536491275E0,-7.420741320E-1,-9.803094864E0
1.379560672E1,1.517348647E0,-7.348956466E-1,-9.831809044E0
1.380532010E1,1.529312730E0,-7.348956466E-1,-9.836594582E0
1.381503281E1,1.536491275E0,-7.444669604E-1,-9.815059662E0
1.382474625E1,1.582253933E0,-7.468597889E-1,-9.783952713E0
1.383446057E1,1.599003673E0,-7.588238716E-1,-9.743274689E0
1.384417396E1,1.591825247E0,-7.731808424E-1,-9.721739769E0
1.385388661E1,1.579861164E0,-7.803592682E-1,-9.719346046E0
1.386360015E1,1.587039590E0,-7.683951855E-1,-9.736096382E0
1.387331442E1,1.589432478E0,-7.660023570E-1,-9.757631302E0
1.388302781E1,1.582253933E0,-7.779664397E-1,-9.757631302E0
1.389274047E1,1.575075507E0,-7.803592682E-1,-9.783952713E0
1.390245401E1,1.577468276E0,-7.827520967E-1,-9.795916557E0
1.391216823E1,1.550848126E0,-7.803592682E-1,-9.822237968E0
1.392188166E1,1.526919961E0,-7.923234105E-1,-9.812666893E0
1.393159432E1,1.510170221E0,-7.995018363E-1,-9.783952713E0
1.394130776E1,1.517348647E0,-8.018946648E-1,-9.755238533E0
1.395102208E1,1.531705618E0,-8.018946648E-1,-9.757631302E0
1.396073547E1,1.550848126E0,-8.042874932E-1,-9.764810562E0
1.397044817E1,1.546062589E0,-7.660023570E-1,-9.771988869E0
1.398016161E1,1.538884044E0,-7.540382147E-1,-9.779167175E0
1.398987594E1,1.548455358E0,-7.277171612E-1,-9.776774406E0
1.399958932E1,1.546062589E0,-7.085745931E-1,-9.769596100E0
1.400930198E1,1.543669701E0,-7.253243923E-1,-9.752845764E0
1.401901552E1,1.526919961E0,-7.420741320E-1,-9.752845764E0
1.402872974E1,1.507777333E0,-7.755736113E-1,-9.771988869E0
1.403844317E1,1.462313771E0,-8.114659786E-1,-9.786345482E0
1.404815583E1,1.455135226E0,-8.282157183E-1,-9.779167175E0
1.405786937E1,1.479063511E0,-8.258228898E-1,-9.771988869E0
1.406758359E1,1.526919961E0,-8.138588071E-1,-9.752845764E0
1.407729703E1,1.582253933E0,-7.947162390E-1,-9.779167175E0
1.408700969E1,1.613360643E0,-7.707880139E-1,-9.762416840E0
1.409672312E1,1.630110383E0,-7.468597889E-1,-9.771988869E0
1.410643745E1,1.615753531E0,-7.277171612E-1,-9.774381638E0
1.411615083E1,1.587039590E0,-7.181459069E-1,-9.767203331E0
1.412586354E1,1.558026671E0,-7.229315639E-1,-9.767203331E0
1.413557698E1,1.536491275E0,-7.325028181E-1,-9.793523788E0
1.414529130E1,1.512562990E0,-7.468597889E-1,-9.800702095E0
1.415500469E1,1.505384564E0,-7.660023570E-1,-9.776774406E0
1.416471739E1,1.538884044E0,-7.803592682E-1,-9.760024071E0
1.417443083E1,1.555633783E0,-7.875377536E-1,-9.728918076E0
1.418414510E1,1.596610904E0,-7.899305820E-1,-9.726525307E0
1.419385854E1,1.563111424E0,-7.923234105E-1,-9.728918076E0
1.420357120E1,1.543669701E0,-7.851449251E-1,-9.764810562E0
1.421328474E1,1.541276932E0,-7.803592682E-1,-9.783952713E0
1.422299896E1,1.550848126E0,-7.683951855E-1,-9.776774406E0
1.423271239E1,1.575075507E0,-7.755736113E-1,-9.793523788E0
1.424242505E1,1.572682738E0,-7.660023570E-1,-9.779167175E0
1.425213859E1,1.560718536E0,-7.588238716E-1,-9.764810562E0
1.426185281E1,1.546062589E0,-7.827520967E-1,-9.752845764E0
1.427156625E1,1.517348647E0,-7.923234105E-1,-9.733703613E0
1.428127890E1,1.495813251E0,-7.947162390E-1,-9.745667458E0
1.429099234E1,1.479063511E0,-7.875377536E-1,-9.774381638E0
1.430070666E1,1.467099428E0,-7.827520967E-1,-9.776774406E0
1.431042005E1,1.476670623E0,-7.612167001E-1,-9.760024071E0
1.432013276E1,1.519741535E0,-7.636095285E-1,-9.755238533E0
1.432984620E1,1.555633783E0,-7.588238716E-1,-9.764810562E0
1.433956052E1,1.572682738E0,-7.779664397E-1,-9.762416840E0
1.434927390E1,1.582253933E0,-7.588238716E-1,-9.764810562E0
1.435898661E1,1.579861164E0,-7.707880139E-1,-9.757631302E0
1.436870005E1,1.575075507E0,-7.779664397E-1,-9.764810562E0
1.437841437E1,1.577468276E0,-7.660023570E-1,-9.781559944E0
1.438812776E1,1.558026671E0,-7.683951855E-1,-9.779167175E0
1.439784041E1,1.567897081E0,-7.612167001E-1,-9.762416840E0
1.440755396E1,1.565504193E0,-7.612167001E-1,-9.738489151E0
1.441726817E1,1.560718536E0,-7.540382147E-1,-9.738489151E0
1.442698161E1,1.553241014E0,-7.540382147E-1,-9.738489151E0
1.443669427E1,1.543669701E0,-7.588238716E-1,-9.750452995E0
1.444640781E1,1.543669701E0,-7.731808424E-1,-9.752845764E0
1.445612203E1,1.541276932E0,-7.636095285E-1,-9.781559944E0
1.446583547E1,1.531705618E0,-7.636095285E-1,-9.791131020E0
1.447554812E1,1.529312730E0,-7.731808424E-1,-9.786345482E0
1.448526156E1,1.529312730E0,-7.707880139E-1,-9.767203331E0
1.449497588E1,1.529312730E0,-7.827520967E-1,-9.771988869E0
1.450468932E1,1.524527073E0,-7.923234105E-1,-9.755238533E0
1.451440198E1,1.529312730E0,-7.851449251E-1,-9.769596100E0
1.452411541E1,1.522134304E0,-7.851449251E-1,-9.767203331E0
1.453382974E1,1.531705618E0,-7.660023570E-1,-9.755238533E0
1.454354312E1,1.522134304E0,-7.588238716E-1,-9.748060226E0
1.455325583E1,1.534098387E0,-7.420741320E-1,-9.760024071E0
1.456296927E1,1.543669701E0,-7.301099896E-1,-9.769596100E0
1.457268359E1,1.553241014E0,-7.277171612E-1,-9.774381638E0
1.458239698E1,1.546062589E0,-7.516453862E-1,-9.764810562E0
1.459210968E1,1.526919961E0,-7.755736113E-1,-9.750452995E0
1.460182312E1,1.505384564E0,-7.995018363E-1,-9.743274689E0
1.461153745E1,1.500598907E0,-8.066803217E-1,-9.750452995E0
1.462125083E1,1.517348647E0,-8.090731502E-1,-9.774381638E0
1.463096349E1,1.565504193E0,-7.995018363E-1,-9.781559944E0
1.464067703E1,1.596610904E0,-7.875377536E-1,-9.781559944E0
1.465039125E1,1.599003673E0,-7.803592682E-1,-9.788738251E0
1.466010468E1,1.579861164E0,-7.564310431E-1,-9.774381638E0
1.466981734E1,1.560718536E0,-7.396813035E-1,-9.776774406E0
1.467953088E1,1.524527073E0,-7.325028181E-1,-9.767203331E0
1.468924510E1,1.538884044E0,-7.468597889E-1,-9.757631302E0
1.469895849E1,1.529312730E0,-7.492526174E-1,-9.757631302E0
1.470867120E1,1.534098387E0,-7.612167001E-1,-9.755238533E0
1.471838463E1,1.558026671E0,-7.683951855E-1,-9.740881920E0
1.472809896E1,1.575075507E0,-7.612167001E-1,-9.743274689E0
1.473781234E1,1.567897081E0,-7.564310431E-1,-9.736096382E0
1.474752505E1,1.541276932E0,-7.588238716E-1,-9.736096382E0
1.475723849E1,1.512562990E0,-7.612167001E-1,-9.752845764E0
1.476695281E1,1.512562990E0,-7.731808424E-1,-9.769596100E0
1.477666620E1,1.500598907E0,-7.755736113E-1,-9.776774406E0
1.478637885E1,1.519741535E0,-7.803592682E-1,-9.788738251E0
1.479609239E1,1.546062589E0,-7.803592682E-1,-9.781559944E0
1.480580661E1,1.553241014E0,-7.731808424E-1,-9.779167175E0
1.481552005E1,1.555633783E0,-7.803592682E-1,-9.767203331E0
1.482523271E1,1.565504193E0,-7.851449251E-1,-9.750452995E0
1.483494625E1,1.524527073E0,-7.923234105E-1,-9.738489151E0
1.484466047E1,1.512562990E0,-8.018946648E-1,-9.752845764E0
1.485437390E1,1.500598907E0,-7.827520967E-1,-9.757631302E0
1.486408656E1,1.502991676E0,-7.779664397E-1,-9.755238533E0
1.487380000E1,1.526919961E0,-7.755736113E-1,-9.762416840E0
1.488351432E1,1.543669701E0,-7.564310431E-1,-9.755238533E0
1.489322771E1,1.543669701E0,-7.516453862E-1,-9.752845764E0
1.490294041E1,1.555633783E0,-7.660023570E-1,-9.769596100E0
1.491265385E1,1.563111424E0,-7.540382147E-1,-9.762416840E0
1.492236817E1,1.550848126E0,-7.468597889E-1,-9.764810562E0
1.493208156E1,1.546062589E0,-7.540382147E-1,-9.752845764E0
1.494179422E1,1.560718536E0,-7.516453862E-1,-9.760024071E0
1.495150776E1,1.546062589E0,-7.564310431E-1,-9.767203331E0
1.496122203E1,1.526919961E0,-7.444669604E-1,-9.769596100E0
1.497093541E1,1.529312730E0,-7.420741320E-1,-9.788738251E0
1.498064807E1,1.538884044E0,-7.372884750E-1,-9.769596100E0
1.499036161E1,1.553241014E0,-7.468597889E-1,-9.769596100E0
1.500007583E1,1.560718536E0,-7.612167001E-1,-9.745667458E0
1.500978927E1,1.550848126E0,-7.707880139E-1,-9.740881920E0
1.501950192E1,1.550848126E0,-7.755736113E-1,-9.728918076E0
1.502921536E1,1.541276932E0,-7.731808424E-1,-9.736096382E0
1.503892969E1,1.534098387E0,-7.779664397E-1,-9.743274689E0
1.504864307E1,1.529312730E0,-7.564310431E-1,-9.764810562E0
1.505835578E1,1.543669701E0,-7.707880139E-1,-9.779167175E0
1.506806922E1,1.538884044E0,-7.779664397E-1,-9.781559944E0
