"Time (s)","Gyroscope x (rad/s)","Gyroscope y (rad/s)","Gyroscope z (rad/s)"
1.725118430E-1,-0.000000000E0,1.832541777E-3,1.985253533E-3
1.822252810E-1,-1.221694518E-3,-6.108472589E-4,3.206948051E-3
1.919396040E-1,-2.443389036E-3,-3.054236295E-3,3.206948051E-3
2.016529890E-1,-2.443389036E-3,-5.497625098E-3,3.206948051E-3
2.113656970E-1,-1.221694518E-3,-7.941014133E-3,4.428642802E-3
2.210791350E-1,-1.221694518E-3,-7.941014133E-3,1.985253533E-3
2.307934580E-1,-0.000000000E0,-3.054236295E-3,1.985253533E-3
2.405068950E-1,-1.221694518E-3,-3.054236295E-3,1.985253533E-3
2.502195520E-1,1.221694518E-3,3.054236295E-3,1.985253533E-3
2.599329890E-1,1.221694518E-3,1.832541777E-3,4.428642802E-3
2.696473120E-1,-0.000000000E0,3.054236295E-3,5.650337320E-3
2.793607490E-1,-1.221694518E-3,3.054236295E-3,3.206948051E-3
2.890734060E-1,-2.443389036E-3,3.054236295E-3,3.206948051E-3
2.987869470E-1,-1.221694518E-3,-1.832541777E-3,1.985253533E-3
3.085011660E-1,1.221694518E-3,-3.054236295E-3,7.635590737E-4
3.182146040E-1,3.665083554E-3,-7.941014133E-3,7.635590737E-4
3.279272600E-1,6.108472589E-3,-1.282779220E-2,-4.581354442E-4
3.376408020E-1,6.108472589E-3,-1.527118124E-2,-1.679830020E-3
3.473550200E-1,3.665083554E-3,-9.162709117E-3,-4.581354442E-4
3.570684580E-1,1.221694518E-3,-6.108472589E-4,-4.581354442E-4
3.667811140E-1,-2.443389036E-3,3.054236295E-3,-4.581354442E-4
3.764946560E-1,-1.221694518E-3,5.497625098E-3,1.985253533E-3
3.862089270E-1,-2.443389036E-3,9.162709117E-3,3.206948051E-3
3.959223120E-1,-2.443389036E-3,1.038440317E-2,4.428642802E-3
4.056349680E-1,-0.000000000E0,1.038440317E-2,4.428642802E-3
4.153485100E-1,1.221694518E-3,3.054236295E-3,4.428642802E-3
4.250627810E-1,3.665083554E-3,-5.497625098E-3,4.428642802E-3
4.347761660E-1,6.108472589E-3,-9.162709117E-3,4.428642802E-3
4.444888220E-1,6.108472589E-3,-7.941014133E-3,4.428642802E-3
4.542023640E-1,7.330167107E-3,-1.038440317E-2,3.206948051E-3
4.639166350E-1,7.330167107E-3,-5.497625098E-3,1.985253533E-3
4.736300200E-1,3.665083554E-3,3.054236295E-3,7.635590737E-4
4.833427290E-1,1.221694518E-3,9.162709117E-3,-1.679830020E-3
4.930561660E-1,-1.221694518E-3,1.038440317E-2,-2.901524538E-3
5.027704890E-1,-2.443389036E-3,9.162709117E-3,-1.679830020E-3
5.124838740E-1,-1.221694518E-3,5.497625098E-3,-4.581354442E-4
5.221965830E-1,-1.221694518E-3,1.832541777E-3,1.985253533E-3
5.319100200E-1,-1.221694518E-3,6.108472589E-4,1.985253533E-3
5.416243430E-1,-0.000000000E0,1.832541777E-3,7.635590737E-4
5.513377290E-1,-0.000000000E0,-6.108472589E-4,1.985253533E-3
5.610504370E-1,-0.000000000E0,6.108472589E-4,1.985253533E-3
5.707638740E-1,1.221694518E-3,6.108472589E-4,1.985253533E-3
5.804781970E-1,3.665083554E-3,-6.108472589E-4,1.985253533E-3
5.901915830E-1,2.443389036E-3,-1.832541777E-3,1.985253533E-3
5.999042910E-1,1.221694518E-3,-3.054236295E-3,1.985253533E-3
6.096177290E-1,1.221694518E-3,-5.497625098E-3,1.985253533E-3
6.193320520E-1,2.443389036E-3,-6.719320081E-3,7.635590737E-4
6.290454890E-1,2.443389036E-3,-4.275931045E-3,-4.581354442E-4
6.387581450E-1,-0.000000000E0,-1.832541777E-3,-1.679830020E-3
6.484715830E-1,-0.000000000E0,-6.108472589E-4,-2.901524538E-3
6.581859060E-1,-1.221694518E-3,1.832541777E-3,-4.581354442E-4
6.678993430E-1,-2.443389036E-3,3.054236295E-3,-4.581354442E-4
6.776119990E-1,-3.665083554E-3,6.108472589E-4,7.635590737E-4
6.873255410E-1,-2.443389036E-3,6.108472589E-4,7.635590737E-4
6.970397600E-1,-1.221694518E-3,-4.275931045E-3,1.985253533E-3
7.067531970E-1,-0.000000000E0,-7.941014133E-3,1.985253533E-3
7.164658540E-1,3.665083554E-3,-1.160609815E-2,3.206948051E-3
7.261793950E-1,3.665083554E-3,-1.771457121E-2,3.206948051E-3
7.358936660E-1,3.665083554E-3,-2.015795931E-2,4.428642802E-3
7.456070520E-1,3.665083554E-3,-1.771457121E-2,4.428642802E-3
7.553197600E-1,2.443389036E-3,-9.162709117E-3,4.428642802E-3
7.650331970E-1,1.221694518E-3,-1.832541777E-3,4.428642802E-3
7.747475200E-1,2.443389036E-3,3.054236295E-3,4.428642802E-3
7.844609060E-1,1.221694518E-3,3.054236295E-3,3.206948051E-3
7.941736140E-1,-0.000000000E0,5.497625098E-3,7.635590737E-4
8.038870520E-1,-3.665083554E-3,4.275931045E-3,-1.679830020E-3
8.136013740E-1,-4.886778072E-3,3.054236295E-3,-2.901524538E-3
8.233148120E-1,-4.886778072E-3,-6.108472589E-4,-4.123218823E-3
8.330274680E-1,-1.221694518E-3,-1.832541777E-3,-6.566607859E-3
8.427410100E-1,2.443389036E-3,-6.108472589E-4,-6.566607859E-3
8.524552290E-1,4.886778072E-3,-6.108472589E-4,-7.788302377E-3
8.621686660E-1,4.886778072E-3,-1.832541777E-3,-5.344913341E-3
8.718813220E-1,4.886778072E-3,-5.497625098E-3,-4.123218823E-3
8.815948640E-1,4.886778072E-3,-6.719320081E-3,-4.123218823E-3
8.913091350E-1,3.665083554E-3,-7.941014133E-3,-1.679830020E-3
9.010225200E-1,1.221694518E-3,-5.497625098E-3,-4.581354442E-4
9.107352290E-1,-1.221694518E-3,-3.054236295E-3,-4.581354442E-4
9.204486660E-1,-2.443389036E-3,-1.832541777E-3,-1.679830020E-3
9.301629890E-1,-1.221694518E-3,-6.108472589E-4,7.635590737E-4
9.398764270E-1,-1.221694518E-3,1.832541777E-3,1.985253533E-3
9.495890830E-1,-1.221694518E-3,4.275931045E-3,3.206948051E-3
9.593026240E-1,1.221694518E-3,6.719320081E-3,4.428642802E-3
9.690168950E-1,3.665083554E-3,6.719320081E-3,4.428642802E-3
9.787302810E-1,2.443389036E-3,9.162709117E-3,3.206948051E-3
9.884429890E-1,-1.221694518E-3,7.941014133E-3,7.635590737E-4
9.981564270E-1,-3.665083554E-3,3.054236295E-3,-1.679830020E-3
1.007870749E0,-4.886778072E-3,-6.108472589E-4,-2.901524538E-3
1.017584187E0,-3.665083554E-3,-6.108472589E-4,-2.901524538E-3
1.027296843E0,-2.443389036E-3,-6.108472589E-4,-1.679830020E-3
1.037010385E0,-1.221694518E-3,-6.108472589E-4,-1.679830020E-3
1.046724656E0,-2.443389036E-3,1.832541777E-3,-1.679830020E-3
1.056438041E0,-2.443389036E-3,5.497625098E-3,-1.679830020E-3
1.066150749E0,-2.443389036E-3,5.497625098E-3,-4.581354442E-4
1.075864291E0,-0.000000000E0,5.497625098E-3,-4.581354442E-4
1.085578510E0,-0.000000000E0,3.054236295E-3,-4.581354442E-4
1.095291947E0,-1.221694518E-3,-1.832541777E-3,-4.581354442E-4
1.105004656E0,-1.221694518E-3,-5.497625098E-3,7.635590737E-4
1.114718093E0,-1.221694518E-3,-9.162709117E-3,1.985253533E-3
1.124432416E0,-2.443389036E-3,-1.282779220E-2,1.985253533E-3
1.134145854E0,-4.886778072E-3,-1.527118124E-2,3.206948051E-3
1.143858510E0,-4.886778072E-3,-1.649287529E-2,4.428642802E-3
1.153572052E0,-2.443389036E-3,-1.649287529E-2,4.428642802E-3
1.163286322E0,2.443389036E-3,-1.282779220E-2,4.428642802E-3
1.172999760E0,4.886778072E-3,-1.038440317E-2,5.650337320E-3
1.182712416E0,2.443389036E-3,-9.162709117E-3,8.093725890E-3
1.192425958E0,-1.221694518E-3,-6.719320081E-3,9.315420873E-3
1.202140229E0,-6.108472589E-3,-1.832541777E-3,1.175880991E-2
1.211853666E0,-9.773556143E-3,-6.108472589E-4,1.298050396E-2
1.221566322E0,-9.773556143E-3,1.832541777E-3,1.298050396E-2
1.231279864E0,-8.551862091E-3,1.832541777E-3,1.053711493E-2
1.240994135E0,-7.330167107E-3,1.832541777E-3,8.093725890E-3
1.250707520E0,-2.443389036E-3,-6.108472589E-4,4.428642802E-3
1.260420229E0,1.221694518E-3,-3.054236295E-3,1.985253533E-3
1.270133770E0,2.443389036E-3,-6.719320081E-3,-1.679830020E-3
1.279848041E0,2.443389036E-3,-6.719320081E-3,-5.344913341E-3
1.289561427E0,3.665083554E-3,-3.054236295E-3,-4.123218823E-3
1.299274135E0,3.665083554E-3,-6.108472589E-4,-5.344913341E-3
1.308987677E0,4.886778072E-3,6.108472589E-4,-5.344913341E-3
1.318701947E0,6.108472589E-3,1.832541777E-3,-4.123218823E-3
1.328415333E0,4.886778072E-3,1.832541777E-3,-4.123218823E-3
1.338128041E0,2.443389036E-3,6.108472589E-4,-2.901524538E-3
1.347841583E0,-0.000000000E0,-1.832541777E-3,-1.679830020E-3
1.357555854E0,-1.221694518E-3,-4.275931045E-3,-4.581354442E-4
1.367269291E0,-3.665083554E-3,-7.941014133E-3,7.635590737E-4
1.376981947E0,-2.443389036E-3,-7.941014133E-3,1.985253533E-3
1.386695489E0,-1.221694518E-3,-5.497625098E-3,7.635590737E-4
1.396409760E0,-0.000000000E0,-1.832541777E-3,-4.581354442E-4
1.406123197E0,2.443389036E-3,6.108472589E-4,-1.679830020E-3
1.415835854E0,2.443389036E-3,-6.108472589E-4,-2.901524538E-3
1.425549395E0,3.665083554E-3,-1.832541777E-3,-1.679830020E-3
1.435263666E0,2.443389036E-3,-4.275931045E-3,-1.679830020E-3
1.444977104E0,1.221694518E-3,-3.054236295E-3,-4.581354442E-4
1.454689760E0,-0.000000000E0,-3.054236295E-3,7.635590737E-4
1.464403302E0,-0.000000000E0,-3.054236295E-3,1.985253533E-3
1.474117572E0,1.221694518E-3,-3.054236295E-3,3.206948051E-3
1.483831010E0,4.886778072E-3,-1.832541777E-3,3.206948051E-3
1.493543718E0,4.886778072E-3,3.054236295E-3,7.635590737E-4
1.503257156E0,3.665083554E-3,5.497625098E-3,-4.581354442E-4
1.512971479E0,2.443389036E-3,4.275931045E-3,-4.123218823E-3
1.522684916E0,-0.000000000E0,1.832541777E-3,-5.344913341E-3
1.532397624E0,-0.000000000E0,1.832541777E-3,-5.344913341E-3
1.542111166E0,-0.000000000E0,1.832541777E-3,-2.901524538E-3
1.551825437E0,-1.221694518E-3,3.054236295E-3,-2.901524538E-3
1.561538822E0,-1.221694518E-3,4.275931045E-3,-4.581354442E-4
1.571251531E0,-0.000000000E0,5.497625098E-3,-4.581354442E-4
1.580965072E0,1.221694518E-3,5.497625098E-3,-4.581354442E-4
1.590679343E0,1.221694518E-3,3.054236295E-3,-4.581354442E-4
1.600392781E0,2.443389036E-3,-6.108472589E-4,-1.679830020E-3
1.610105437E0,1.221694518E-3,-3.054236295E-3,-1.679830020E-3
1.619818979E0,2.443389036E-3,-4.275931045E-3,-4.581354442E-4
1.629533249E0,3.665083554E-3,-6.719320081E-3,-4.581354442E-4
1.639246687E0,3.665083554E-3,-6.719320081E-3,-4.581354442E-4
1.648959395E0,3.665083554E-3,-5.497625098E-3,-4.581354442E-4
1.658672937E0,2.443389036E-3,-3.054236295E-3,7.635590737E-4
1.668387208E0,-1.221694518E-3,6.108472589E-4,7.635590737E-4
1.678100593E0,-2.443389036E-3,3.054236295E-3,7.635590737E-4
1.687813302E0,-3.665083554E-3,4.275931045E-3,7.635590737E-4
1.697526843E0,-3.665083554E-3,3.054236295E-3,7.635590737E-4
1.707241114E0,-2.443389036E-3,-6.108472589E-4,7.635590737E-4
1.716954552E0,-1.221694518E-3,-4.275931045E-3,-4.581354442E-4
1.726667260E0,-0.000000000E0,-5.497625098E-3,-4.581354442E-4
1.736380697E0,-1.221694518E-3,-6.719320081E-3,-1.679830020E-3
1.746095020E0,-1.221694518E-3,-6.719320081E-3,-1.679830020E-3
1.755808458E0,-1.221694518E-3,-7.941014133E-3,-1.679830020E-3
1.765521166E0,-1.221694518E-3,-6.719320081E-3,-1.679830020E-3
1.775234708E0,-1.221694518E-3,-4.275931045E-3,-1.679830020E-3
1.784948979E0,-2.443389036E-3,-6.108472589E-4,-1.679830020E-3
1.794662416E0,-3.665083554E-3,6.108472589E-4,-1.679830020E-3
1.804375072E0,-1.221694518E-3,-6.108472589E-4,-2.901524538E-3
1.814088614E0,1.221694518E-3,-1.832541777E-3,-1.679830020E-3
1.823802885E0,1.221694518E-3,-4.275931045E-3,-1.679830020E-3
1.833516322E0,1.221694518E-3,-6.719320081E-3,-4.581354442E-4
1.843229031E0,1.221694518E-3,-7.941014133E-3,7.635590737E-4
1.852942572E0,-0.000000000E0,-5.497625098E-3,7.635590737E-4
1.862656843E0,-2.443389036E-3,-3.054236295E-3,1.985253533E-3
1.872370281E0,-2.443389036E-3,-1.832541777E-3,3.206948051E-3
1.882082937E0,-1.221694518E-3,-3.054236295E-3,1.985253533E-3
1.891796479E0,1.221694518E-3,-4.275931045E-3,7.635590737E-4
1.901510749E0,1.221694518E-3,-4.275931045E-3,-4.581354442E-4
1.911224187E0,-0.000000000E0,-4.275931045E-3,-4.581354442E-4
1.920936895E0,-0.000000000E0,-4.275931045E-3,-2.901524538E-3
1.930650437E0,-2.443389036E-3,-3.054236295E-3,-2.901524538E-3
1.940364708E0,-3.665083554E-3,-1.832541777E-3,-1.679830020E-3
1.950078145E0,-3.665083554E-3,6.108472589E-4,-1.679830020E-3
1.959790802E0,-2.443389036E-3,6.108472589E-4,-1.679830020E-3
1.969504343E0,-0.000000000E0,6.108472589E-4,-1.679830020E-3
1.979218614E0,2.443389036E-3,6.108472589E-4,-4.581354442E-4
1.988932052E0,4.886778072E-3,-6.108472589E-4,1.985253533E-3
1.998644760E0,7.330167107E-3,-1.832541777E-3,3.206948051E-3
2.008358302E0,7.330167107E-3,-6.108472589E-4,4.428642802E-3
2.018072572E0,4.886778072E-3,6.108472589E-4,1.985253533E-3
2.027786010E0,1.221694518E-3,1.832541777E-3,-4.581354442E-4
2.037498666E0,1.221694518E-3,1.832541777E-3,-4.581354442E-4
2.047212208E0,-1.221694518E-3,1.832541777E-3,-1.679830020E-3
2.056926479E0,-0.000000000E0,6.108472589E-4,-1.679830020E-3
2.066639916E0,-2.443389036E-3,6.108472589E-4,7.635590737E-4
2.076352624E0,-2.443389036E-3,3.054236295E-3,7.635590737E-4
2.086066166E0,-2.443389036E-3,6.719320081E-3,7.635590737E-4
2.095780437E0,-1.221694518E-3,5.497625098E-3,7.635590737E-4
2.105493874E0,-0.000000000E0,4.275931045E-3,7.635590737E-4
2.115206531E0,1.221694518E-3,3.054236295E-3,-4.581354442E-4
2.124920072E0,2.443389036E-3,6.108472589E-4,-1.679830020E-3
2.134634343E0,2.443389036E-3,-1.832541777E-3,-1.679830020E-3
2.144347781E0,2.443389036E-3,-4.275931045E-3,-4.581354442E-4
2.154060489E0,3.665083554E-3,-7.941014133E-3,7.635590737E-4
2.163774031E0,2.443389036E-3,-7.941014133E-3,7.635590737E-4
2.173488302E0,1.221694518E-3,-6.719320081E-3,1.985253533E-3
2.183201739E0,-0.000000000E0,-4.275931045E-3,1.985253533E-3
2.192914395E0,-1.221694518E-3,-6.108472589E-4,1.985253533E-3
2.202627937E0,-1.221694518E-3,1.832541777E-3,7.635590737E-4
2.212342208E0,-1.221694518E-3,4.275931045E-3,1.985253533E-3
2.222055645E0,-1.221694518E-3,5.497625098E-3,1.985253533E-3
2.231768354E0,-1.221694518E-3,1.832541777E-3,1.985253533E-3
2.241481895E0,-1.221694518E-3,-6.108472589E-4,1.985253533E-3
2.251196166E0,-0.000000000E0,-3.054236295E-3,1.985253533E-3
2.260909604E0,-0.000000000E0,-5.497625098E-3,7.635590737E-4
2.270622312E0,1.221694518E-3,-7.941014133E-3,7.635590737E-4
2.280335749E0,2.443389036E-3,-7.941014133E-3,7.635590737E-4
2.290050072E0,1.221694518E-3,-6.719320081E-3,7.635590737E-4
2.299763510E0,1.221694518E-3,-1.832541777E-3,7.635590737E-4
2.309476218E0,1.221694518E-3,6.108472589E-4,7.635590737E-4
2.319189760E0,-0.000000000E0,1.832541777E-3,7.635590737E-4
2.328904031E0,-1.221694518E-3,1.832541777E-3,1.985253533E-3
2.338617468E0,-0.000000000E0,6.108472589E-4,3.206948051E-3
2.348330177E0,1.221694518E-3,-1.832541777E-3,4.428642802E-3
2.358043718E0,2.443389036E-3,-1.832541777E-3,1.985253533E-3
2.367757937E0,2.443389036E-3,-3.054236295E-3,1.985253533E-3
2.377471374E0,1.221694518E-3,-1.832541777E-3,1.985253533E-3
2.387184083E0,1.221694518E-3,-1.832541777E-3,1.985253533E-3
2.396897624E0,2.443389036E-3,-3.054236295E-3,7.635590737E-4
2.406611895E0,3.665083554E-3,-6.108472589E-4,7.635590737E-4
2.416325333E0,2.443389036E-3,-6.108472589E-4,1.985253533E-3
2.426038041E0,2.443389036E-3,-6.108472589E-4,1.985253533E-3
2.435751583E0,2.443389036E-3,6.108472589E-4,7.635590737E-4
2.445465854E0,1.221694518E-3,1.832541777E-3,1.985253533E-3
2.455179291E0,1.221694518E-3,3.054236295E-3,1.985253533E-3
2.464891947E0,-0.000000000E0,3.054236295E-3,1.985253533E-3
2.474605489E0,-0.000000000E0,3.054236295E-3,7.635590737E-4
2.484319760E0,-0.000000000E0,1.832541777E-3,1.985253533E-3
2.494033197E0,1.221694518E-3,1.832541777E-3,1.985253533E-3
2.503745906E0,2.443389036E-3,3.054236295E-3,3.206948051E-3
2.513459447E0,3.665083554E-3,3.054236295E-3,5.650337320E-3
2.523173718E0,6.108472589E-3,6.108472589E-4,5.650337320E-3
2.532887156E0,7.330167107E-3,6.108472589E-4,4.428642802E-3
2.542599812E0,4.886778072E-3,3.054236295E-3,1.985253533E-3
2.552313354E0,-0.000000000E0,3.054236295E-3,-2.901524538E-3
2.562027624E0,-2.443389036E-3,3.054236295E-3,-2.901524538E-3
2.571741062E0,-2.443389036E-3,1.832541777E-3,-2.901524538E-3
2.581453770E0,-2.443389036E-3,6.108472589E-4,-4.581354442E-4
2.591167312E0,-2.443389036E-3,-6.108472589E-4,1.985253533E-3
2.600881583E0,-0.000000000E0,6.108472589E-4,3.206948051E-3
2.610595020E0,-0.000000000E0,5.497625098E-3,3.206948051E-3
2.620307677E0,2.443389036E-3,6.719320081E-3,1.985253533E-3
2.630021218E0,3.665083554E-3,5.497625098E-3,1.985253533E-3
2.639735489E0,6.108472589E-3,1.832541777E-3,1.985253533E-3
2.649448927E0,4.886778072E-3,-3.054236295E-3,1.985253533E-3
2.659161635E0,3.665083554E-3,-5.497625098E-3,3.206948051E-3
2.668875177E0,2.443389036E-3,-6.719320081E-3,1.985253533E-3
2.678589447E0,-0.000000000E0,-6.719320081E-3,1.985253533E-3
2.688302885E0,-0.000000000E0,-6.719320081E-3,1.985253533E-3
2.698015541E0,-0.000000000E0,-4.275931045E-3,1.985253533E-3
2.707729083E0,-1.221694518E-3,1.832541777E-3,1.985253533E-3
2.717443354E0,-2.443389036E-3,7.941014133E-3,1.985253533E-3
2.727156791E0,-2.443389036E-3,1.160609815E-2,1.985253533E-3
2.736869499E0,-1.221694518E-3,1.404948719E-2,1.985253533E-3
2.746583041E0,-0.000000000E0,1.404948719E-2,3.206948051E-3
2.756297312E0,1.221694518E-3,1.160609815E-2,1.985253533E-3
2.766010749E0,-2.443389036E-3,1.038440317E-2,3.206948051E-3
2.775723406E0,-4.886778072E-3,6.719320081E-3,4.428642802E-3
2.785436947E0,-7.330167107E-3,1.832541777E-3,4.428642802E-3
2.795151218E0,-7.330167107E-3,-3.054236295E-3,4.428642802E-3
2.804864656E0,-3.665083554E-3,-5.497625098E-3,1.985253533E-3
2.814577364E0,-0.000000000E0,-3.054236295E-3,7.635590737E-4
2.824290906E0,2.443389036E-3,3.054236295E-3,-4.581354442E-4
2.834005177E0,3.665083554E-3,6.719320081E-3,1.985253533E-3
2.843718614E0,4.886778072E-3,7.941014133E-3,4.428642802E-3
2.853431270E0,3.665083554E-3,4.275931045E-3,4.428642802E-3
2.863144812E0,3.665083554E-3,3.054236295E-3,5.650337320E-3
2.872859083E0,-0.000000000E0,1.832541777E-3,4.428642802E-3
2.882572520E0,-2.443389036E-3,1.832541777E-3,4.428642802E-3
2.892285229E0,-6.108472589E-3,3.054236295E-3,5.650337320E-3
2.901998770E0,-6.108472589E-3,4.275931045E-3,4.428642802E-3
2.911713041E0,-3.665083554E-3,5.497625098E-3,4.428642802E-3
2.921426427E0,-1.221694518E-3,6.719320081E-3,4.428642802E-3
2.931139135E0,1.221694518E-3,7.941014133E-3,3.206948051E-3
2.940852677E0,4.886778072E-3,6.719320081E-3,7.635590737E-4
2.950566947E0,3.665083554E-3,6.108472589E-4,-1.679830020E-3
2.960280385E0,4.886778072E-3,-4.275931045E-3,-2.901524538E-3
2.969993093E0,3.665083554E-3,-7.941014133E-3,-4.123218823E-3
2.979706531E0,-0.000000000E0,-7.941014133E-3,-1.679830020E-3
2.989420906E0,-0.000000000E0,-5.497625098E-3,-4.581354442E-4
2.999134291E0,-1.221694518E-3,-6.108472589E-4,-4.581354442E-4
3.008846999E0,1.221694518E-3,9.162709117E-3,-4.581354442E-4
3.018560541E0,2.443389036E-3,2.015795931E-2,-1.679830020E-3
3.028274812E0,-0.000000000E0,2.626643144E-2,7.635590737E-4
3.037988249E0,-1.221694518E-3,2.748812735E-2,1.985253533E-3
3.047700958E0,-2.443389036E-3,2.260134928E-2,4.428642802E-3
3.057414395E0,-2.443389036E-3,1.160609815E-2,5.650337320E-3
3.067128718E0,-0.000000000E0,3.054236295E-3,6.872031838E-3
3.076842156E0,-0.000000000E0,-1.832541777E-3,3.206948051E-3
3.086554864E0,1.221694518E-3,-5.497625098E-3,-1.679830020E-3
3.096268406E0,3.665083554E-3,-5.497625098E-3,-5.344913341E-3
3.105982677E0,7.330167107E-3,-4.275931045E-3,-7.788302377E-3
3.115696114E0,9.773556143E-3,-4.275931045E-3,-6.566607859E-3
3.125408770E0,7.330167107E-3,-6.108472589E-4,-4.123218823E-3
3.135122312E0,1.221694518E-3,7.941014133E-3,-2.901524538E-3
3.144836583E0,-4.886778072E-3,1.527118124E-2,-1.679830020E-3
3.154550020E0,-8.551862091E-3,1.771457121E-2,-1.679830020E-3
3.164262729E0,-7.330167107E-3,1.282779220E-2,-1.679830020E-3
3.173976270E0,-3.665083554E-3,7.941014133E-3,-2.901524538E-3
3.183690489E0,-0.000000000E0,3.054236295E-3,-4.123218823E-3
3.193403927E0,2.443389036E-3,1.832541777E-3,-4.123218823E-3
3.203116635E0,2.443389036E-3,-6.108472589E-4,-4.123218823E-3
3.212830177E0,1.221694518E-3,-4.275931045E-3,-1.679830020E-3
3.222544447E0,1.221694518E-3,-9.162709117E-3,-4.123218823E-3
3.232257885E0,-0.000000000E0,-1.160609815E-2,-4.123218823E-3
3.241970541E0,2.443389036E-3,-1.160609815E-2,-5.344913341E-3
3.251684083E0,3.665083554E-3,-9.162709117E-3,-5.344913341E-3
3.261398354E0,3.665083554E-3,-6.719320081E-3,-2.901524538E-3
3.271111791E0,1.221694518E-3,-6.108472589E-4,7.635590737E-4
3.280824499E0,-2.443389036E-3,1.832541777E-3,4.428642802E-3
3.290538041E0,-4.886778072E-3,1.832541777E-3,5.650337320E-3
3.300252260E0,-3.665083554E-3,-6.108472589E-4,4.428642802E-3
3.309965697E0,-1.221694518E-3,-1.832541777E-3,1.985253533E-3
3.319678406E0,-1.221694518E-3,-5.497625098E-3,7.635590737E-4
3.329391947E0,-3.665083554E-3,-7.941014133E-3,7.635590737E-4
3.339106218E0,-3.665083554E-3,-1.038440317E-2,7.635590737E-4
3.348819656E0,-3.665083554E-3,-7.941014133E-3,7.635590737E-4
3.358532312E0,-0.000000000E0,-4.275931045E-3,7.635590737E-4
3.368245854E0,1.221694518E-3,6.108472589E-4,1.985253533E-3
3.377960124E0,2.443389036E-3,5.497625098E-3,3.206948051E-3
3.387673562E0,1.221694518E-3,5.497625098E-3,3.206948051E-3
3.397386270E0,1.221694518E-3,6.108472589E-4,3.206948051E-3
3.407099812E0,1.221694518E-3,-7.941014133E-3,7.635590737E-4
3.416814083E0,3.665083554E-3,-1.404948719E-2,-1.679830020E-3
3.426527468E0,2.443389036E-3,-1.649287529E-2,-2.901524538E-3
3.436240177E0,1.221694518E-3,-1.282779220E-2,-5.344913341E-3
3.445953718E0,-0.000000000E0,-7.941014133E-3,-5.344913341E-3
3.455667989E0,-1.221694518E-3,-6.108472589E-4,-2.901524538E-3
3.465381427E0,1.221694518E-3,5.497625098E-3,-4.123218823E-3
3.475094135E0,1.221694518E-3,1.038440317E-2,-2.901524538E-3
3.484807572E0,-0.000000000E0,7.941014133E-3,-2.901524538E-3
3.494521895E0,-0.000000000E0,1.832541777E-3,-4.581354442E-4
3.504235333E0,-0.000000000E0,-4.275931045E-3,-1.679830020E-3
3.513948041E0,-1.221694518E-3,-9.162709117E-3,-1.679830020E-3
3.523661583E0,-2.443389036E-3,-1.160609815E-2,7.635590737E-4
3.533375854E0,-2.443389036E-3,-1.160609815E-2,-4.581354442E-4
3.543089291E0,-1.221694518E-3,-1.038440317E-2,-4.581354442E-4
3.552801947E0,1.221694518E-3,-6.719320081E-3,-4.581354442E-4
3.562515489E0,2.443389036E-3,-6.108472589E-4,1.985253533E-3
3.572229760E0,3.665083554E-3,3.054236295E-3,3.206948051E-3
3.581943197E0,4.886778072E-3,4.275931045E-3,4.428642802E-3
3.591655906E0,4.886778072E-3,4.275931045E-3,4.428642802E-3
3.601369343E0,3.665083554E-3,5.497625098E-3,3.206948051E-3
3.611083718E0,1.221694518E-3,3.054236295E-3,-4.581354442E-4
3.620797104E0,-0.000000000E0,-1.832541777E-3,-4.123218823E-3
3.630509812E0,-2.443389036E-3,-1.832541777E-3,-5.344913341E-3
3.640223354E0,-2.443389036E-3,-1.832541777E-3,-5.344913341E-3
3.649937624E0,-3.665083554E-3,-1.832541777E-3,-2.901524538E-3
3.659651062E0,-2.443389036E-3,-6.108472589E-4,-2.901524538E-3
3.669363718E0,-1.221694518E-3,1.832541777E-3,-2.901524538E-3
3.679077260E0,2.443389036E-3,6.719320081E-3,-2.901524538E-3
3.688791531E0,4.886778072E-3,7.941014133E-3,-4.123218823E-3
3.698504968E0,4.886778072E-3,6.719320081E-3,-5.344913341E-3
3.708217677E0,2.443389036E-3,3.054236295E-3,-2.901524538E-3
3.717931218E0,-0.000000000E0,-4.275931045E-3,-4.581354442E-4
3.727645489E0,-1.221694518E-3,-1.038440317E-2,-4.581354442E-4
3.737358927E0,-3.665083554E-3,-1.282779220E-2,-4.581354442E-4
3.747071583E0,-2.443389036E-3,-1.038440317E-2,-4.581354442E-4
3.756785124E0,-1.221694518E-3,-6.719320081E-3,7.635590737E-4
3.766499395E0,-1.221694518E-3,-3.054236295E-3,1.985253533E-3
3.776212833E0,-1.221694518E-3,1.832541777E-3,1.985253533E-3
3.785925541E0,-1.221694518E-3,4.275931045E-3,-1.679830020E-3
3.795639083E0,-0.000000000E0,5.497625098E-3,-1.679830020E-3
3.805353354E0,1.221694518E-3,4.275931045E-3,-1.679830020E-3
3.815066739E0,-0.000000000E0,-6.108472589E-4,-1.679830020E-3
3.824779447E0,-1.221694518E-3,-3.054236295E-3,-1.679830020E-3
3.834492989E0,-2.443389036E-3,-4.275931045E-3,-1.679830020E-3
3.844207260E0,-2.443389036E-3,-4.275931045E-3,7.635590737E-4
3.853920697E0,-3.665083554E-3,-6.719320081E-3,-4.581354442E-4
3.863633406E0,-3.665083554E-3,-7.941014133E-3,-4.581354442E-4
3.873346843E0,-1.221694518E-3,-9.162709117E-3,-4.581354442E-4
3.883061166E0,2.443389036E-3,-9.162709117E-3,-1.679830020E-3
3.892774604E0,6.108472589E-3,-1.038440317E-2,-1.679830020E-3
3.902487312E0,9.773556143E-3,-1.038440317E-2,-2.901524538E-3
3.912200854E0,8.551862091E-3,-1.038440317E-2,-5.344913341E-3
3.921915124E0,2.443389036E-3,-7.941014133E-3,-6.566607859E-3
3.931628562E0,-3.665083554E-3,-5.497625098E-3,-9.009997360E-3
3.941341218E0,-6.108472589E-3,-6.108472589E-4,-1.023169141E-2
3.951054760E0,-3.665083554E-3,1.832541777E-3,-1.145338640E-2
3.960769031E0,-1.221694518E-3,6.108472589E-4,-1.023169141E-2
3.970482468E0,1.221694518E-3,-3.054236295E-3,-1.023169141E-2
3.980195177E0,-0.000000000E0,-3.054236295E-3,-9.009997360E-3
3.989908718E0,3.665083554E-3,3.054236295E-3,-9.009997360E-3
3.999622989E0,7.330167107E-3,7.941014133E-3,-9.009997360E-3
4.009336427E0,1.099525020E-2,5.497625098E-3,-5.344913341E-3
4.019049083E0,1.221694518E-2,-5.497625098E-3,-2.901524538E-3
4.028762624E0,9.773556143E-3,-1.771457121E-2,7.635590737E-4
4.038476895E0,2.443389036E-3,-2.137965336E-2,3.206948051E-3
4.048190333E0,-4.886778072E-3,-1.649287529E-2,4.428642802E-3
4.057903041E0,-9.773556143E-3,-9.162709117E-3,4.428642802E-3
4.067616583E0,-9.773556143E-3,6.108472589E-4,3.206948051E-3
4.077330854E0,-7.330167107E-3,1.038440317E-2,7.635590737E-4
4.087044239E0,-2.443389036E-3,1.893626526E-2,-4.581354442E-4
4.096756947E0,-2.443389036E-3,2.260134928E-2,-4.581354442E-4
4.106470489E0,-1.221694518E-3,1.771457121E-2,7.635590737E-4
4.116184760E0,1.221694518E-3,4.275931045E-3,1.985253533E-3
4.125898197E0,6.108472589E-3,-9.162709117E-3,1.985253533E-3
4.135610906E0,9.773556143E-3,-1.404948719E-2,7.635590737E-4
4.145324343E0,9.773556143E-3,-1.160609815E-2,-1.679830020E-3
4.155038666E0,7.330167107E-3,-6.719320081E-3,-2.901524538E-3
4.164752104E0,3.665083554E-3,6.108472589E-4,-4.581354442E-4
4.174464812E0,-2.443389036E-3,6.719320081E-3,3.206948051E-3
4.184178354E0,-7.330167107E-3,9.162709117E-3,4.428642802E-3
4.193892624E0,-9.773556143E-3,1.160609815E-2,4.428642802E-3
4.203606062E0,-1.099525020E-2,1.404948719E-2,1.985253533E-3
4.213318718E0,-7.330167107E-3,1.404948719E-2,-4.581354442E-4
4.223032260E0,-1.221694518E-3,1.527118124E-2,-4.123218823E-3
4.232746531E0,3.665083554E-3,1.282779220E-2,-6.566607859E-3
4.242459968E0,7.330167107E-3,6.719320081E-3,-6.566607859E-3
4.252172677E0,7.330167107E-3,1.832541777E-3,-4.123218823E-3
4.261886218E0,1.221694518E-3,-3.054236295E-3,7.635590737E-4
4.271600489E0,-3.665083554E-3,-6.719320081E-3,3.206948051E-3
4.281313927E0,-6.108472589E-3,-7.941014133E-3,4.428642802E-3
4.291026583E0,-6.108472589E-3,-6.719320081E-3,5.650337320E-3
4.300740124E0,-3.665083554E-3,-6.719320081E-3,3.206948051E-3
4.310454395E0,-1.221694518E-3,-7.941014133E-3,-4.581354442E-4
4.320167833E0,-0.000000000E0,-6.719320081E-3,-4.581354442E-4
4.329880541E0,2.443389036E-3,-4.275931045E-3,-4.581354442E-4
4.339593979E0,2.443389036E-3,-3.054236295E-3,-4.581354442E-4
4.349308354E0,1.221694518E-3,-1.832541777E-3,-1.679830020E-3
4.359021739E0,-0.000000000E0,6.108472589E-4,-1.679830020E-3
4.368734447E0,-2.443389036E-3,3.054236295E-3,-4.581354442E-4
4.378447989E0,-3.665083554E-3,5.497625098E-3,-4.581354442E-4
4.388162260E0,-6.108472589E-3,4.275931045E-3,7.635590737E-4
4.397875697E0,-6.108472589E-3,6.108472589E-4,7.635590737E-4
4.407588354E0,-4.886778072E-3,-4.275931045E-3,1.985253533E-3
4.417301895E0,-3.665083554E-3,-7.941014133E-3,1.985253533E-3
4.427016166E0,-2.443389036E-3,-9.162709117E-3,7.635590737E-4
4.436729604E0,-0.000000000E0,-5.497625098E-3,-4.581354442E-4
4.446442312E0,-0.000000000E0,-6.108472589E-4,-4.581354442E-4
4.456155854E0,1.221694518E-3,6.108472589E-4,-1.679830020E-3
4.465870124E0,-0.000000000E0,6.108472589E-4,-1.679830020E-3
4.475583510E0,-1.221694518E-3,-6.108472589E-4,-1.679830020E-3
4.485296218E0,-2.443389036E-3,-6.108472589E-4,7.635590737E-4
4.495009760E0,-1.221694518E-3,6.108472589E-4,1.985253533E-3
4.504724031E0,-0.000000000E0,6.108472589E-4,3.206948051E-3
4.514437468E0,2.443389036E-3,-6.108472589E-4,3.206948051E-3
4.524150124E0,3.665083554E-3,-6.108472589E-4,4.428642802E-3
4.533863666E0,3.665083554E-3,-1.832541777E-3,3.206948051E-3
4.543577937E0,-0.000000000E0,-5.497625098E-3,3.206948051E-3
4.553291374E0,-1.221694518E-3,-7.941014133E-3,7.635590737E-4
4.563004083E0,-2.443389036E-3,-9.162709117E-3,-4.581354442E-4
4.572717624E0,-3.665083554E-3,-6.719320081E-3,-1.679830020E-3
4.582431895E0,-2.443389036E-3,-6.108472589E-4,-2.901524538E-3
4.592145281E0,-0.000000000E0,6.719320081E-3,-1.679830020E-3
4.601857989E0,2.443389036E-3,1.160609815E-2,-4.581354442E-4
4.611571531E0,1.221694518E-3,1.282779220E-2,7.635590737E-4
4.621285802E0,-0.000000000E0,7.941014133E-3,1.985253533E-3
4.630999239E0,-1.221694518E-3,6.108472589E-4,3.206948051E-3
4.640711947E0,-1.221694518E-3,-6.719320081E-3,1.985253533E-3
4.650425385E0,-1.221694518E-3,-1.038440317E-2,3.206948051E-3
4.660139708E0,2.443389036E-3,-1.160609815E-2,3.206948051E-3
4.669853145E0,6.108472589E-3,-1.038440317E-2,1.985253533E-3
4.679565854E0,7.330167107E-3,-1.832541777E-3,7.635590737E-4
4.689279395E0,7.330167107E-3,6.719320081E-3,-2.901524538E-3
4.698993666E0,4.886778072E-3,1.404948719E-2,-4.123218823E-3
4.708707104E0,3.665083554E-3,1.527118124E-2,-2.901524538E-3
4.718419760E0,2.443389036E-3,1.160609815E-2,-1.679830020E-3
4.728133302E0,-0.000000000E0,3.054236295E-3,7.635590737E-4
4.737847572E0,-2.443389036E-3,-4.275931045E-3,7.635590737E-4
4.747561010E0,-4.886778072E-3,-5.497625098E-3,1.985253533E-3
4.757273666E0,-6.108472589E-3,-7.941014133E-3,7.635590737E-4
4.766987208E0,-3.665083554E-3,-9.162709117E-3,7.635590737E-4
4.776701479E0,1.221694518E-3,-6.719320081E-3,-4.581354442E-4
4.786414916E0,6.108472589E-3,-3.054236295E-3,-4.581354442E-4
4.796127624E0,7.330167107E-3,6.719320081E-3,7.635590737E-4
4.805841166E0,6.108472589E-3,1.282779220E-2,1.985253533E-3
4.815555437E0,2.443389036E-3,1.282779220E-2,3.206948051E-3
4.825268822E0,-0.000000000E0,5.497625098E-3,3.206948051E-3
4.834981531E0,-1.221694518E-3,-3.054236295E-3,4.428642802E-3
4.844695072E0,-1.221694518E-3,-9.162709117E-3,3.206948051E-3
4.854409343E0,-2.443389036E-3,-1.160609815E-2,1.985253533E-3
4.864122781E0,-2.443389036E-3,-9.162709117E-3,-4.581354442E-4
4.873835437E0,-2.443389036E-3,-6.719320081E-3,-4.581354442E-4
4.883548979E0,-1.221694518E-3,-1.832541777E-3,-4.581354442E-4
4.893263249E0,-0.000000000E0,4.275931045E-3,1.985253533E-3
4.902976687E0,2.443389036E-3,6.719320081E-3,1.985253533E-3
4.912689395E0,2.443389036E-3,7.941014133E-3,3.206948051E-3
4.922402833E0,1.221694518E-3,7.941014133E-3,3.206948051E-3
4.932117156E0,-0.000000000E0,5.497625098E-3,1.985253533E-3
4.941830593E0,-1.221694518E-3,6.108472589E-4,1.985253533E-3
4.951543302E0,-1.221694518E-3,-7.941014133E-3,3.206948051E-3
4.961256843E0,-1.221694518E-3,-1.282779220E-2,3.206948051E-3
4.970971114E0,-0.000000000E0,-1.282779220E-2,1.985253533E-3
4.980684499E0,-1.221694518E-3,-7.941014133E-3,7.635590737E-4
4.990397208E0,-1.221694518E-3,-6.108472589E-4,1.985253533E-3
5.000110749E0,-0.000000000E0,4.275931045E-3,4.428642802E-3
5.009825020E0,2.443389036E-3,4.275931045E-3,3.206948051E-3
5.019538458E0,2.443389036E-3,4.275931045E-3,1.985253533E-3
5.029251114E0,1.221694518E-3,4.275931045E-3,1.985253533E-3
5.038964656E0,1.221694518E-3,1.832541777E-3,1.985253533E-3
5.048678927E0,1.221694518E-3,-1.832541777E-3,3.206948051E-3
5.058392364E0,3.665083554E-3,-3.054236295E-3,3.206948051E-3
5.068105020E0,2.443389036E-3,-4.275931045E-3,3.206948051E-3
5.077818562E0,1.221694518E-3,-5.497625098E-3,3.206948051E-3
5.087532833E0,1.221694518E-3,-4.275931045E-3,7.635590737E-4
5.097246270E0,-0.000000000E0,-3.054236295E-3,7.635590737E-4
5.106958979E0,-0.000000000E0,-6.108472589E-4,7.635590737E-4
5.116672416E0,1.221694518E-3,1.832541777E-3,7.635590737E-4
5.126386739E0,3.665083554E-3,4.275931045E-3,7.635590737E-4
5.136100177E0,2.443389036E-3,4.275931045E-3,7.635590737E-4
5.145812885E0,1.221694518E-3,5.497625098E-3,3.206948051E-3
5.155526427E0,-0.000000000E0,1.832541777E-3,1.985253533E-3
5.165240697E0,-3.665083554E-3,-4.275931045E-3,1.985253533E-3
5.174954083E0,-2.443389036E-3,-5.497625098E-3,1.985253533E-3
5.184666791E0,-1.221694518E-3,-5.497625098E-3,1.985253533E-3
5.194380333E0,2.443389036E-3,-4.275931045E-3,1.985253533E-3
5.204094604E0,6.108472589E-3,-1.832541777E-3,1.985253533E-3
5.213808041E0,9.773556143E-3,6.108472589E-4,1.985253533E-3
5.223520697E0,1.343864016E-2,3.054236295E-3,1.985253533E-3
5.233234239E0,1.099525020E-2,6.719320081E-3,-4.581354442E-4
5.242948510E0,6.108472589E-3,5.497625098E-3,-2.901524538E-3
5.252661947E0,-1.221694518E-3,3.054236295E-3,-4.123218823E-3
5.262374604E0,-4.886778072E-3,-3.054236295E-3,-4.123218823E-3
5.272088145E0,-7.330167107E-3,-7.941014133E-3,-1.679830020E-3
5.281802416E0,-6.108472589E-3,-9.162709117E-3,7.635590737E-4
5.291515854E0,-3.665083554E-3,-6.719320081E-3,7.635590737E-4
5.301228510E0,-0.000000000E0,-6.108472589E-4,7.635590737E-4
5.310942052E0,2.443389036E-3,7.941014133E-3,7.635590737E-4
5.320656322E0,6.108472589E-3,1.527118124E-2,-4.123218823E-3
5.330369760E0,7.330167107E-3,1.771457121E-2,-5.344913341E-3
5.340082416E0,7.330167107E-3,1.404948719E-2,-6.566607859E-3
5.349795958E0,4.886778072E-3,6.719320081E-3,-4.123218823E-3
5.359510229E0,2.443389036E-3,-4.275931045E-3,-4.123218823E-3
5.369223666E0,1.221694518E-3,-1.282779220E-2,-4.123218823E-3
5.378936374E0,-0.000000000E0,-1.771457121E-2,-5.344913341E-3
5.388649812E0,1.221694518E-3,-1.649287529E-2,-5.344913341E-3
5.398364135E0,3.665083554E-3,-1.282779220E-2,-7.788302377E-3
5.408077572E0,3.665083554E-3,-3.054236295E-3,-9.009997360E-3
5.417790281E0,3.665083554E-3,6.719320081E-3,-9.009997360E-3
5.427503718E0,3.665083554E-3,1.404948719E-2,-6.566607859E-3
5.437218041E0,1.221694518E-3,1.404948719E-2,-1.679830020E-3
5.446931479E0,-1.221694518E-3,7.941014133E-3,1.985253533E-3
5.456644187E0,-1.221694518E-3,6.108472589E-4,3.206948051E-3
5.466357729E0,-1.221694518E-3,-4.275931045E-3,3.206948051E-3
5.476071947E0,-0.000000000E0,-7.941014133E-3,4.428642802E-3
5.485785385E0,1.221694518E-3,-1.038440317E-2,4.428642802E-3
5.495498093E0,2.443389036E-3,-1.038440317E-2,5.650337320E-3
5.505211635E0,2.443389036E-3,-6.719320081E-3,6.872031838E-3
5.514925854E0,-0.000000000E0,-1.832541777E-3,8.093725890E-3
5.524639291E0,-1.221694518E-3,5.497625098E-3,8.093725890E-3
5.534351999E0,-2.443389036E-3,1.038440317E-2,8.093725890E-3
5.544065541E0,-2.443389036E-3,1.404948719E-2,6.872031838E-3
5.553779760E0,-2.443389036E-3,1.160609815E-2,5.650337320E-3
5.563493197E0,-1.221694518E-3,5.497625098E-3,3.206948051E-3
5.573205906E0,-0.000000000E0,-6.108472589E-4,7.635590737E-4
5.582919447E0,1.221694518E-3,-7.941014133E-3,-4.581354442E-4
5.592633666E0,1.221694518E-3,-1.160609815E-2,-1.679830020E-3
5.602347104E0,1.221694518E-3,-1.038440317E-2,-2.901524538E-3
5.612059812E0,-0.000000000E0,-6.719320081E-3,-1.679830020E-3
5.621773354E0,-0.000000000E0,-4.275931045E-3,-4.123218823E-3
5.631487572E0,1.221694518E-3,-4.275931045E-3,-6.566607859E-3
5.641201010E0,-0.000000000E0,-3.054236295E-3,-6.566607859E-3
5.650913718E0,-1.221694518E-3,-1.832541777E-3,-7.788302377E-3
5.660627260E0,-0.000000000E0,-1.832541777E-3,-6.566607859E-3
5.670341479E0,1.221694518E-3,-5.497625098E-3,-6.566607859E-3
5.680054916E0,2.443389036E-3,-7.941014133E-3,-5.344913341E-3
5.689767624E0,3.665083554E-3,-6.719320081E-3,-2.901524538E-3
5.699481062E0,3.665083554E-3,-5.497625098E-3,-1.679830020E-3
5.709195385E0,1.221694518E-3,-3.054236295E-3,7.635590737E-4
5.718908822E0,-0.000000000E0,-1.832541777E-3,3.206948051E-3
5.728621531E0,-1.221694518E-3,-3.054236295E-3,4.428642802E-3
5.738334968E0,-0.000000000E0,-4.275931045E-3,5.650337320E-3
5.748049291E0,-0.000000000E0,-3.054236295E-3,4.428642802E-3
5.757762729E0,-0.000000000E0,1.832541777E-3,5.650337320E-3
5.767475437E0,-1.221694518E-3,6.719320081E-3,6.872031838E-3
5.777188874E0,2.443389036E-3,9.162709117E-3,8.093725890E-3
5.786903197E0,4.886778072E-3,1.160609815E-2,4.428642802E-3
5.796616635E0,4.886778072E-3,1.038440317E-2,1.985253533E-3
5.806329343E0,2.443389036E-3,6.719320081E-3,-1.679830020E-3
5.816042781E0,1.221694518E-3,5.497625098E-3,-4.581354442E-4
5.825757104E0,-0.000000000E0,5.497625098E-3,-4.581354442E-4
5.835470541E0,-0.000000000E0,6.108472589E-4,7.635590737E-4
5.845183197E0,-0.000000000E0,-6.108472589E-4,7.635590737E-4
5.854896739E0,-2.443389036E-3,6.108472589E-4,7.635590737E-4
5.864611010E0,-3.665083554E-3,3.054236295E-3,-4.581354442E-4
5.874324447E0,-2.443389036E-3,5.497625098E-3,-4.581354442E-4
5.884037104E0,1.221694518E-3,6.719320081E-3,-4.581354442E-4
5.893750645E0,3.665083554E-3,5.497625098E-3,-4.581354442E-4
5.903464916E0,4.886778072E-3,-6.108472589E-4,-4.123218823E-3
5.913178354E0,2.443389036E-3,-4.275931045E-3,-4.123218823E-3
5.922891010E0,-0.000000000E0,-7.941014133E-3,-1.679830020E-3
5.932604552E0,-2.443389036E-3,-1.160609815E-2,-4.581354442E-4
5.942318822E0,-3.665083554E-3,-1.282779220E-2,1.985253533E-3
5.952032208E0,-3.665083554E-3,-1.038440317E-2,1.985253533E-3
5.961744916E0,-3.665083554E-3,-5.497625098E-3,3.206948051E-3
5.971458458E0,-2.443389036E-3,-6.108472589E-4,1.985253533E-3
5.981172729E0,-2.443389036E-3,6.108472589E-4,-1.679830020E-3
5.990886114E0,-1.221694518E-3,-1.832541777E-3,-4.581354442E-4
6.000598822E0,-0.000000000E0,-3.054236295E-3,-4.581354442E-4
6.010312364E0,1.221694518E-3,-5.497625098E-3,-1.679830020E-3
6.020026583E0,-0.000000000E0,-3.054236295E-3,-2.901524538E-3
6.029740020E0,-1.221694518E-3,-6.108472589E-4,-1.679830020E-3
6.039452729E0,-2.443389036E-3,-6.108472589E-4,-4.581354442E-4
6.049166166E0,-2.443389036E-3,-4.275931045E-3,-2.901524538E-3
6.058880489E0,-1.221694518E-3,-4.275931045E-3,-2.901524538E-3
6.068593927E0,-1.221694518E-3,-3.054236295E-3,-2.901524538E-3
6.078306635E0,-1.221694518E-3,6.108472589E-4,-2.901524538E-3
6.088020072E0,-1.221694518E-3,3.054236295E-3,-4.581354442E-4
6.097734395E0,1.221694518E-3,3.054236295E-3,-4.581354442E-4
6.107447833E0,1.221694518E-3,1.832541777E-3,7.635590737E-4
6.117160489E0,1.221694518E-3,-6.108472589E-4,7.635590737E-4
6.126874031E0,-0.000000000E0,-1.832541777E-3,1.985253533E-3
6.136588302E0,-0.000000000E0,-3.054236295E-3,1.985253533E-3
6.146301739E0,2.443389036E-3,-4.275931045E-3,1.985253533E-3
6.156014395E0,3.665083554E-3,-1.832541777E-3,3.206948051E-3
6.165727937E0,2.443389036E-3,-6.108472589E-4,3.206948051E-3
6.175442208E0,-0.000000000E0,1.832541777E-3,1.985253533E-3
6.185155593E0,-2.443389036E-3,3.054236295E-3,7.635590737E-4
6.194868302E0,-2.443389036E-3,4.275931045E-3,7.635590737E-4
6.204581843E0,-2.443389036E-3,4.275931045E-3,7.635590737E-4
6.214296062E0,-3.665083554E-3,1.832541777E-3,-4.581354442E-4
6.224009499E0,-3.665083554E-3,-1.832541777E-3,-4.581354442E-4
6.233722208E0,-2.443389036E-3,-4.275931045E-3,-4.581354442E-4
6.243435645E0,-0.000000000E0,-7.941014133E-3,-1.679830020E-3
6.253149968E0,1.221694518E-3,-7.941014133E-3,-1.679830020E-3
6.262863406E0,1.221694518E-3,-5.497625098E-3,-2.901524538E-3
6.272576062E0,2.443389036E-3,-1.832541777E-3,-4.581354442E-4
6.282289604E0,3.665083554E-3,-6.108472589E-4,-4.581354442E-4
6.292003874E0,2.443389036E-3,-6.108472589E-4,1.985253533E-3
6.301717312E0,1.221694518E-3,-1.832541777E-3,7.635590737E-4
6.311429968E0,-1.221694518E-3,-1.832541777E-3,-4.581354442E-4
6.321143510E0,-2.443389036E-3,-1.832541777E-3,7.635590737E-4
6.330857781E0,-0.000000000E0,-6.108472589E-4,1.985253533E-3
6.340571166E0,2.443389036E-3,6.108472589E-4,-4.581354442E-4
6.350283874E0,2.443389036E-3,6.108472589E-4,-2.901524538E-3
6.359997312E0,1.221694518E-3,6.108472589E-4,-4.123218823E-3
6.369711635E0,-1.221694518E-3,5.497625098E-3,-2.901524538E-3
6.379425072E0,-1.221694518E-3,7.941014133E-3,7.635590737E-4
6.389137781E0,-1.221694518E-3,6.719320081E-3,3.206948051E-3
6.398851218E0,-0.000000000E0,4.275931045E-3,3.206948051E-3
6.408565541E0,1.221694518E-3,1.832541777E-3,4.428642802E-3
6.418278979E0,-0.000000000E0,-1.832541777E-3,3.206948051E-3
6.427991635E0,1.221694518E-3,-5.497625098E-3,7.635590737E-4
6.437705177E0,1.221694518E-3,-9.162709117E-3,-4.581354442E-4
6.447419447E0,1.221694518E-3,-9.162709117E-3,-1.679830020E-3
6.457132833E0,1.221694518E-3,-4.275931045E-3,-1.679830020E-3
6.466845541E0,1.221694518E-3,5.497625098E-3,-2.901524538E-3
6.476559083E0,-0.000000000E0,1.404948719E-2,-1.679830020E-3
6.486273302E0,-0.000000000E0,1.404948719E-2,-4.581354442E-4
6.495986739E0,-1.221694518E-3,6.719320081E-3,7.635590737E-4
6.505699395E0,-0.000000000E0,6.108472589E-4,-4.581354442E-4
6.515412937E0,-1.221694518E-3,-4.275931045E-3,-1.679830020E-3
6.525127208E0,-2.443389036E-3,-7.941014133E-3,-1.679830020E-3
6.534840645E0,-2.443389036E-3,-1.038440317E-2,-1.679830020E-3
6.544553302E0,-1.221694518E-3,-1.160609815E-2,-2.901524538E-3
6.554266843E0,1.221694518E-3,-9.162709117E-3,-4.581354442E-4
6.563981114E0,-0.000000000E0,-7.941014133E-3,1.985253533E-3
6.573694499E0,-1.221694518E-3,-1.832541777E-3,3.206948051E-3
6.583407208E0,-2.443389036E-3,3.054236295E-3,1.985253533E-3
6.593120645E0,-2.443389036E-3,5.497625098E-3,1.985253533E-3
6.602834968E0,-3.665083554E-3,4.275931045E-3,7.635590737E-4
6.612548406E0,-3.665083554E-3,-1.832541777E-3,1.985253533E-3
6.622261062E0,-3.665083554E-3,-7.941014133E-3,7.635590737E-4
6.631974604E0,-2.443389036E-3,-9.162709117E-3,1.985253533E-3
6.641688874E0,-2.443389036E-3,-7.941014133E-3,1.985253533E-3
6.651402260E0,-2.443389036E-3,-5.497625098E-3,3.206948051E-3
6.661114968E0,-2.443389036E-3,-4.275931045E-3,1.985253533E-3
6.670828510E0,1.221694518E-3,-3.054236295E-3,1.985253533E-3
6.680542729E0,1.221694518E-3,-6.108472589E-4,7.635590737E-4
6.690256166E0,1.221694518E-3,6.108472589E-4,7.635590737E-4
6.699968822E0,-1.221694518E-3,-6.108472589E-4,7.635590737E-4
6.709682364E0,-1.221694518E-3,-4.275931045E-3,7.635590737E-4
6.719396635E0,-1.221694518E-3,-5.497625098E-3,7.635590737E-4
6.729110020E0,1.221694518E-3,-6.719320081E-3,-4.581354442E-4
6.738822729E0,3.665083554E-3,-5.497625098E-3,-4.581354442E-4
6.748536270E0,2.443389036E-3,-3.054236295E-3,-4.581354442E-4
6.758250489E0,-0.000000000E0,-6.108472589E-4,7.635590737E-4
6.767963927E0,-0.000000000E0,-6.108472589E-4,7.635590737E-4
6.777676635E0,1.221694518E-3,6.108472589E-4,3.206948051E-3
6.787390072E0,1.221694518E-3,6.108472589E-4,3.206948051E-3
6.797104395E0,1.221694518E-3,1.832541777E-3,1.985253533E-3
6.806817833E0,1.221694518E-3,4.275931045E-3,1.985253533E-3
6.816530489E0,-0.000000000E0,4.275931045E-3,1.985253533E-3
6.826244031E0,-1.221694518E-3,1.832541777E-3,1.985253533E-3
6.835958249E0,-1.221694518E-3,-4.275931045E-3,1.985253533E-3
6.845671687E0,-0.000000000E0,-6.719320081E-3,1.985253533E-3
6.855384343E0,1.221694518E-3,-5.497625098E-3,1.985253533E-3
6.865097885E0,6.108472589E-3,-6.108472589E-4,3.206948051E-3
6.874812156E0,9.773556143E-3,3.054236295E-3,4.428642802E-3
6.884525593E0,8.551862091E-3,9.162709117E-3,4.428642802E-3
6.894238249E0,6.108472589E-3,1.160609815E-2,1.985253533E-3
6.903951791E0,-0.000000000E0,9.162709117E-3,1.985253533E-3
6.913666010E0,-3.665083554E-3,1.832541777E-3,1.985253533E-3
6.923379447E0,-3.665083554E-3,-4.275931045E-3,1.985253533E-3
6.933092104E0,-2.443389036E-3,-7.941014133E-3,1.985253533E-3
6.942805645E0,-1.221694518E-3,-6.719320081E-3,1.985253533E-3
6.952519916E0,1.221694518E-3,-6.108472589E-4,7.635590737E-4
6.962233354E0,1.221694518E-3,4.275931045E-3,-1.679830020E-3
6.971946010E0,2.443389036E-3,9.162709117E-3,-1.679830020E-3
6.981659552E0,3.665083554E-3,9.162709117E-3,-1.679830020E-3
6.991373770E0,2.443389036E-3,6.719320081E-3,-4.581354442E-4
7.001087208E0,1.221694518E-3,1.832541777E-3,7.635590737E-4
7.010799864E0,1.221694518E-3,-6.719320081E-3,1.985253533E-3
7.020513406E0,1.221694518E-3,-1.038440317E-2,1.985253533E-3
7.030227677E0,1.221694518E-3,-1.038440317E-2,-4.581354442E-4
7.039941062E0,1.221694518E-3,-7.941014133E-3,7.635590737E-4
7.049653770E0,-0.000000000E0,-4.275931045E-3,3.206948051E-3
7.059367208E0,1.221694518E-3,-3.054236295E-3,3.206948051E-3
7.069081531E0,2.443389036E-3,-3.054236295E-3,4.428642802E-3
7.078794968E0,3.665083554E-3,-3.054236295E-3,3.206948051E-3
7.088507624E0,4.886778072E-3,-4.275931045E-3,1.985253533E-3
7.098221166E0,6.108472589E-3,-6.719320081E-3,4.428642802E-3
7.107935437E0,4.886778072E-3,-9.162709117E-3,4.428642802E-3
7.117648822E0,3.665083554E-3,-1.404948719E-2,3.206948051E-3
7.127361531E0,6.108472589E-3,-1.893626526E-2,1.985253533E-3
7.137074968E0,8.551862091E-3,-2.260134928E-2,7.635590737E-4
7.146789291E0,1.343864016E-2,-2.382304333E-2,-4.581354442E-4
7.156502729E0,1.588202827E-2,-2.382304333E-2,7.635590737E-4
7.166215385E0,1.099525020E-2,-1.893626526E-2,1.985253533E-3
7.175928927E0,2.443389036E-3,-3.054236295E-3,4.428642802E-3
7.185643145E0,-4.886778072E-3,1.282779220E-2,8.093725890E-3
7.195356583E0,-8.551862091E-3,1.771457121E-2,1.175880991E-2
7.205069239E0,-7.330167107E-3,1.404948719E-2,1.175880991E-2
7.214782781E0,-4.886778072E-3,9.162709117E-3,1.053711493E-2
7.224497052E0,-1.221694518E-3,5.497625098E-3,1.053711493E-2
7.234210437E0,1.221694518E-3,3.054236295E-3,8.093725890E-3
7.243923145E0,1.221694518E-3,-6.108472589E-4,4.428642802E-3
7.253636583E0,2.443389036E-3,-3.054236295E-3,1.985253533E-3
7.263350906E0,3.665083554E-3,-5.497625098E-3,-2.901524538E-3
7.273064343E0,4.886778072E-3,-5.497625098E-3,-4.123218823E-3
7.282776999E0,3.665083554E-3,-1.832541777E-3,-6.566607859E-3
7.292490541E0,4.886778072E-3,1.832541777E-3,-7.788302377E-3
7.302204760E0,6.108472589E-3,5.497625098E-3,-9.009997360E-3
7.311918197E0,4.886778072E-3,6.719320081E-3,-7.788302377E-3
7.321630854E0,1.221694518E-3,6.719320081E-3,-6.566607859E-3
7.331344395E0,-4.886778072E-3,4.275931045E-3,-6.566607859E-3
7.341058666E0,-7.330167107E-3,-6.108472589E-4,-6.566607859E-3
7.350772052E0,-6.108472589E-3,-3.054236295E-3,-6.566607859E-3
7.360484760E0,-3.665083554E-3,-6.719320081E-3,-4.123218823E-3
7.370198197E0,-0.000000000E0,-9.162709117E-3,-2.901524538E-3
7.379912520E0,2.443389036E-3,-9.162709117E-3,-4.581354442E-4
7.389625958E0,3.665083554E-3,-4.275931045E-3,7.635590737E-4
7.399338614E0,2.443389036E-3,1.832541777E-3,1.985253533E-3
7.409052156E0,-0.000000000E0,5.497625098E-3,3.206948051E-3
7.418766374E0,1.221694518E-3,1.832541777E-3,1.985253533E-3
7.428479812E0,2.443389036E-3,-1.832541777E-3,1.985253533E-3
7.438192468E0,1.221694518E-3,-3.054236295E-3,7.635590737E-4
7.447906010E0,-0.000000000E0,1.832541777E-3,-4.123218823E-3
7.457620229E0,-1.221694518E-3,6.719320081E-3,-6.566607859E-3
7.467333666E0,1.221694518E-3,1.038440317E-2,-6.566607859E-3
7.477046374E0,3.665083554E-3,6.719320081E-3,-5.344913341E-3
7.486759812E0,6.108472589E-3,4.275931045E-3,-2.901524538E-3
7.496474135E0,3.665083554E-3,3.054236295E-3,7.635590737E-4
7.506187520E0,2.443389036E-3,5.497625098E-3,7.635590737E-4
7.515900229E0,2.443389036E-3,5.497625098E-3,3.206948051E-3
7.525613666E0,3.665083554E-3,6.108472589E-4,5.650337320E-3
7.535327989E0,4.886778072E-3,-5.497625098E-3,5.650337320E-3
7.545041427E0,3.665083554E-3,-6.719320081E-3,8.093725890E-3
7.554754083E0,1.221694518E-3,-3.054236295E-3,9.315420873E-3
7.564467624E0,-2.443389036E-3,3.054236295E-3,9.315420873E-3
7.574181843E0,-3.665083554E-3,5.497625098E-3,6.872031838E-3
7.583895281E0,-1.221694518E-3,5.497625098E-3,6.872031838E-3
7.593607937E0,-1.221694518E-3,5.497625098E-3,4.428642802E-3
7.603321479E0,-0.000000000E0,7.941014133E-3,7.635590737E-4
7.613035749E0,1.221694518E-3,1.282779220E-2,7.635590737E-4
7.622749135E0,2.443389036E-3,1.404948719E-2,7.635590737E-4
7.632461843E0,1.221694518E-3,1.038440317E-2,3.206948051E-3
7.642175281E0,-1.221694518E-3,4.275931045E-3,3.206948051E-3
7.651889604E0,-3.665083554E-3,-1.832541777E-3,1.985253533E-3
7.661602989E0,-4.886778072E-3,-5.497625098E-3,-1.679830020E-3
7.671315697E0,-3.665083554E-3,-5.497625098E-3,-2.901524538E-3
7.681029135E0,-1.221694518E-3,-6.719320081E-3,-2.901524538E-3
7.690743458E0,2.443389036E-3,-6.719320081E-3,-2.901524538E-3
7.700456895E0,4.886778072E-3,-6.719320081E-3,-1.679830020E-3
7.710169552E0,4.886778072E-3,-5.497625098E-3,-4.581354442E-4
7.719882989E0,2.443389036E-3,-4.275931045E-3,3.206948051E-3
7.729597312E0,1.221694518E-3,-4.275931045E-3,1.985253533E-3
7.739310749E0,-0.000000000E0,-4.275931045E-3,3.206948051E-3
7.749023406E0,-2.443389036E-3,-3.054236295E-3,1.985253533E-3
7.758736947E0,-2.443389036E-3,-6.108472589E-4,-4.581354442E-4
7.768451166E0,-1.221694518E-3,1.832541777E-3,7.635590737E-4
7.778164604E0,1.221694518E-3,6.108472589E-4,-1.679830020E-3
7.787877260E0,1.221694518E-3,-3.054236295E-3,-4.581354442E-4
7.797590802E0,2.443389036E-3,-4.275931045E-3,7.635590737E-4
7.807305020E0,2.443389036E-3,-4.275931045E-3,7.635590737E-4
7.817018458E0,1.221694518E-3,-3.054236295E-3,3.206948051E-3
7.826731114E0,-0.000000000E0,-6.108472589E-4,1.985253533E-3
7.836444656E0,-1.221694518E-3,3.054236295E-3,1.985253533E-3
7.846158927E0,-2.443389036E-3,5.497625098E-3,-4.581354442E-4
7.855872312E0,-2.443389036E-3,5.497625098E-3,7.635590737E-4
7.865584968E0,-2.443389036E-3,3.054236295E-3,7.635590737E-4
7.875298510E0,-1.221694518E-3,-6.108472589E-4,-4.581354442E-4
7.885012781E0,-0.000000000E0,-6.108472589E-4,-4.581354442E-4
7.894726166E0,-0.000000000E0,6.108472589E-4,7.635590737E-4
7.904438874E0,-0.000000000E0,3.054236295E-3,7.635590737E-4
7.914152312E0,1.221694518E-3,3.054236295E-3,7.635590737E-4
7.923865310E0,2.443389036E-3,6.108472589E-4,7.635590737E-4
7.933578695E0,3.665083554E-3,-1.832541777E-3,7.635590737E-4
7.943291404E0,4.886778072E-3,-5.497625098E-3,1.985253533E-3
7.953004841E0,4.886778072E-3,-1.038440317E-2,3.206948051E-3
7.962719164E0,6.108472589E-3,-1.404948719E-2,5.650337320E-3
7.972432602E0,6.108472589E-3,-1.160609815E-2,5.650337320E-3
7.982145258E0,1.221694518E-3,-3.054236295E-3,1.985253533E-3
7.991858695E0,-2.443389036E-3,5.497625098E-3,-4.581354442E-4
8.001573018E0,-6.108472589E-3,7.941014133E-3,-4.123218823E-3
8.011286404E0,-6.108472589E-3,9.162709117E-3,-5.344913341E-3
8.020999112E0,-4.886778072E-3,7.941014133E-3,-5.344913341E-3
8.030712549E0,-3.665083554E-3,7.941014133E-3,-4.123218823E-3
8.040426872E0,-3.665083554E-3,1.038440317E-2,-4.123218823E-3
8.050140310E0,-4.886778072E-3,9.162709117E-3,-2.901524538E-3
8.059852966E0,-1.221694518E-3,4.275931045E-3,-5.344913341E-3
8.069566508E0,1.221694518E-3,-1.832541777E-3,-5.344913341E-3
8.079280727E0,4.886778072E-3,-5.497625098E-3,-5.344913341E-3
8.088994164E0,6.108472589E-3,-6.719320081E-3,-5.344913341E-3
8.098706820E0,6.108472589E-3,-7.941014133E-3,-5.344913341E-3
8.108420362E0,4.886778072E-3,-7.941014133E-3,-4.123218823E-3
8.118134581E0,2.443389036E-3,-7.941014133E-3,-2.901524538E-3
8.127848018E0,-0.000000000E0,-4.275931045E-3,-1.679830020E-3
8.137560674E0,-3.665083554E-3,-6.108472589E-4,7.635590737E-4
8.147274216E0,-6.108472589E-3,3.054236295E-3,1.985253533E-3
8.156988435E0,-7.330167107E-3,7.941014133E-3,1.985253533E-3
8.166701872E0,-4.886778072E-3,1.038440317E-2,7.635590737E-4
8.176414529E0,-1.221694518E-3,9.162709117E-3,1.985253533E-3
8.186128070E0,1.221694518E-3,4.275931045E-3,3.206948051E-3
8.195842289E0,2.443389036E-3,-6.108472589E-4,4.428642802E-3
8.205555727E0,1.221694518E-3,-6.719320081E-3,4.428642802E-3
8.215268383E0,1.221694518E-3,-1.038440317E-2,4.428642802E-3
8.224981924E0,-0.000000000E0,-1.160609815E-2,3.206948051E-3
8.234696143E0,-1.221694518E-3,-7.941014133E-3,7.635590737E-4
8.244409581E0,-1.221694518E-3,-1.832541777E-3,7.635590737E-4
8.254122237E0,-1.221694518E-3,4.275931045E-3,-4.581354442E-4
8.263835779E0,-1.221694518E-3,7.941014133E-3,-1.679830020E-3
8.273549997E0,-2.443389036E-3,6.719320081E-3,-2.901524538E-3
8.283263435E0,-3.665083554E-3,4.275931045E-3,-2.901524538E-3
8.292976091E0,-1.221694518E-3,-6.108472589E-4,-2.901524538E-3
8.302689633E0,-1.221694518E-3,-6.719320081E-3,-2.901524538E-3
8.312403852E0,1.221694518E-3,-9.162709117E-3,-2.901524538E-3
8.322117289E0,1.221694518E-3,-7.941014133E-3,-1.679830020E-3
8.331829945E0,-0.000000000E0,-5.497625098E-3,-4.581354442E-4
8.341543487E0,1.221694518E-3,-1.832541777E-3,-1.679830020E-3
8.351257706E0,1.221694518E-3,6.108472589E-4,7.635590737E-4
8.360971143E0,1.221694518E-3,-6.108472589E-4,-4.581354442E-4
8.370683799E0,2.443389036E-3,-6.108472589E-4,7.635590737E-4
8.380397341E0,1.221694518E-3,-1.832541777E-3,7.635590737E-4
8.390111560E0,-3.665083554E-3,-5.497625098E-3,7.635590737E-4
8.399824997E0,-4.886778072E-3,-7.941014133E-3,-4.581354442E-4
8.409537654E0,-4.886778072E-3,-7.941014133E-3,-1.679830020E-3
8.419251195E0,-1.221694518E-3,-4.275931045E-3,-2.901524538E-3
8.428965466E0,1.221694518E-3,1.832541777E-3,-2.901524538E-3
8.438678852E0,2.443389036E-3,7.941014133E-3,-1.679830020E-3
8.448391560E0,2.443389036E-3,1.038440317E-2,-4.581354442E-4
8.458104997E0,-0.000000000E0,9.162709117E-3,7.635590737E-4
8.467819320E0,-0.000000000E0,3.054236295E-3,1.985253533E-3
8.477532706E0,-1.221694518E-3,-1.832541777E-3,7.635590737E-4
8.487245414E0,-0.000000000E0,-6.719320081E-3,7.635590737E-4
8.496958852E0,1.221694518E-3,-7.941014133E-3,1.985253533E-3
8.506673174E0,3.665083554E-3,-6.719320081E-3,1.985253533E-3
8.516386560E0,6.108472589E-3,1.832541777E-3,7.635590737E-4
8.526099268E0,4.886778072E-3,1.038440317E-2,-1.679830020E-3
8.535812706E0,-0.000000000E0,1.282779220E-2,-2.901524538E-3
8.545527029E0,-2.443389036E-3,1.038440317E-2,-2.901524538E-3
8.555240414E0,-4.886778072E-3,4.275931045E-3,-1.679830020E-3
8.564953122E0,-3.665083554E-3,-6.108472589E-4,7.635590737E-4
8.574666560E0,-3.665083554E-3,-1.832541777E-3,1.985253533E-3
8.584380883E0,-1.221694518E-3,1.832541777E-3,1.985253533E-3
8.594094268E0,-0.000000000E0,1.832541777E-3,1.985253533E-3
8.603806977E0,2.443389036E-3,1.832541777E-3,1.985253533E-3
8.613520414E0,3.665083554E-3,6.108472589E-4,7.635590737E-4
8.623234737E0,4.886778072E-3,-1.832541777E-3,-4.581354442E-4
8.632948122E0,4.886778072E-3,-4.275931045E-3,-1.679830020E-3
8.642660831E0,3.665083554E-3,-4.275931045E-3,-1.679830020E-3
8.652374268E0,1.221694518E-3,-3.054236295E-3,-4.581354442E-4
8.662088591E0,-1.221694518E-3,-1.832541777E-3,7.635590737E-4
8.671802029E0,-3.665083554E-3,-1.832541777E-3,7.635590737E-4
8.681514685E0,-3.665083554E-3,-4.275931045E-3,7.635590737E-4
8.691228122E0,-3.665083554E-3,-1.832541777E-3,-4.581354442E-4
8.700942445E0,-2.443389036E-3,6.108472589E-4,-1.679830020E-3
8.710655883E0,-2.443389036E-3,1.832541777E-3,-2.901524538E-3
8.720368539E0,-1.221694518E-3,1.832541777E-3,-1.679830020E-3
8.730082081E0,-0.000000000E0,-6.108472589E-4,-4.581354442E-4
8.739796299E0,-0.000000000E0,-3.054236295E-3,7.635590737E-4
8.749509737E0,-0.000000000E0,-6.719320081E-3,1.985253533E-3
8.759222393E0,-0.000000000E0,-7.941014133E-3,7.635590737E-4
8.768935935E0,-0.000000000E0,-6.719320081E-3,7.635590737E-4
8.778650154E0,-1.221694518E-3,-4.275931045E-3,1.985253533E-3
8.788363591E0,-1.221694518E-3,-1.832541777E-3,7.635590737E-4
8.798076247E0,-1.221694518E-3,-6.108472589E-4,7.635590737E-4
8.807789789E0,-1.221694518E-3,6.108472589E-4,7.635590737E-4
8.817504008E0,-1.221694518E-3,6.108472589E-4,-4.581354442E-4
8.827217445E0,-2.443389036E-3,6.108472589E-4,7.635590737E-4
8.836930102E0,-3.665083554E-3,-6.108472589E-4,1.985253533E-3
8.846643643E0,-2.443389036E-3,6.108472589E-4,7.635590737E-4
8.856357862E0,-1.221694518E-3,1.832541777E-3,1.985253533E-3
8.866071299E0,-0.000000000E0,6.108472589E-4,7.635590737E-4
8.875783956E0,-0.000000000E0,-1.832541777E-3,7.635590737E-4
8.885497497E0,1.221694518E-3,-5.497625098E-3,1.985253533E-3
8.895211768E0,2.443389036E-3,-3.054236295E-3,1.985253533E-3
8.904925154E0,3.665083554E-3,-6.108472589E-4,1.985253533E-3
8.914637810E0,2.443389036E-3,-1.832541777E-3,1.985253533E-3
8.924351352E0,2.443389036E-3,-3.054236295E-3,7.635590737E-4
8.934065622E0,2.443389036E-3,-3.054236295E-3,-4.581354442E-4
8.943779008E0,1.221694518E-3,-1.832541777E-3,-4.581354442E-4
8.953491716E0,-1.221694518E-3,-6.108472589E-4,-1.679830020E-3
8.963205154E0,-3.665083554E-3,1.832541777E-3,-4.581354442E-4
8.972919477E0,-2.443389036E-3,3.054236295E-3,-2.901524538E-3
8.982632862E0,-2.443389036E-3,3.054236295E-3,-1.679830020E-3
8.992345570E0,-1.221694518E-3,1.832541777E-3,-1.679830020E-3
9.002059008E0,-0.000000000E0,-6.108472589E-4,-4.581354442E-4
9.011773331E0,1.221694518E-3,6.108472589E-4,-4.581354442E-4
9.021486716E0,3.665083554E-3,3.054236295E-3,7.635590737E-4
9.031199424E0,3.665083554E-3,3.054236295E-3,3.206948051E-3
9.040912862E0,2.443389036E-3,6.108472589E-4,5.650337320E-3
9.050627185E0,2.443389036E-3,-1.832541777E-3,4.428642802E-3
9.060340622E0,2.443389036E-3,3.054236295E-3,5.650337320E-3
9.070053279E0,-0.000000000E0,5.497625098E-3,5.650337320E-3
9.079766820E0,-2.443389036E-3,3.054236295E-3,3.206948051E-3
9.089481039E0,-2.443389036E-3,-6.108472589E-4,-4.581354442E-4
9.099194477E0,-0.000000000E0,-6.108472589E-4,-1.679830020E-3
9.108907133E0,1.221694518E-3,-1.832541777E-3,-2.901524538E-3
9.118620674E0,-0.000000000E0,-4.275931045E-3,-1.679830020E-3
9.128334893E0,-0.000000000E0,-3.054236295E-3,-1.679830020E-3
9.138048331E0,-1.221694518E-3,-6.108472589E-4,-1.679830020E-3
9.147760987E0,-0.000000000E0,4.275931045E-3,-4.581354442E-4
9.157474529E0,1.221694518E-3,5.497625098E-3,1.985253533E-3
9.167188799E0,3.665083554E-3,4.275931045E-3,7.635590737E-4
9.176902185E0,4.886778072E-3,-6.108472589E-4,7.635590737E-4
9.186614893E0,4.886778072E-3,-6.719320081E-3,1.985253533E-3
9.196328331E0,3.665083554E-3,-9.162709117E-3,1.985253533E-3
9.206042654E0,-0.000000000E0,-7.941014133E-3,1.985253533E-3
9.215756039E0,-2.443389036E-3,-4.275931045E-3,7.635590737E-4
9.225468747E0,-2.443389036E-3,-6.108472589E-4,1.985253533E-3
9.235182185E0,-0.000000000E0,-1.832541777E-3,3.206948051E-3
9.244896508E0,2.443389036E-3,-1.832541777E-3,7.635590737E-4
9.254609945E0,2.443389036E-3,6.719320081E-3,-4.581354442E-4
9.264322602E0,1.221694518E-3,1.404948719E-2,7.635590737E-4
9.274036039E0,-1.221694518E-3,9.162709117E-3,3.206948051E-3
9.283750362E0,-0.000000000E0,-6.108472589E-4,8.093725890E-3
9.293463799E0,-1.221694518E-3,-4.275931045E-3,9.315420873E-3
9.303176456E0,-2.443389036E-3,-3.054236295E-3,8.093725890E-3
9.312889997E0,-3.665083554E-3,-3.054236295E-3,6.872031838E-3
9.322604216E0,-2.443389036E-3,-4.275931045E-3,4.428642802E-3
9.332317654E0,-1.221694518E-3,-6.719320081E-3,-1.679830020E-3
9.342030310E0,-1.221694518E-3,-5.497625098E-3,-4.123218823E-3
9.351743852E0,-2.443389036E-3,-4.275931045E-3,-4.123218823E-3
9.361458122E0,-1.221694518E-3,6.108472589E-4,-5.344913341E-3
9.371171508E0,1.221694518E-3,6.719320081E-3,-4.123218823E-3
9.380884216E0,3.665083554E-3,1.038440317E-2,-5.344913341E-3
9.390597654E0,4.886778072E-3,1.038440317E-2,-4.123218823E-3
9.400311977E0,3.665083554E-3,5.497625098E-3,-2.901524538E-3
9.410025362E0,-0.000000000E0,-3.054236295E-3,-4.581354442E-4
9.419738070E0,-3.665083554E-3,-9.162709117E-3,7.635590737E-4
9.429451508E0,-3.665083554E-3,-1.404948719E-2,1.985253533E-3
9.439165831E0,-1.221694518E-3,-1.527118124E-2,3.206948051E-3
9.448879268E0,1.221694518E-3,-1.038440317E-2,1.985253533E-3
9.458591924E0,4.886778072E-3,-4.275931045E-3,1.985253533E-3
9.468305466E0,4.886778072E-3,1.832541777E-3,7.635590737E-4
9.478019685E0,2.443389036E-3,5.497625098E-3,-4.581354442E-4
9.487733122E0,-0.000000000E0,7.941014133E-3,-1.679830020E-3
9.497445779E0,-2.443389036E-3,6.719320081E-3,-1.679830020E-3
9.507159320E0,-2.443389036E-3,3.054236295E-3,-4.581354442E-4
9.516873591E0,-3.665083554E-3,-1.832541777E-3,7.635590737E-4
9.526586977E0,-2.443389036E-3,-4.275931045E-3,7.635590737E-4
9.536299685E0,-0.000000000E0,-4.275931045E-3,7.635590737E-4
9.546013122E0,3.665083554E-3,-3.054236295E-3,-4.581354442E-4
9.555727445E0,4.886778072E-3,-3.054236295E-3,-1.679830020E-3
9.565440831E0,6.108472589E-3,-3.054236295E-3,-1.679830020E-3
9.575153539E0,6.108472589E-3,-6.108472589E-4,7.635590737E-4
9.584867081E0,3.665083554E-3,6.108472589E-4,1.985253533E-3
9.594581299E0,4.886778072E-3,3.054236295E-3,3.206948051E-3
9.604294737E0,3.665083554E-3,9.162709117E-3,3.206948051E-3
9.614007393E0,-0.000000000E0,1.282779220E-2,1.985253533E-3
9.623720935E0,-3.665083554E-3,1.160609815E-2,-4.581354442E-4
9.633435206E0,-4.886778072E-3,9.162709117E-3,-1.679830020E-3
9.643148591E0,-6.108472589E-3,6.719320081E-3,-4.581354442E-4
9.652861299E0,-2.443389036E-3,3.054236295E-3,7.635590737E-4
9.662574737E0,-0.000000000E0,-6.108472589E-4,-4.581354442E-4
9.672289060E0,1.221694518E-3,6.108472589E-4,-4.581354442E-4
9.682002445E0,1.221694518E-3,1.832541777E-3,-4.581354442E-4
9.691715154E0,1.221694518E-3,1.832541777E-3,-1.679830020E-3
9.701428591E0,2.443389036E-3,3.054236295E-3,-2.901524538E-3
9.711142914E0,2.443389036E-3,1.832541777E-3,-2.901524538E-3
9.720856352E0,3.665083554E-3,6.108472589E-4,-1.679830020E-3
9.730569008E0,3.665083554E-3,-1.832541777E-3,-1.679830020E-3
9.740282549E0,2.443389036E-3,-1.832541777E-3,-1.679830020E-3
9.749996820E0,2.443389036E-3,-1.832541777E-3,-4.581354442E-4
9.759710206E0,1.221694518E-3,-4.275931045E-3,-4.581354442E-4
9.769422862E0,-0.000000000E0,-4.275931045E-3,-1.679830020E-3
9.779136404E0,-1.221694518E-3,-3.054236295E-3,-1.679830020E-3
9.788850674E0,-2.443389036E-3,-3.054236295E-3,-2.901524538E-3
9.798564060E0,-2.443389036E-3,-1.832541777E-3,-2.901524538E-3
9.808276768E0,-2.443389036E-3,6.108472589E-4,-2.901524538E-3
9.817990206E0,-1.221694518E-3,1.832541777E-3,-1.679830020E-3
9.827704529E0,-1.221694518E-3,4.275931045E-3,7.635590737E-4
9.837417966E0,-1.221694518E-3,4.275931045E-3,3.206948051E-3
9.847130622E0,-2.443389036E-3,3.054236295E-3,3.206948051E-3
9.856844164E0,-0.000000000E0,-1.832541777E-3,3.206948051E-3
9.866558435E0,-0.000000000E0,-7.941014133E-3,1.985253533E-3
9.876271820E0,-1.221694518E-3,-1.160609815E-2,1.985253533E-3
9.885984477E0,-1.221694518E-3,-1.160609815E-2,7.635590737E-4
9.895698018E0,-1.221694518E-3,-7.941014133E-3,-4.581354442E-4
9.905412289E0,-1.221694518E-3,-1.832541777E-3,-1.679830020E-3
9.915125674E0,-1.221694518E-3,3.054236295E-3,-4.581354442E-4
9.924838383E0,-1.221694518E-3,9.162709117E-3,-4.581354442E-4
9.934551820E0,-0.000000000E0,1.160609815E-2,-1.679830020E-3
9.944266143E0,-0.000000000E0,1.160609815E-2,-1.679830020E-3
9.953979581E0,1.221694518E-3,7.941014133E-3,-4.581354442E-4
9.963692237E0,1.221694518E-3,6.108472589E-4,-4.581354442E-4
9.973405779E0,-0.000000000E0,-7.941014133E-3,7.635590737E-4
9.983119997E0,2.443389036E-3,-1.282779220E-2,-4.581354442E-4
9.992833435E0,3.665083554E-3,-1.649287529E-2,-1.679830020E-3
1.000254609E1,3.665083554E-3,-1.404948719E-2,-1.679830020E-3
1.001225963E1,1.221694518E-3,-7.941014133E-3,-4.581354442E-4
1.002197390E1,-0.000000000E0,-1.832541777E-3,-1.679830020E-3
1.003168729E1,-3.665083554E-3,5.497625098E-3,7.635590737E-4
1.004140000E1,-4.886778072E-3,9.162709117E-3,-4.581354442E-4
1.005111344E1,-3.665083554E-3,9.162709117E-3,-1.679830020E-3
1.006082776E1,-1.221694518E-3,6.719320081E-3,-4.581354442E-4
1.007054120E1,-1.221694518E-3,3.054236295E-3,-1.679830020E-3
1.008025385E1,-0.000000000E0,-3.054236295E-3,-4.581354442E-4
1.008996739E1,-0.000000000E0,-7.941014133E-3,7.635590737E-4
1.009968161E1,2.443389036E-3,-1.038440317E-2,1.985253533E-3
1.010939505E1,3.665083554E-3,-9.162709117E-3,1.985253533E-3
1.011910771E1,3.665083554E-3,-5.497625098E-3,4.428642802E-3
1.012882125E1,6.108472589E-3,-6.108472589E-4,4.428642802E-3
1.013853552E1,4.886778072E-3,5.497625098E-3,3.206948051E-3
1.014824890E1,2.443389036E-3,7.941014133E-3,-4.581354442E-4
1.015796161E1,1.221694518E-3,5.497625098E-3,-1.679830020E-3
1.016767505E1,-1.221694518E-3,3.054236295E-3,-1.679830020E-3
1.017738937E1,-1.221694518E-3,6.108472589E-4,-1.679830020E-3
1.018710281E1,-2.443389036E-3,-6.108472589E-4,7.635590737E-4
1.019681547E1,-3.665083554E-3,3.054236295E-3,3.206948051E-3
1.020652901E1,-3.665083554E-3,9.162709117E-3,1.985253533E-3
1.021624323E1,-2.443389036E-3,1.282779220E-2,3.206948051E-3
1.022595666E1,-2.443389036E-3,1.282779220E-2,3.206948051E-3
1.023566932E1,-1.221694518E-3,1.160609815E-2,1.985253533E-3
1.024538286E1,-0.000000000E0,6.719320081E-3,3.206948051E-3
1.025509713E1,-0.000000000E0,-6.108472589E-4,3.206948051E-3
1.026481052E1,-1.221694518E-3,-6.719320081E-3,1.985253533E-3
1.027452323E1,-1.221694518E-3,-1.160609815E-2,3.206948051E-3
1.028423666E1,-1.221694518E-3,-1.160609815E-2,1.985253533E-3
1.029395099E1,-1.221694518E-3,-6.719320081E-3,-4.581354442E-4
1.030366437E1,-1.221694518E-3,1.832541777E-3,-1.679830020E-3
1.031337708E1,-1.221694518E-3,1.038440317E-2,-1.679830020E-3
1.032309052E1,-1.221694518E-3,1.404948719E-2,-1.679830020E-3
1.033280484E1,-2.443389036E-3,1.160609815E-2,-4.581354442E-4
1.034251828E1,-3.665083554E-3,5.497625098E-3,-1.679830020E-3
1.035223094E1,-3.665083554E-3,-6.108472589E-4,-4.581354442E-4
1.036194448E1,-3.665083554E-3,-5.497625098E-3,-4.581354442E-4
1.037165870E1,-3.665083554E-3,-1.038440317E-2,-2.901524538E-3
1.038137213E1,-0.000000000E0,-1.160609815E-2,-2.901524538E-3
1.039108479E1,2.443389036E-3,-1.282779220E-2,-2.901524538E-3
1.040079833E1,4.886778072E-3,-1.160609815E-2,-2.901524538E-3
1.041051260E1,4.886778072E-3,-7.941014133E-3,-1.679830020E-3
1.042022599E1,2.443389036E-3,-5.497625098E-3,7.635590737E-4
1.042993870E1,-1.221694518E-3,-1.832541777E-3,4.428642802E-3
1.043965213E1,-3.665083554E-3,-6.108472589E-4,5.650337320E-3
1.044936646E1,-4.886778072E-3,4.275931045E-3,5.650337320E-3
1.045907984E1,-3.665083554E-3,6.719320081E-3,5.650337320E-3
1.046879255E1,-2.443389036E-3,6.719320081E-3,4.428642802E-3
1.047850599E1,-1.221694518E-3,1.832541777E-3,3.206948051E-3
1.048822031E1,-0.000000000E0,-1.832541777E-3,1.985253533E-3
1.049793375E1,-1.221694518E-3,-1.832541777E-3,7.635590737E-4
1.050764640E1,-0.000000000E0,-1.832541777E-3,-1.679830020E-3
1.051735994E1,2.443389036E-3,-6.108472589E-4,-1.679830020E-3
1.052707416E1,6.108472589E-3,-6.108472589E-4,-2.901524538E-3
1.053678760E1,6.108472589E-3,1.832541777E-3,-2.901524538E-3
1.054650026E1,4.886778072E-3,1.832541777E-3,-4.581354442E-4
1.055621380E1,1.221694518E-3,-6.108472589E-4,-4.581354442E-4
1.056592802E1,-1.221694518E-3,-5.497625098E-3,1.985253533E-3
1.057564146E1,-1.221694518E-3,-7.941014133E-3,1.985253533E-3
1.058535411E1,-2.443389036E-3,-6.719320081E-3,1.985253533E-3
1.059506765E1,-1.221694518E-3,-1.832541777E-3,7.635590737E-4
1.060478192E1,-0.000000000E0,3.054236295E-3,7.635590737E-4
1.061449531E1,1.221694518E-3,5.497625098E-3,-4.581354442E-4
1.062420802E1,2.443389036E-3,7.941014133E-3,7.635590737E-4
1.063392146E1,3.665083554E-3,7.941014133E-3,-4.581354442E-4
1.064363578E1,2.443389036E-3,5.497625098E-3,1.985253533E-3
1.065334916E1,2.443389036E-3,-1.832541777E-3,3.206948051E-3
1.066306187E1,2.443389036E-3,-6.719320081E-3,5.650337320E-3
1.067277531E1,2.443389036E-3,-7.941014133E-3,5.650337320E-3
1.068248963E1,3.665083554E-3,-4.275931045E-3,3.206948051E-3
1.069220307E1,2.443389036E-3,-6.108472589E-4,-4.581354442E-4
1.070191573E1,2.443389036E-3,-6.108472589E-4,-5.344913341E-3
1.071162927E1,2.443389036E-3,4.275931045E-3,-5.344913341E-3
1.072134349E1,2.443389036E-3,9.162709117E-3,-2.901524538E-3
1.073105692E1,-1.221694518E-3,9.162709117E-3,-4.581354442E-4
1.074076958E1,-3.665083554E-3,7.941014133E-3,1.985253533E-3
1.075048312E1,-3.665083554E-3,4.275931045E-3,3.206948051E-3
1.076019739E1,-2.443389036E-3,1.832541777E-3,1.985253533E-3
1.076991078E1,-1.221694518E-3,-6.108472589E-4,1.985253533E-3
1.077962344E1,3.665083554E-3,-3.054236295E-3,7.635590737E-4
1.078933698E1,6.108472589E-3,-4.275931045E-3,-1.679830020E-3
1.079905125E1,6.108472589E-3,-4.275931045E-3,-1.679830020E-3
1.080876463E1,6.108472589E-3,-3.054236295E-3,-1.679830020E-3
1.081847734E1,4.886778072E-3,-1.832541777E-3,-4.581354442E-4
1.082819078E1,1.221694518E-3,-6.108472589E-4,7.635590737E-4
1.083790510E1,-2.443389036E-3,6.108472589E-4,3.206948051E-3
1.084761849E1,-3.665083554E-3,6.108472589E-4,1.985253533E-3
1.085733120E1,-3.665083554E-3,1.832541777E-3,-4.581354442E-4
1.086704463E1,-1.221694518E-3,4.275931045E-3,7.635590737E-4
1.087675896E1,1.221694518E-3,4.275931045E-3,7.635590737E-4
1.088647234E1,2.443389036E-3,1.832541777E-3,7.635590737E-4
1.089618505E1,2.443389036E-3,-1.832541777E-3,1.985253533E-3
1.090589849E1,-0.000000000E0,-3.054236295E-3,1.985253533E-3
1.091561281E1,-1.221694518E-3,-4.275931045E-3,7.635590737E-4
1.092532625E1,-1.221694518E-3,-4.275931045E-3,1.985253533E-3
1.093503890E1,-0.000000000E0,-5.497625098E-3,1.985253533E-3
1.094475244E1,-0.000000000E0,-6.719320081E-3,1.985253533E-3
1.095446666E1,-0.000000000E0,-6.719320081E-3,3.206948051E-3
1.096418010E1,1.221694518E-3,-3.054236295E-3,1.985253533E-3
1.097389276E1,2.443389036E-3,-6.108472589E-4,1.985253533E-3
1.098360630E1,2.443389036E-3,1.832541777E-3,7.635590737E-4
1.099332052E1,2.443389036E-3,3.054236295E-3,7.635590737E-4
1.100303396E1,-0.000000000E0,3.054236295E-3,7.635590737E-4
1.101274661E1,-1.221694518E-3,1.832541777E-3,-4.581354442E-4
1.102246015E1,-1.221694518E-3,-1.832541777E-3,-1.679830020E-3
1.103217437E1,-2.443389036E-3,-4.275931045E-3,7.635590737E-4
1.104188781E1,-0.000000000E0,-5.497625098E-3,1.985253533E-3
1.105160047E1,3.665083554E-3,-1.832541777E-3,3.206948051E-3
1.106131401E1,6.108472589E-3,1.832541777E-3,4.428642802E-3
1.107102823E1,6.108472589E-3,4.275931045E-3,4.428642802E-3
1.108074166E1,4.886778072E-3,3.054236295E-3,5.650337320E-3
1.109045432E1,1.221694518E-3,-1.832541777E-3,4.428642802E-3
1.110016786E1,-2.443389036E-3,-3.054236295E-3,3.206948051E-3
1.110988208E1,-6.108472589E-3,-1.832541777E-3,3.206948051E-3
1.111959552E1,-8.551862091E-3,6.108472589E-4,1.985253533E-3
1.112930817E1,-6.108472589E-3,6.108472589E-4,7.635590737E-4
1.113902172E1,-1.221694518E-3,1.832541777E-3,-4.581354442E-4
1.114873594E1,2.443389036E-3,6.719320081E-3,-1.679830020E-3
1.115844937E1,3.665083554E-3,1.038440317E-2,-1.679830020E-3
1.116816203E1,2.443389036E-3,1.160609815E-2,-1.679830020E-3
1.117787557E1,2.443389036E-3,6.719320081E-3,7.635590737E-4
1.118758979E1,2.443389036E-3,-5.497625098E-3,1.985253533E-3
1.119730323E1,2.443389036E-3,-1.160609815E-2,1.985253533E-3
1.120701588E1,1.221694518E-3,-1.282779220E-2,4.428642802E-3
1.121672942E1,1.221694518E-3,-1.038440317E-2,6.872031838E-3
1.122644364E1,3.665083554E-3,-7.941014133E-3,5.650337320E-3
1.123615708E1,3.665083554E-3,-6.108472589E-4,6.872031838E-3
1.124586974E1,3.665083554E-3,4.275931045E-3,4.428642802E-3
1.125558328E1,2.443389036E-3,5.497625098E-3,1.985253533E-3
1.126529750E1,1.221694518E-3,6.719320081E-3,-4.581354442E-4
1.127501094E1,1.221694518E-3,5.497625098E-3,-1.679830020E-3
1.128472359E1,1.221694518E-3,1.832541777E-3,7.635590737E-4
1.129443713E1,1.221694518E-3,6.108472589E-4,7.635590737E-4
1.130415135E1,-0.000000000E0,6.108472589E-4,4.428642802E-3
1.131386479E1,-2.443389036E-3,-6.108472589E-4,4.428642802E-3
1.132357745E1,-2.443389036E-3,6.108472589E-4,1.985253533E-3
1.133329099E1,-1.221694518E-3,4.275931045E-3,7.635590737E-4
1.134300521E1,-0.000000000E0,7.941014133E-3,-1.679830020E-3
1.135271864E1,1.221694518E-3,1.038440317E-2,-2.901524538E-3
1.136243130E1,3.665083554E-3,9.162709117E-3,-2.901524538E-3
1.137214484E1,6.108472589E-3,6.719320081E-3,-2.901524538E-3
1.138185906E1,6.108472589E-3,6.108472589E-4,-1.679830020E-3
1.139157250E1,3.665083554E-3,-7.941014133E-3,-4.581354442E-4
1.140128515E1,1.221694518E-3,-1.404948719E-2,-4.581354442E-4
1.141099870E1,-2.443389036E-3,-1.771457121E-2,-4.581354442E-4
1.142071291E1,-2.443389036E-3,-1.282779220E-2,-4.581354442E-4
1.143042635E1,-3.665083554E-3,-5.497625098E-3,-1.679830020E-3
1.144013901E1,-1.221694518E-3,1.832541777E-3,-4.581354442E-4
1.144985255E1,1.221694518E-3,4.275931045E-3,1.985253533E-3
1.145956677E1,2.443389036E-3,4.275931045E-3,7.635590737E-4
1.146928021E1,2.443389036E-3,1.832541777E-3,7.635590737E-4
1.147899286E1,1.221694518E-3,-6.108472589E-4,1.985253533E-3
1.148870640E1,-0.000000000E0,-3.054236295E-3,1.985253533E-3
1.149842062E1,-2.443389036E-3,-6.719320081E-3,1.985253533E-3
1.150813406E1,-3.665083554E-3,-1.038440317E-2,3.206948051E-3
1.151784672E1,-3.665083554E-3,-1.404948719E-2,3.206948051E-3
1.152756015E1,-3.665083554E-3,-1.160609815E-2,3.206948051E-3
1.153727448E1,-3.665083554E-3,-5.497625098E-3,7.635590737E-4
1.154698786E1,-1.221694518E-3,4.275931045E-3,7.635590737E-4
1.155670057E1,-0.000000000E0,7.941014133E-3,-1.679830020E-3
1.156641401E1,2.443389036E-3,7.941014133E-3,-2.901524538E-3
1.157612833E1,4.886778072E-3,5.497625098E-3,-1.679830020E-3
1.158584172E1,6.108472589E-3,1.832541777E-3,-1.679830020E-3
1.159555442E1,4.886778072E-3,-6.108472589E-4,-1.679830020E-3
1.160526786E1,2.443389036E-3,-4.275931045E-3,-2.901524538E-3
1.161498218E1,1.221694518E-3,-6.719320081E-3,-2.901524538E-3
1.162469557E1,-2.443389036E-3,-6.719320081E-3,-1.679830020E-3
1.163440828E1,-2.443389036E-3,-5.497625098E-3,-1.679830020E-3
1.164412172E1,-3.665083554E-3,-3.054236295E-3,-1.679830020E-3
1.165383604E1,-2.443389036E-3,1.832541777E-3,7.635590737E-4
1.166354942E1,-0.000000000E0,3.054236295E-3,-4.581354442E-4
1.167326208E1,2.443389036E-3,4.275931045E-3,-4.581354442E-4
1.168297562E1,2.443389036E-3,3.054236295E-3,7.635590737E-4
1.169268984E1,2.443389036E-3,1.832541777E-3,7.635590737E-4
1.170240328E1,1.221694518E-3,-1.832541777E-3,3.206948051E-3
1.171211594E1,-0.000000000E0,-5.497625098E-3,3.206948051E-3
1.172182948E1,-2.443389036E-3,-9.162709117E-3,4.428642802E-3
1.173154370E1,-2.443389036E-3,-7.941014133E-3,1.985253533E-3
1.174125713E1,-2.443389036E-3,-1.832541777E-3,1.985253533E-3
1.175096979E1,-2.443389036E-3,4.275931045E-3,7.635590737E-4
1.176068333E1,-1.221694518E-3,7.941014133E-3,-1.679830020E-3
1.177039755E1,-0.000000000E0,6.719320081E-3,-1.679830020E-3
1.178011094E1,1.221694518E-3,6.719320081E-3,-2.901524538E-3
1.178982364E1,2.443389036E-3,6.719320081E-3,-1.679830020E-3
1.179953708E1,2.443389036E-3,4.275931045E-3,-4.581354442E-4
1.180925140E1,3.665083554E-3,3.054236295E-3,-4.581354442E-4
1.181896479E1,2.443389036E-3,1.832541777E-3,-1.679830020E-3
1.182867750E1,-0.000000000E0,-3.054236295E-3,-2.901524538E-3
1.183839094E1,-1.221694518E-3,-5.497625098E-3,-6.566607859E-3
1.184810526E1,-1.221694518E-3,-5.497625098E-3,-4.123218823E-3
1.185781864E1,-1.221694518E-3,-5.497625098E-3,-4.581354442E-4
1.186753130E1,-0.000000000E0,-3.054236295E-3,-4.581354442E-4
1.187724484E1,-0.000000000E0,5.497625098E-3,7.635590737E-4
1.188695906E1,-0.000000000E0,1.160609815E-2,-4.581354442E-4
1.189667250E1,1.221694518E-3,1.527118124E-2,-4.581354442E-4
1.190638515E1,1.221694518E-3,1.282779220E-2,-4.581354442E-4
1.191609870E1,-0.000000000E0,6.719320081E-3,7.635590737E-4
1.192581291E1,-1.221694518E-3,-1.832541777E-3,-4.581354442E-4
1.193552635E1,-2.443389036E-3,-9.162709117E-3,7.635590737E-4
1.194523901E1,1.221694518E-3,-1.527118124E-2,1.985253533E-3
1.195495244E1,3.665083554E-3,-1.771457121E-2,-4.581354442E-4
1.196466677E1,3.665083554E-3,-1.404948719E-2,7.635590737E-4
1.197438015E1,2.443389036E-3,-5.497625098E-3,1.985253533E-3
1.198409286E1,-1.221694518E-3,3.054236295E-3,3.206948051E-3
1.199380630E1,-3.665083554E-3,9.162709117E-3,1.985253533E-3
1.200352062E1,-4.886778072E-3,1.282779220E-2,7.635590737E-4
1.201323401E1,-3.665083554E-3,1.160609815E-2,-1.679830020E-3
1.202294666E1,-2.443389036E-3,7.941014133E-3,-2.901524538E-3
1.203266021E1,-1.221694518E-3,1.832541777E-3,-1.679830020E-3
1.204237442E1,1.221694518E-3,-4.275931045E-3,-2.901524538E-3
1.205208786E1,1.221694518E-3,-1.038440317E-2,-4.123218823E-3
1.206180052E1,1.221694518E-3,-1.282779220E-2,-4.123218823E-3
1.207151396E1,2.443389036E-3,-1.160609815E-2,-2.901524538E-3
1.208122828E1,1.221694518E-3,-1.038440317E-2,-4.123218823E-3
1.209094166E1,1.221694518E-3,-7.941014133E-3,-2.901524538E-3
1.210065437E1,-0.000000000E0,-1.832541777E-3,-1.679830020E-3
1.211036781E1,-3.665083554E-3,1.832541777E-3,-4.581354442E-4
1.212008213E1,-4.886778072E-3,5.497625098E-3,1.985253533E-3
1.212979552E1,-4.886778072E-3,5.497625098E-3,1.985253533E-3
1.213950817E1,-3.665083554E-3,3.054236295E-3,7.635590737E-4
1.214922172E1,1.221694518E-3,-6.108472589E-4,-4.581354442E-4
1.215893594E1,1.221694518E-3,-3.054236295E-3,-4.581354442E-4
1.216864937E1,-0.000000000E0,-6.719320081E-3,-4.581354442E-4
1.217836203E1,-0.000000000E0,-9.162709117E-3,-4.581354442E-4
1.218807547E1,-0.000000000E0,-1.282779220E-2,-1.679830020E-3
1.219778979E1,2.443389036E-3,-1.404948719E-2,-1.679830020E-3
1.220750317E1,2.443389036E-3,-9.162709117E-3,-2.901524538E-3
1.221721588E1,3.665083554E-3,-1.832541777E-3,-2.901524538E-3
1.222692932E1,1.221694518E-3,3.054236295E-3,-4.123218823E-3
1.223664364E1,-1.221694518E-3,5.497625098E-3,-1.679830020E-3
1.224635703E1,-1.221694518E-3,4.275931045E-3,-4.581354442E-4
1.225606968E1,-1.221694518E-3,1.832541777E-3,7.635590737E-4
1.226578323E1,-2.443389036E-3,-6.108472589E-4,-4.581354442E-4
1.227549745E1,-0.000000000E0,-6.108472589E-4,7.635590737E-4
1.228521088E1,-0.000000000E0,6.108472589E-4,1.985253533E-3
1.229492354E1,-0.000000000E0,6.108472589E-4,1.985253533E-3
1.230463698E1,1.221694518E-3,-1.832541777E-3,-4.581354442E-4
1.231435130E1,1.221694518E-3,-1.832541777E-3,-4.581354442E-4
1.232406469E1,2.443389036E-3,6.108472589E-4,-1.679830020E-3
1.233377739E1,1.221694518E-3,5.497625098E-3,-4.581354442E-4
1.234349083E1,1.221694518E-3,6.719320081E-3,7.635590737E-4
1.235320515E1,-0.000000000E0,7.941014133E-3,4.428642802E-3
1.236291854E1,1.221694518E-3,7.941014133E-3,6.872031838E-3
1.237263120E1,3.665083554E-3,4.275931045E-3,5.650337320E-3
1.238234463E1,4.886778072E-3,3.054236295E-3,3.206948051E-3
1.239205896E1,2.443389036E-3,3.054236295E-3,-4.581354442E-4
1.240177234E1,-1.221694518E-3,6.108472589E-4,-1.679830020E-3
1.241148505E1,-3.665083554E-3,-6.108472589E-4,-4.123218823E-3
1.242119849E1,-4.886778072E-3,-6.108472589E-4,-1.679830020E-3
1.243091281E1,-1.221694518E-3,-1.832541777E-3,-2.901524538E-3
1.244062620E1,1.221694518E-3,6.108472589E-4,-1.679830020E-3
1.245033885E1,1.221694518E-3,3.054236295E-3,-1.679830020E-3
1.246005239E1,-1.221694518E-3,4.275931045E-3,-4.581354442E-4
1.246976661E1,-1.221694518E-3,3.054236295E-3,-4.581354442E-4
1.247948005E1,-0.000000000E0,1.832541777E-3,-4.581354442E-4
1.248919271E1,1.221694518E-3,-3.054236295E-3,-4.123218823E-3
1.249890614E1,1.221694518E-3,-6.719320081E-3,-4.123218823E-3
1.250862047E1,1.221694518E-3,-7.941014133E-3,-2.901524538E-3
1.251833385E1,-0.000000000E0,-7.941014133E-3,-4.581354442E-4
1.252804651E1,-1.221694518E-3,-5.497625098E-3,1.985253533E-3
1.253776005E1,-1.221694518E-3,-5.497625098E-3,1.985253533E-3
1.254747427E1,-2.443389036E-3,-3.054236295E-3,1.985253533E-3
1.255718771E1,-2.443389036E-3,-6.108472589E-4,7.635590737E-4
1.256690036E1,-3.665083554E-3,1.832541777E-3,-1.679830020E-3
1.257661380E1,-4.886778072E-3,1.832541777E-3,-4.581354442E-4
1.258632812E1,-3.665083554E-3,-6.108472589E-4,-1.679830020E-3
1.259604151E1,-0.000000000E0,-4.275931045E-3,-1.679830020E-3
1.260575422E1,2.443389036E-3,-7.941014133E-3,-1.679830020E-3
1.261546765E1,3.665083554E-3,-6.719320081E-3,-4.581354442E-4
1.262518192E1,3.665083554E-3,-1.832541777E-3,7.635590737E-4
1.263489536E1,1.221694518E-3,1.832541777E-3,3.206948051E-3
1.264460802E1,-1.221694518E-3,1.832541777E-3,3.206948051E-3
1.265432146E1,-2.443389036E-3,-6.108472589E-4,3.206948051E-3
1.266403578E1,-2.443389036E-3,-4.275931045E-3,4.428642802E-3
1.267374916E1,-2.443389036E-3,-5.497625098E-3,1.985253533E-3
1.268346182E1,-2.443389036E-3,-5.497625098E-3,7.635590737E-4
1.269317536E1,-1.221694518E-3,-4.275931045E-3,-4.581354442E-4
1.270288958E1,1.221694518E-3,-3.054236295E-3,-4.581354442E-4
1.271260302E1,1.221694518E-3,-6.108472589E-4,7.635590737E-4
1.272231567E1,3.665083554E-3,1.832541777E-3,-4.581354442E-4
1.273202911E1,3.665083554E-3,4.275931045E-3,7.635590737E-4
1.274174344E1,2.443389036E-3,5.497625098E-3,1.985253533E-3
1.275145682E1,2.443389036E-3,3.054236295E-3,1.985253533E-3
1.276116948E1,1.221694518E-3,-1.832541777E-3,1.985253533E-3
1.277088302E1,1.221694518E-3,-5.497625098E-3,1.985253533E-3
1.278059724E1,1.221694518E-3,-7.941014133E-3,1.985253533E-3
1.279031067E1,1.221694518E-3,-7.941014133E-3,1.985253533E-3
1.280002333E1,1.221694518E-3,-9.162709117E-3,7.635590737E-4
1.280973677E1,1.221694518E-3,-6.719320081E-3,-4.581354442E-4
1.281945109E1,1.221694518E-3,-4.275931045E-3,-4.581354442E-4
1.282916448E1,1.221694518E-3,-1.832541777E-3,-4.581354442E-4
1.283887713E1,1.221694518E-3,1.832541777E-3,7.635590737E-4
1.284859067E1,2.443389036E-3,-6.108472589E-4,7.635590737E-4
1.285830489E1,-0.000000000E0,-3.054236295E-3,3.206948051E-3
1.286801828E1,-1.221694518E-3,-5.497625098E-3,3.206948051E-3
1.287773099E1,-4.886778072E-3,-6.719320081E-3,3.206948051E-3
1.288744442E1,-3.665083554E-3,-4.275931045E-3,3.206948051E-3
1.289715875E1,-0.000000000E0,-4.275931045E-3,7.635590737E-4
1.290687213E1,2.443389036E-3,-5.497625098E-3,7.635590737E-4
1.291658479E1,6.108472589E-3,-4.275931045E-3,-4.581354442E-4
1.292629833E1,8.551862091E-3,-6.108472589E-4,1.985253533E-3
1.293601255E1,9.773556143E-3,4.275931045E-3,4.428642802E-3
1.294572594E1,8.551862091E-3,5.497625098E-3,5.650337320E-3
1.295543859E1,4.886778072E-3,6.719320081E-3,5.650337320E-3
1.296515213E1,1.221694518E-3,5.497625098E-3,4.428642802E-3
1.297486635E1,-2.443389036E-3,6.108472589E-4,1.985253533E-3
1.298457979E1,-4.886778072E-3,-1.832541777E-3,7.635590737E-4
1.299429245E1,-3.665083554E-3,-1.832541777E-3,7.635590737E-4
1.300400588E1,-0.000000000E0,-3.054236295E-3,7.635590737E-4
1.301372021E1,2.443389036E-3,-3.054236295E-3,7.635590737E-4
1.302343359E1,2.443389036E-3,-6.108472589E-4,-4.581354442E-4
1.303314625E1,3.665083554E-3,3.054236295E-3,7.635590737E-4
1.304285979E1,4.886778072E-3,4.275931045E-3,7.635590737E-4
1.305257401E1,6.108472589E-3,4.275931045E-3,-1.679830020E-3
1.306228739E1,6.108472589E-3,1.832541777E-3,-4.123218823E-3
1.307200010E1,6.108472589E-3,-1.832541777E-3,-2.901524538E-3
1.308171354E1,3.665083554E-3,-4.275931045E-3,-4.123218823E-3
1.309142781E1,3.665083554E-3,-6.719320081E-3,-4.123218823E-3
1.310114125E1,3.665083554E-3,-9.162709117E-3,-5.344913341E-3
1.311085390E1,2.443389036E-3,-9.162709117E-3,-7.788302377E-3
1.312056734E1,1.221694518E-3,-5.497625098E-3,-6.566607859E-3
1.313028166E1,1.221694518E-3,6.108472589E-4,-5.344913341E-3
1.313999505E1,-0.000000000E0,4.275931045E-3,-5.344913341E-3
1.314970771E1,1.221694518E-3,7.941014133E-3,-4.123218823E-3
1.315942125E1,2.443389036E-3,6.719320081E-3,-2.901524538E-3
1.316913547E1,2.443389036E-3,4.275931045E-3,-1.679830020E-3
1.317884885E1,2.443389036E-3,6.108472589E-4,7.635590737E-4
1.318856156E1,3.665083554E-3,-3.054236295E-3,1.985253533E-3
1.319827500E1,4.886778072E-3,-9.162709117E-3,3.206948051E-3
1.320798927E1,6.108472589E-3,-1.527118124E-2,4.428642802E-3
1.321770271E1,3.665083554E-3,-1.771457121E-2,3.206948051E-3
1.322741536E1,-0.000000000E0,-1.527118124E-2,7.635590737E-4
1.323712880E1,-6.108472589E-3,-6.719320081E-3,-4.123218823E-3
1.324684312E1,-7.330167107E-3,4.275931045E-3,-9.009997360E-3
1.325655651E1,-2.443389036E-3,5.497625098E-3,-1.389677543E-2
1.326626916E1,2.443389036E-3,-1.832541777E-3,-1.756185852E-2
1.327598271E1,8.551862091E-3,-7.941014133E-3,-2.122694254E-2
1.328569692E1,1.221694518E-2,-1.038440317E-2,-2.367033064E-2
1.329541036E1,1.343864016E-2,-9.162709117E-3,-2.367033064E-2
1.330512302E1,1.099525020E-2,-9.162709117E-3,-2.367033064E-2
1.331483646E1,7.330167107E-3,-1.282779220E-2,-2.244863659E-2
1.332455078E1,3.665083554E-3,-1.893626526E-2,-2.000524849E-2
1.333426416E1,3.665083554E-3,-2.015795931E-2,-1.756185852E-2
1.334397682E1,2.443389036E-3,-1.771457121E-2,-1.511846948E-2
1.335369036E1,2.443389036E-3,-1.649287529E-2,-1.145338640E-2
1.336340458E1,1.221694518E-3,-1.527118124E-2,-6.566607859E-3
1.337311797E1,1.221694518E-3,-1.282779220E-2,-4.581354442E-4
1.338283067E1,-0.000000000E0,-9.162709117E-3,3.206948051E-3
1.339254411E1,-1.221694518E-3,-1.832541777E-3,6.872031838E-3
1.340225844E1,-1.221694518E-3,5.497625098E-3,1.175880991E-2
1.341197182E1,-2.443389036E-3,1.038440317E-2,1.664558798E-2
1.342168448E1,-2.443389036E-3,1.160609815E-2,2.153236605E-2
1.343139791E1,-3.665083554E-3,9.162709117E-3,2.641914412E-2
1.344111224E1,-3.665083554E-3,9.162709117E-3,2.886253223E-2
1.345082562E1,-3.665083554E-3,1.160609815E-2,2.886253223E-2
1.346053833E1,-0.000000000E0,1.160609815E-2,2.519745007E-2
1.347025177E1,3.665083554E-3,1.160609815E-2,2.031067200E-2
1.347996604E1,7.330167107E-3,1.282779220E-2,1.664558798E-2
1.348967948E1,9.773556143E-3,1.649287529E-2,1.298050396E-2
1.349939213E1,7.330167107E-3,1.771457121E-2,1.053711493E-2
1.350910557E1,7.330167107E-3,1.649287529E-2,8.093725890E-3
1.351881989E1,3.665083554E-3,1.527118124E-2,6.872031838E-3
1.352853328E1,-0.000000000E0,1.282779220E-2,4.428642802E-3
1.353824594E1,-2.443389036E-3,5.497625098E-3,-1.679830020E-3
1.354795948E1,-2.443389036E-3,1.832541777E-3,-4.123218823E-3
1.355767370E1,1.221694518E-3,-3.054236295E-3,-5.344913341E-3
1.356738713E1,3.665083554E-3,-5.497625098E-3,-4.123218823E-3
1.357709979E1,4.886778072E-3,-3.054236295E-3,-2.901524538E-3
1.358681323E1,2.443389036E-3,1.832541777E-3,7.635590737E-4
1.359652755E1,1.221694518E-3,5.497625098E-3,1.985253533E-3
1.360624094E1,1.221694518E-3,6.719320081E-3,1.985253533E-3
1.361595364E1,1.221694518E-3,5.497625098E-3,7.635590737E-4
1.362566708E1,2.443389036E-3,6.108472589E-4,7.635590737E-4
1.363538135E1,1.221694518E-3,-5.497625098E-3,7.635590737E-4
1.364509479E1,1.221694518E-3,-1.282779220E-2,-4.581354442E-4
1.365480745E1,1.221694518E-3,-1.649287529E-2,-4.581354442E-4
1.366452099E1,1.221694518E-3,-1.771457121E-2,-4.581354442E-4
1.367423521E1,1.221694518E-3,-1.527118124E-2,7.635590737E-4
1.368394864E1,-0.000000000E0,-9.162709117E-3,3.206948051E-3
1.369366130E1,1.221694518E-3,-6.108472589E-4,3.206948051E-3
1.370337474E1,-0.000000000E0,9.162709117E-3,4.428642802E-3
1.371308906E1,-0.000000000E0,1.160609815E-2,4.428642802E-3
1.372280245E1,-1.221694518E-3,7.941014133E-3,4.428642802E-3
1.373251510E1,-3.665083554E-3,3.054236295E-3,4.428642802E-3
1.374222864E1,-6.108472589E-3,1.832541777E-3,4.428642802E-3
1.375194286E1,-6.108472589E-3,6.108472589E-4,3.206948051E-3
1.376165630E1,-3.665083554E-3,-6.108472589E-4,1.985253533E-3
1.377136896E1,2.443389036E-3,-1.832541777E-3,7.635590737E-4
1.378108239E1,6.108472589E-3,-1.832541777E-3,7.635590737E-4
1.379079672E1,6.108472589E-3,6.108472589E-4,1.985253533E-3
1.380051010E1,3.665083554E-3,1.832541777E-3,4.428642802E-3
1.381022281E1,-0.000000000E0,4.275931045E-3,4.428642802E-3
1.381993625E1,-3.665083554E-3,4.275931045E-3,5.650337320E-3
1.382965057E1,-4.886778072E-3,5.497625098E-3,5.650337320E-3
1.383936396E1,-3.665083554E-3,5.497625098E-3,4.428642802E-3
1.384907661E1,-0.000000000E0,3.054236295E-3,7.635590737E-4
1.385879015E1,2.443389036E-3,-6.108472589E-4,7.635590737E-4
1.386850442E1,2.443389036E-3,-3.054236295E-3,7.635590737E-4
1.387821781E1,1.221694518E-3,-4.275931045E-3,7.635590737E-4
1.388793047E1,2.443389036E-3,-4.275931045E-3,-4.581354442E-4
1.389764401E1,4.886778072E-3,-4.275931045E-3,-4.581354442E-4
1.390735823E1,4.886778072E-3,-5.497625098E-3,-1.679830020E-3
1.391707166E1,2.443389036E-3,-4.275931045E-3,-1.679830020E-3
1.392678432E1,-0.000000000E0,-3.054236295E-3,-1.679830020E-3
1.393649776E1,-1.221694518E-3,-3.054236295E-3,-4.123218823E-3
1.394621208E1,-3.665083554E-3,-4.275931045E-3,-1.679830020E-3
1.395592547E1,-3.665083554E-3,-4.275931045E-3,-1.679830020E-3
1.396563817E1,-3.665083554E-3,-1.832541777E-3,-2.901524538E-3
1.397535161E1,-1.221694518E-3,6.108472589E-4,-2.901524538E-3
1.398506594E1,-0.000000000E0,4.275931045E-3,-2.901524538E-3
1.399477932E1,-0.000000000E0,4.275931045E-3,-2.901524538E-3
1.400449198E1,-0.000000000E0,1.832541777E-3,-2.901524538E-3
1.401420552E1,-0.000000000E0,6.108472589E-4,-2.901524538E-3
1.402391974E1,-1.221694518E-3,-6.108472589E-4,-1.679830020E-3
1.403363317E1,-0.000000000E0,-6.108472589E-4,-4.581354442E-4
1.404334583E1,-0.000000000E0,-1.832541777E-3,7.635590737E-4
1.405305937E1,-1.221694518E-3,-6.108472589E-4,5.650337320E-3
1.406277359E1,1.221694518E-3,-1.832541777E-3,6.872031838E-3
1.407248703E1,3.665083554E-3,6.108472589E-4,8.093725890E-3
1.408219968E1,4.886778072E-3,4.275931045E-3,6.872031838E-3
1.409191312E1,1.221694518E-3,5.497625098E-3,1.985253533E-3
1.410162744E1,-1.221694518E-3,3.054236295E-3,-1.679830020E-3
1.411134083E1,-1.221694518E-3,6.108472589E-4,-2.901524538E-3
1.412105354E1,-0.000000000E0,-1.832541777E-3,-2.901524538E-3
1.413076698E1,-0.000000000E0,-3.054236295E-3,-4.123218823E-3
1.414048130E1,-1.221694518E-3,-6.108472589E-4,-2.901524538E-3
1.415019468E1,-3.665083554E-3,4.275931045E-3,-4.581354442E-4
1.415990739E1,-2.443389036E-3,6.719320081E-3,1.985253533E-3
1.416962083E1,-1.221694518E-3,5.497625098E-3,1.985253533E-3
1.417933510E1,1.221694518E-3,4.275931045E-3,-4.581354442E-4
1.418904854E1,3.665083554E-3,6.108472589E-4,-1.679830020E-3
1.419876120E1,3.665083554E-3,-3.054236295E-3,-2.901524538E-3
1.420847474E1,3.665083554E-3,-7.941014133E-3,-1.679830020E-3
1.421818896E1,2.443389036E-3,-9.162709117E-3,-1.679830020E-3
1.422790239E1,1.221694518E-3,-9.162709117E-3,-1.679830020E-3
1.423761505E1,-1.221694518E-3,-6.719320081E-3,-1.679830020E-3
1.424732859E1,-2.443389036E-3,-4.275931045E-3,-4.123218823E-3
1.425704281E1,-2.443389036E-3,-6.108472589E-4,-5.344913341E-3
1.426675625E1,-1.221694518E-3,1.832541777E-3,-6.566607859E-3
1.427646890E1,1.221694518E-3,3.054236295E-3,-5.344913341E-3
1.428618234E1,2.443389036E-3,3.054236295E-3,-2.901524538E-3
1.429589666E1,2.443389036E-3,1.832541777E-3,-4.581354442E-4
1.430561005E1,-0.000000000E0,1.832541777E-3,1.985253533E-3
1.431532276E1,-2.443389036E-3,-3.054236295E-3,3.206948051E-3
1.432503620E1,-3.665083554E-3,-6.719320081E-3,5.650337320E-3
1.433475052E1,-4.886778072E-3,-9.162709117E-3,4.428642802E-3
1.434446390E1,-6.108472589E-3,-7.941014133E-3,1.985253533E-3
1.435417661E1,-3.665083554E-3,-5.497625098E-3,1.985253533E-3
1.436389005E1,-0.000000000E0,-3.054236295E-3,7.635590737E-4
1.437360437E1,2.443389036E-3,1.832541777E-3,7.635590737E-4
1.438331776E1,2.443389036E-3,5.497625098E-3,7.635590737E-4
1.439303041E1,2.443389036E-3,6.719320081E-3,-1.679830020E-3
1.440274396E1,1.221694518E-3,5.497625098E-3,-2.901524538E-3
1.441245817E1,1.221694518E-3,-6.108472589E-4,-2.901524538E-3
1.442217161E1,-0.000000000E0,-6.719320081E-3,-1.679830020E-3
1.443188427E1,-1.221694518E-3,-1.038440317E-2,-1.679830020E-3
1.444159781E1,-1.221694518E-3,-1.160609815E-2,-1.679830020E-3
1.445131203E1,-0.000000000E0,-1.038440317E-2,-1.679830020E-3
1.446102547E1,1.221694518E-3,-6.719320081E-3,-1.679830020E-3
1.447073812E1,1.221694518E-3,-1.832541777E-3,-4.581354442E-4
1.448045156E1,1.221694518E-3,1.832541777E-3,-1.679830020E-3
1.449016588E1,-0.000000000E0,1.832541777E-3,-4.581354442E-4
1.449987932E1,-0.000000000E0,1.832541777E-3,-4.581354442E-4
1.450959198E1,-0.000000000E0,-6.108472589E-4,-1.679830020E-3
1.451930541E1,-0.000000000E0,-1.832541777E-3,-1.679830020E-3
1.452901974E1,-0.000000000E0,-1.832541777E-3,7.635590737E-4
1.453873312E1,-0.000000000E0,-3.054236295E-3,-4.581354442E-4
1.454844583E1,-1.221694518E-3,-4.275931045E-3,-4.581354442E-4
1.455815927E1,-1.221694518E-3,-3.054236295E-3,-4.581354442E-4
1.456787359E1,-1.221694518E-3,-6.108472589E-4,-4.581354442E-4
1.457758698E1,-1.221694518E-3,6.108472589E-4,-4.581354442E-4
1.458729969E1,-0.000000000E0,1.832541777E-3,-4.581354442E-4
1.459701312E1,1.221694518E-3,1.832541777E-3,-4.581354442E-4
1.460672744E1,3.665083554E-3,6.108472589E-4,7.635590737E-4
1.461644083E1,4.886778072E-3,-6.108472589E-4,1.985253533E-3
1.462615349E1,4.886778072E-3,-1.832541777E-3,4.428642802E-3
1.463586703E1,6.108472589E-3,1.832541777E-3,3.206948051E-3
1.464558125E1,3.665083554E-3,4.275931045E-3,-4.581354442E-4
1.465529469E1,1.221694518E-3,3.054236295E-3,-2.901524538E-3
1.466500734E1,-1.221694518E-3,1.832541777E-3,-2.901524538E-3
1.467472088E1,-2.443389036E-3,3.054236295E-3,-2.901524538E-3
1.468443510E1,-3.665083554E-3,3.054236295E-3,-1.679830020E-3
1.469414849E1,-3.665083554E-3,1.832541777E-3,-4.581354442E-4
1.470386120E1,-3.665083554E-3,6.108472589E-4,7.635590737E-4
1.471357463E1,-2.443389036E-3,-6.108472589E-4,7.635590737E-4
1.472328896E1,-1.221694518E-3,1.832541777E-3,7.635590737E-4
1.473300234E1,1.221694518E-3,1.832541777E-3,-4.581354442E-4
1.474271505E1,2.443389036E-3,6.108472589E-4,-1.679830020E-3
1.475242849E1,3.665083554E-3,-1.832541777E-3,-1.679830020E-3
1.476214281E1,2.443389036E-3,-5.497625098E-3,-4.581354442E-4
1.477185620E1,-0.000000000E0,-6.719320081E-3,1.985253533E-3
1.478156885E1,-1.221694518E-3,-6.719320081E-3,1.985253533E-3
1.479128239E1,-1.221694518E-3,-5.497625098E-3,7.635590737E-4
1.480099661E1,-2.443389036E-3,-3.054236295E-3,7.635590737E-4
1.481071005E1,-1.221694518E-3,1.832541777E-3,-4.581354442E-4
1.482042271E1,-1.221694518E-3,3.054236295E-3,-1.679830020E-3
1.483013625E1,-0.000000000E0,3.054236295E-3,-2.901524538E-3
1.483985047E1,-0.000000000E0,1.832541777E-3,-1.679830020E-3
1.484956390E1,-0.000000000E0,-1.832541777E-3,-1.679830020E-3
1.485927656E1,-0.000000000E0,-4.275931045E-3,-4.581354442E-4
1.486899000E1,-1.221694518E-3,-6.719320081E-3,7.635590737E-4
1.487870432E1,-1.221694518E-3,-7.941014133E-3,7.635590737E-4
1.488841771E1,-2.443389036E-3,-7.941014133E-3,7.635590737E-4
1.489813041E1,-2.443389036E-3,-7.941014133E-3,7.635590737E-4
1.490784385E1,-3.665083554E-3,-5.497625098E-3,7.635590737E-4
1.491755817E1,-3.665083554E-3,-4.275931045E-3,7.635590737E-4
1.492727156E1,-2.443389036E-3,-1.832541777E-3,-4.581354442E-4
1.493698422E1,-0.000000000E0,-6.108472589E-4,-4.581354442E-4
1.494669776E1,2.443389036E-3,-3.054236295E-3,-4.581354442E-4
1.495641203E1,2.443389036E-3,-4.275931045E-3,-1.679830020E-3
1.496612541E1,1.221694518E-3,-3.054236295E-3,7.635590737E-4
1.497583807E1,-1.221694518E-3,-3.054236295E-3,7.635590737E-4
1.498555161E1,-1.221694518E-3,-6.108472589E-4,7.635590737E-4
1.499526583E1,-1.221694518E-3,-6.108472589E-4,1.985253533E-3
1.500497927E1,-0.000000000E0,-3.054236295E-3,-4.581354442E-4
1.501469192E1,-0.000000000E0,-4.275931045E-3,-4.581354442E-4
1.502440536E1,-0.000000000E0,-6.719320081E-3,-2.901524538E-3
1.503411968E1,-0.000000000E0,-9.162709117E-3,-1.679830020E-3
1.504383307E1,-1.221694518E-3,-1.038440317E-2,-1.679830020E-3
1.505354578E1,-1.221694518E-3,-1.160609815E-2,-1.679830020E-3
1.506325922E1,-0.000000000E0,-1.038440317E-2,-1.679830020E-3
