"Time (s)","Acceleration x (m/s^2)","Acceleration y (m/s^2)","Acceleration z (m/s^2)"
4.889021700E-2,2.824727058E0,-9.080761909E0,-1.022453117E1
5.860438300E-2,3.741477251E0,-7.778169155E0,-9.475278854E0
6.831693500E-2,4.292125702E0,-6.847062111E0,-7.607680321E0
7.803037300E-2,4.519742966E0,-6.150152206E0,-4.952843666E0
8.774365400E-2,3.617050648E0,-5.283651352E0,-6.026921868E-1
9.745709200E-2,1.385743380E0,-4.029214382E0,2.945265532E0
1.071712580E-1,-1.271785259E0,-2.681157827E0,4.341178417E0
1.168845920E-1,-3.342474222E0,-1.053141117E0,2.243869543E0
1.265971440E-1,-4.242773533E0,-2.177468538E-1,-2.123630047E-1
1.363105810E-1,-4.170989037E0,-1.033998489E0,-6.361917257E-1
1.460247480E-1,-4.350450516E0,-3.799204111E0,-1.558026671E0
1.557380290E-1,-4.508377075E0,-7.984251022E0,-2.412563324E0
1.654506330E-1,-5.269892693E0,-1.180499077E1,-3.300898790E0
1.751640710E-1,-5.949753284E0,-1.616232109E1,-3.650250912E0
1.848781850E-1,-4.192524433E0,-1.997139549E1,-2.623430967E0
1.945915190E-1,-1.467996716E0,-2.222902298E1,-2.268994093E0
2.043041230E-1,2.700898647E-1,-2.177887344E1,-3.365504980E0
2.140174560E-1,3.993022740E-1,-1.991875267E1,-4.136292934E0
2.237316750E-1,-9.436694384E-1,-1.836730576E1,-6.032605171E0
2.334450080E-1,-2.839682341E0,-1.778076553E1,-6.286244392E0
2.431576130E-1,-4.752744198E0,-1.804666901E1,-3.944867134E0
2.528709460E-1,-6.361618042E0,-1.830748558E1,-1.261017561E0
2.625851650E-1,-5.784648895E0,-1.782383728E1,-2.697907388E-1
2.722984980E-1,-2.947658300E0,-1.663161278E1,-2.171486616E-1
2.820110500E-1,-1.293320656E0,-1.501077461E1,-1.381855011E-1
2.917244880E-1,-6.514459848E-1,-1.314108276E1,5.982056609E-4
3.014386540E-1,-5.413761139E-1,-1.122562790E1,-2.572284266E-2
3.111519880E-1,-8.335995674E-1,-9.064012527E0,5.129613280E-1
3.208645400E-1,-1.520638824E0,-7.071987152E0,7.331010103E-1
3.305779770E-1,-2.399402857E0,-5.601896763E0,4.794618487E-1
3.402921440E-1,-3.356831074E0,-4.455136776E0,2.617149651E-1
3.500054250E-1,-4.065704823E0,-3.734597921E0,-7.462615371E-1
3.597180290E-1,-4.391128540E0,-3.308376312E0,-1.799701691E0
3.694313630E-1,-3.785445452E0,-3.138485909E0,-3.154637575E0
3.791455810E-1,-2.624328136E0,-2.951845884E0,-3.808476448E0
3.888589150E-1,-8.934201598E-1,-3.014059305E0,-2.972783089E0
3.985715190E-1,1.024427176E0,-3.315554857E0,-1.411765337E0
4.082848520E-1,2.319542408E0,-3.227020502E0,-1.651346684E0
4.179990710E-1,2.386541367E0,-3.298804998E0,-3.487539053E0
4.277124040E-1,5.383850932E-1,-3.622135162E0,-4.878666401E0
4.374249560E-1,-1.185344458E0,-3.437588930E0,-6.568896294E0
4.471383940E-1,-1.872383654E-1,-3.631706476E0,-9.511171341E0
4.568525600E-1,2.467897415E0,-4.273282051E0,-1.222612762E1
4.665658940E-1,4.464707851E0,-4.950749874E0,-1.066510963E1
4.762784460E-1,4.794917583E0,-5.956333637E0,-2.194816589E0
4.859918830E-1,4.761417866E0,-6.439982891E0,4.166502476E0
4.957060500E-1,3.863810301E0,-4.857429981E0,3.654139280E0
5.054193830E-1,-6.969095767E-2,-3.452244759E0,4.537389755E0
5.151319350E-1,-4.592125893E0,-4.907679081E0,4.845465720E-2
5.248453730E-1,-9.533603668E0,-6.643373013E0,-2.103889227E0
5.345595400E-1,-1.539213085E1,-9.317651749E0,4.603192508E-1
5.442728730E-1,-1.268435287E1,-1.362473202E1,3.821636915E0
5.539854250E-1,-4.666602135E0,-1.772094536E1,9.141180992E0
5.636988630E-1,3.361018419E0,-2.055075645E1,7.893921852E0
5.734130290E-1,7.814061642E0,-2.039283180E1,4.769793034E0
5.831263100E-1,6.116652966E0,-1.887009811E1,4.962115884E-1
5.928389150E-1,1.134497046E0,-1.723490334E1,2.090728730E-1
6.025523520E-1,-2.133500576E0,-1.614796448E1,7.354938388E-1
6.122665190E-1,-2.820539713E0,-1.554945850E1,-1.477568001E-1
6.219798000E-1,-2.351247311E0,-1.504427433E1,-1.821237087E0
6.316924040E-1,-1.774278045E0,-1.445773315E1,-3.159423113E0
6.414058420E-1,-1.985145450E0,-1.359841156E1,-2.709572554E0
6.511200080E-1,-2.382653236E0,-1.235324574E1,-1.924128532E0
6.608332900E-1,-1.278963685E0,-1.074706364E1,-2.963211775E0
6.705458940E-1,7.345965505E-1,-9.758230209E0,-4.708476543E0
6.802593310E-1,8.925228715E-1,-9.585647583E0,-4.521836758E0
6.899734980E-1,-1.501496196E0,-9.813264847E0,-3.209971666E0
6.996867790E-1,-5.135595798E0,-9.219545364E0,-2.015055656E0
7.093993830E-1,-6.124429703E0,-9.011071205E0,-2.211566210E0
7.191128210E-1,-4.336093903E0,-9.870692253E0,-4.232006073E0
7.288269880E-1,-1.549352646E0,-1.069890785E1,-7.117151737E0
7.385403210E-1,1.321137190E0,-1.126391315E1,-1.010488987E1
7.482528730E-1,3.571586847E0,-1.125673485E1,-1.185015488E1
7.579663100E-1,5.707180977E0,-1.136471081E1,-1.287009525E1
7.676804770E-1,6.913762093E0,-1.081884861E1,-1.360020542E1
7.773938100E-1,6.305685997E0,-9.897013664E0,-1.282941818E1
7.871063630E-1,4.253840446E0,-9.037391663E0,-9.736096382E0
7.968198000E-1,2.041675806E0,-8.020143509E0,-6.161817551E0
8.065339670E-1,9.044869542E-1,-7.014559746E0,-3.382254839E0
8.162473000E-1,2.126621157E-1,-5.633003712E0,-1.325623751E0
8.259599040E-1,-1.211665511E0,-4.433601379E0,6.852445602E-1
8.356732380E-1,-3.316153049E0,-3.679563046E0,5.344369411E0
8.453874560E-1,-5.023132801E0,-4.546063900E0,9.359226227E0
8.551007900E-1,-5.580959797E0,-6.918846607E0,1.185853004E1
8.648133940E-1,-4.637888432E0,-5.041677475E0,7.082456112E0
8.745268310E-1,-4.019941807E0,-8.525327682E0,-3.329612732E0
8.842409980E-1,-2.119143486E0,-1.204457188E1,-6.683752060E0
8.939543310E-1,-6.972087026E-1,-1.611207199E1,-7.052246571E0
9.036669350E-1,-9.532406926E-1,-1.970070648E1,-9.190233231E0
9.133802690E-1,-3.862015724E0,-2.083789635E1,-9.501599312E0
9.230944880E-1,-6.433403015E0,-2.120429611E1,-5.682953835E0
9.328078210E-1,-7.462914944E0,-2.069911194E1,-3.880260944E0
9.425204250E-1,-7.089335442E0,-1.976082611E1,-4.789832592E0
9.522338630E-1,-5.540281773E0,-1.920539284E1,-4.893023014E0
9.619480290E-1,-4.099204063E0,-1.889163399E1,-3.652643681E0
9.716613630E-1,-2.717648268E0,-1.808256149E1,-2.180459738E0
9.813739670E-1,-1.573280931E0,-1.696929932E1,-5.380859971E-1
9.910874040E-1,-1.094417214E0,-1.557099438E1,9.870393574E-2
1.000801571E0,-1.355534077E0,-1.397647667E1,1.800599098E-1
1.010514904E0,-2.047358990E0,-1.230538940E1,2.258226424E-1
1.020227508E0,-2.238784790E0,-1.060798073E1,3.047857881E-1
1.029940842E0,-1.922932148E0,-8.977571487E0,3.119642437E-1
1.039655113E0,-1.676172256E0,-7.268198967E0,5.967101455E-1
1.049368446E0,-1.585245013E0,-5.637789249E0,9.942178130E-1
1.059080998E0,-1.657029629E0,-4.153641224E0,1.168893814E0
1.068794435E0,-1.774278045E0,-3.054737091E0,7.692924738E-1
1.078508654E0,-2.296212435E0,-2.175973177E0,2.282154560E-1
1.088221935E0,-3.146262646E0,-1.450648785E0,-4.806582630E-1
1.097934540E0,-3.620340586E0,-1.031605721E0,-1.083948612E0
1.107647977E0,-3.399901867E0,-8.521439433E-1,-1.344766378E0
1.117362144E0,-2.236391783E0,-1.067497969E0,-1.210768223E0
1.127075581E0,-2.853440940E-1,-1.558325768E0,-7.965108156E-1
1.136788081E0,1.502991676E0,-1.994118571E0,-1.129412293E0
1.146501519E0,1.519741535E0,-2.535195589E0,-2.838784933E0
1.156215738E0,1.412064433E0,-2.611765862E0,-5.673382282E0
1.165929071E0,1.299601793E0,-2.633301258E0,-8.711369514E0
1.175641675E0,2.223829508E0,-3.045166016E0,-1.069621658E1
1.185355113E0,3.657728434E0,-3.502494097E0,-1.049043369E1
1.195069279E0,5.120640278E0,-4.452744007E0,-5.029414177E0
1.204782613E0,5.917749405E0,-5.623432159E0,7.956135273E-2
1.214495217E0,5.175675392E0,-5.300401211E0,3.531806231E0
1.224208654E0,3.633800268E0,-4.395316124E0,5.717649937E0
1.233922821E0,-4.092025757E0,-5.276473045E0,2.806481838E0
1.243636154E0,-9.718150139E0,-6.911668301E0,-8.091329575E0
1.253348758E0,-1.406082439E1,-1.028734303E1,-1.469193101E0
1.263062196E0,-1.256949711E1,-1.586561012E1,9.415757060E-1
1.272776363E0,-5.161916733E0,-1.816391754E1,6.043372631E0
1.282489800E0,1.582253933E0,-2.100569344E1,9.883553505E0
1.292202300E0,6.525825500E0,-2.013171387E1,6.567699909E0
1.301915790E0,6.549753666E0,-1.781905174E1,2.306082726E0
1.311629956E0,1.776072621E0,-1.513041592E1,9.583254457E-1
1.321343290E0,-2.540579557E0,-1.405783272E1,1.271785259E0
1.331055894E0,-3.538984776E0,-1.419691563E1,7.836494446E-1
1.340769331E0,-2.373081923E0,-1.516391563E1,-8.252246976E-1
1.350483498E0,-7.019943595E-1,-1.652154350E1,-2.036591291E0
1.360196935E0,-3.858426586E-2,-1.750559044E1,-1.792523265E0
1.369909488E0,-7.259225845E-1,-1.733540154E1,-6.026921868E-1
1.379622925E0,-8.264211416E-1,-1.604746437E1,-5.261218548E-1
1.389337092E0,8.105687052E-2,-1.415623760E1,-2.644966364E0
1.399050425E0,1.017248750E0,-1.208046436E1,-4.667798996E0
1.408763029E0,1.268495083E0,-1.023230743E1,-5.517848969E0
1.418476467E0,-6.251249462E-2,-9.064012527E0,-5.369194984E0
1.428190685E0,-3.268296719E0,-8.735896111E0,-4.895416260E0
1.437904019E0,-5.047060966E0,-8.271389961E0,-4.797011375E0
1.447616623E0,-5.327320576E0,-8.190033913E0,-5.915057659E0
1.457330060E0,-4.101597309E0,-8.479565620E0,-8.450551987E0
1.467044279E0,-2.358425856E0,-8.783752441E0,-1.001874828E1
1.476757613E0,-9.053842425E-1,-9.071190834E0,-1.040638542E1
1.486470217E0,4.402793646E-1,-9.489934921E0,-1.115593719E1
1.496183654E0,1.797608018E0,-9.583254814E0,-1.219741344E1
1.505897821E0,2.436790705E0,-9.183652878E0,-1.218305683E1
1.515611258E0,2.152044773E0,-8.659325600E0,-1.123968601E1
1.525323810E0,2.209472656E0,-8.233104706E0,-9.139984131E0
1.535037248E0,2.501396894E0,-7.859525204E0,-6.492026806E0
1.544751415E0,1.644467354E0,-7.203592777E0,-4.150650024E0
1.554464748E0,-6.442674994E-1,-5.898906231E0,-2.865106106E0
1.564177404E0,-2.233999014E0,-5.029713154E0,-2.578266263E-1
1.573890842E0,-3.091227770E0,-5.123033047E0,4.286143780E0
1.583605008E0,-4.637888432E0,-5.599503994E0,6.163013935E0
1.593318342E0,-5.348855972E0,-7.416852951E0,5.559723377E0
1.603030946E0,-4.202095509E0,-1.005972576E1,3.563211918E0
1.612744435E0,-2.770290375E0,-1.275553894E1,6.637091637E-1
1.622458602E0,-1.606780410E0,-1.621257019E1,-3.633501291E0
1.632171935E0,-1.218844056E0,-1.925803566E1,-7.660322666E0
1.641884540E0,-3.371187925E0,-2.129761696E1,-1.013121128E1
1.651598029E0,-5.997610092E0,-2.194158554E1,-9.731310844E0
1.661312196E0,-7.333403111E0,-2.176212311E1,-7.808976650E0
1.671025529E0,-6.474080563E0,-2.096022987E1,-7.040282249E0
1.680738185E0,-4.101597309E0,-2.062014961E1,-6.465705872E0
1.690451623E0,-3.117548704E0,-2.008864403E1,-2.536990166E0
1.700165790E0,-3.148655415E0,-1.828834343E1,-2.410768867E-1
1.709879123E0,-2.645863533E0,-1.618385506E1,-1.788634956E-1
1.719591779E0,-2.052144527E0,-1.433091354E1,-3.200400174E-1
1.729305217E0,-1.894218206E0,-1.252582836E1,1.010967568E-1
1.739019383E0,-2.298605204E0,-1.063430214E1,6.589235067E-1
1.748732821E0,-2.425724030E0,-9.027820587E0,1.257428288E0
1.758445373E0,-2.485544443E0,-7.239484787E0,1.499402523E0
1.768158810E0,-2.363211393E0,-5.599503994E0,1.037288666E0
1.777872977E0,-2.365604401E0,-4.285246372E0,3.478565812E-1
1.787586415E0,-2.552543640E0,-3.365804195E0,-1.597209126E-1
1.797298967E0,-2.698505640E0,-2.867797852E0,-6.385845542E-1
1.807012404E0,-2.609971285E0,-2.798406124E0,-1.237089276E0
1.816726623E0,-2.717648268E0,-2.724228621E0,-1.330409408E0
1.826439956E0,-3.074477911E0,-2.604587555E0,-1.950449586E0
1.836152560E0,-2.971586704E0,-2.652443886E0,-3.137887716E0
1.845865998E0,-2.727219582E0,-2.377269268E0,-3.401397467E0
1.855580217E0,-2.574079037E0,-1.414756417E0,-2.338385820E0
1.865293550E0,-1.735992789E0,4.812564552E-1,-7.366902828E-1
1.875006154E0,-2.064108610E0,-7.492526174E-1,2.205584288E0
1.884719592E0,-2.145464659E0,-3.595814228E0,1.978266120E0
1.894433810E0,-4.360919297E-1,-1.345364571E0,-1.904985905E0
1.904147144E0,2.988037169E-1,-3.705883980E0,-8.752047539E0
1.913859748E0,1.809572101E0,-3.696312666E0,-1.660708618E1
1.923573238E0,3.911666870E0,-4.819144726E0,-1.922872353E1
1.933287404E0,5.798108578E0,-6.887740135E0,-1.013838959E1
1.943000738E0,5.558825970E0,-9.171689034E0,-1.921735644E0
1.952713394E0,3.432803154E0,-8.666504860E0,5.825625896E0
1.962426831E0,2.994617462E0,-7.615457058E0,1.067827034E1
1.972140998E0,-1.661815286E0,-9.384650230E0,3.869493246E0
1.981854435E0,-8.362915039E0,-1.016261673E1,-6.672984362E-1
1.991566988E0,-9.504889488E0,-1.200628662E1,-2.924926519E0
2.001280425E0,-6.818647385E0,-1.497966766E1,1.867897153E0
2.010994644E0,-4.666602135E0,-1.782862282E1,9.215657234E0
2.020707977E0,1.384846121E-1,-1.833620071E1,9.230013847E0
2.030420581E0,2.963510752E0,-1.736650848E1,5.102395058E0
2.040134019E0,2.762513638E0,-1.599482250E1,3.043670416E0
2.049848238E0,3.346960545E-1,-1.513041592E1,2.370688915E0
2.059561571E0,-2.104786634E0,-1.446969795E1,-2.572284266E-2
2.069274175E0,-2.933301449E0,-1.489591885E1,-1.610668778E0
2.078987665E0,-2.397010088E0,-1.558774376E1,-2.326421738E0
2.088701831E0,-1.613958836E0,-1.593260956E1,-2.486740828E0
2.098415269E0,-1.003489971E0,-1.586800289E1,-1.107876897E0
2.108127821E0,-8.718847632E-1,-1.483609867E1,-8.443672657E-1
2.117841258E0,-6.346961856E-1,-1.312911892E1,-2.474776745E0
2.127555477E0,-5.078766346E-1,-1.133121204E1,-5.043771267E0
2.137268810E0,-1.389033556E0,-9.830014229E0,-6.288637161E0
2.146981415E0,-3.311367512E0,-9.241081238E0,-5.922235966E0
2.156694852E0,-5.549852848E0,-9.229117393E0,-4.799404144E0
2.166409071E0,-6.148357868E0,-9.360722542E0,-5.206482887E0
2.176122404E0,-4.657031059E0,-9.892228127E0,-7.921439171E0
2.185835008E0,-2.645863533E0,-1.078295612E1,-1.040399265E1
2.195548498E0,-1.001097202E0,-1.109402275E1,-1.125643635E1
2.205262665E0,8.087740541E-1,-1.090020466E1,-1.222373486E1
2.214976102E0,3.238685369E0,-1.012433147E1,-1.359302711E1
2.224688654E0,5.185246468E0,-9.116654396E0,-1.317398453E1
2.234402092E0,5.711966991E0,-8.302495956E0,-1.053829002E1
2.244116258E0,4.859523773E0,-7.660920620E0,-7.282256603E0
2.253829696E0,3.538087368E0,-6.794120789E0,-4.713262558E0
2.263542248E0,1.888535261E0,-5.757729530E0,-3.027817965E0
2.273255685E0,-1.848455518E-1,-4.584648132E0,-1.914557219E0
2.282969904E0,-2.820539713E0,-3.658027649E0,-7.725825906E-1
2.292683238E0,-4.443770885E0,-3.377768278E0,1.470688581E0
2.302395842E0,-4.958526611E0,-3.698705673E0,5.301298618E0
2.312109331E0,-4.779065132E0,-5.616253853E0,9.660722733E0
2.321823498E0,-4.618745804E0,-7.407281399E0,9.684650421E0
2.331536831E0,-3.646661758E0,-8.678468704E0,2.129014015E0
2.341249435E0,-1.700100541E0,-1.138624668E1,-6.757929325E0
2.350962925E0,-9.245268703E-1,-1.579621887E1,-8.783154488E0
2.360677092E0,-6.418746710E-1,-2.015324974E1,-8.570193291E0
2.370390529E0,-2.772683144E0,-2.174058914E1,-8.768797874E0
2.380103081E0,-4.901099205E0,-2.303809547E1,-6.515954971E0
2.389816519E0,-6.498009205E0,-2.259781647E1,-1.646561027E0
2.399530685E0,-6.703791618E0,-2.044547272E1,-4.464408875E0
2.409244123E0,-5.521139145E0,-1.847976875E1,-6.767500877E0
2.418956675E0,-5.415854931E0,-1.701237106E1,-5.108377457E0
2.428670113E0,-5.482853889E0,-1.547767448E1,-1.971984982E0
2.438384331E0,-4.130311012E0,-1.354307747E1,1.256231871E-2
2.448097665E0,-2.583650351E0,-1.195603752E1,5.440680385E-1
2.457810269E0,-1.997109652E0,-1.103180981E1,1.054038405E0
2.467523758E0,-1.168594718E0,-1.010997486E1,1.815255046E0
2.477237925E0,-6.972087026E-1,-9.174081802E0,2.485843658E0
2.486951258E0,-6.370890141E-1,-8.261817932E0,2.416152716E0
2.496663915E0,-9.652048349E-1,-7.215556622E0,2.073979139E0
2.506377352E0,-1.412961721E0,-6.327520370E0,1.690828323E0
2.516091519E0,-1.795813441E0,-5.515755177E0,8.793623447E-1
2.525804956E0,-2.344068766E0,-4.680361271E0,-3.678964674E-1
2.535517508E0,-3.139084101E0,-3.875774384E0,-1.948056698E0
2.545230946E0,-3.723232031E0,-3.294019461E0,-3.763012648E0
2.554945113E0,-3.670589924E0,-2.561516523E0,-4.835296154E0
2.564658550E0,-2.947658300E0,-1.630110383E0,-4.107579231E0
2.574371102E0,-1.384247899E0,-8.377870321E-1,-2.731107950E0
2.584084540E0,4.546363056E-1,6.538388133E-1,-2.606382132E0
2.593798758E0,-3.547359705E-1,2.706880569E-1,-2.592025042E0
2.603512092E0,-1.786242127E0,-2.168794632E0,-2.046162367E0
2.613224696E0,-1.101595759E0,-2.338984251E0,-5.546562672E0
2.622938185E0,1.938784599E0,-2.947060108E0,-1.411256886E1
2.632652352E0,5.316852093E0,-4.797609329E0,-1.678445435E1
2.642365685E0,6.046961784E0,-5.901299000E0,-7.220043182E0
2.652078290E0,5.393422127E0,-7.598707199E0,-1.354337573E0
2.661791779E0,1.840678811E0,-6.664908409E0,1.439581871E0
2.671505946E0,-1.130309582E0,-5.463113308E0,2.775375128E0
2.681219279E0,-4.036691666E0,-6.921239376E0,4.008276939E0
2.690931935E0,-7.326224804E0,-1.107488060E1,1.341476202E0
2.700645373E0,-9.878469467E0,-1.400997639E1,-3.631108403E-1
2.710359540E0,-4.913063049E0,-1.674886131E1,4.405784607E0
2.720072977E0,2.700898647E-1,-2.028276062E1,8.782257080E0
2.729785529E0,4.897809029E0,-1.976082611E1,1.058734322E1
2.739498967E0,6.200401783E0,-1.921257210E1,7.003492832E0
2.749213133E0,4.991427898E0,-1.743829346E1,-7.390831113E-1
2.758926571E0,2.700898647E-1,-1.599721622E1,-1.469193101E0
2.768639123E0,-4.606482506E0,-1.515434361E1,-1.286142170E-1
2.778352560E0,-7.261618614E0,-1.521177197E1,-2.195414752E-1
2.788066779E0,-6.447759628E0,-1.462283802E1,-7.055835724E-1
2.797780113E0,-3.931407690E0,-1.377548027E1,-1.598704576E0
2.807492717E0,-2.305783749E0,-1.252582836E1,-1.665703654E0
2.817206154E0,-9.843474030E-1,-1.078534889E1,-1.471585870E0
2.826920373E0,2.437688112E-1,-9.621838570E0,-7.606185079E-1
2.836633706E0,6.915257573E-1,-8.400602341E0,-7.366902828E-1
2.846346310E0,8.344969153E-2,-7.778169155E0,-2.584846735E0
2.856059748E0,-2.705684185E0,-9.846764565E0,-4.071686745E0
2.865773967E0,-6.921837807E0,-1.398844147E1,-5.292624474E0
2.875487300E0,-7.089335442E0,-1.129023457E1,-3.868296862E0
2.885199904E0,-6.409474373E0,-1.170688438E1,-7.236793041E0
2.894913394E0,-2.279462576E0,-1.268136215E1,-1.076560783E1
2.904627560E0,1.359422326E0,-1.306929779E1,-1.179512024E1
2.914340894E0,3.411267757E0,-1.263111210E1,-1.224048424E1
2.924053498E0,4.320839405E0,-1.109402275E1,-1.331306744E1
2.933766988E0,4.287340164E0,-8.716753960E0,-1.363370514E1
2.943481154E0,4.251447678E0,-7.076773167E0,-1.166351509E1
2.953194488E0,4.577170849E0,-6.504589081E0,-8.208578110E0
2.962907092E0,3.791726589E0,-5.822335720E0,-4.713262558E0
2.972620581E0,1.692323804E0,-5.024927616E0,-2.099103689E0
2.982334748E0,-8.814560175E-1,-4.167997837E0,-1.179661512E0
2.992048081E0,-3.641875982E0,-3.303590775E0,-1.325623751E0
3.001760685E0,-4.872385025E0,-2.700300455E0,-1.286142170E-1
3.011474175E0,-4.458127499E0,-2.942274570E0,3.117847919E0
3.021188342E0,-3.687339783E0,-3.215056419E0,6.443273067E0
3.030901779E0,-3.261118174E0,-4.534099579E0,6.064908028E0
3.040614331E0,-3.445365429E0,-7.306483746E0,1.008574724E0
3.050327769E0,-3.684946775E0,-1.070369434E1,-2.872284412E0
3.060041935E0,-3.747160196E0,-1.474038601E1,-5.089234829E0
3.069755373E0,-2.557329178E0,-1.893231201E1,-7.153044224E0
3.079467925E0,-1.891825438E0,-2.260978127E1,-7.852047443E0
3.089181363E0,-2.367997169E0,-2.397189522E1,-7.602894783E0
3.098895529E0,-3.373580933E0,-2.318196487E1,-5.953342915E0
3.108608967E0,-4.367200375E0,-2.172383881E1,-5.177769184E0
3.118321519E0,-4.836492538E0,-2.042872238E1,-4.667798996E0
3.128034956E0,-5.217250824E0,-1.908784485E1,-4.347160339E0
3.137749175E0,-5.528317451E0,-1.745025826E1,-3.466003656E0
3.147462508E0,-5.367998600E0,-1.565235043E1,-2.376671076E0
3.157175113E0,-4.388735771E0,-1.412752438E1,-1.574776411E0
3.166888550E0,-3.637090445E0,-1.261914825E1,-9.403793216E-1
3.176602769E0,-3.246761322E0,-1.128784180E1,-7.597211748E-2
3.186316102E0,-2.851646423E0,-9.971191406E0,6.565307379E-1
3.196028706E0,-2.329711914E0,-8.812466621E0,1.147358418E0
3.205742144E0,-1.858325839E0,-7.699205875E0,1.520937920E0
3.215456363E0,-1.989931107E0,-6.423233509E0,1.190429211E0
3.225169696E0,-2.385046005E0,-5.219045162E0,7.716853023E-1
3.234882300E0,-2.542972326E0,-4.266103745E0,4.004986882E-1
3.244595738E0,-2.705684185E0,-3.476173162E0,-8.108677864E-1
3.254309956E0,-3.119941711E0,-2.733799934E0,-1.988734722E0
3.264023290E0,-3.795016766E0,-2.065903187E0,-3.164208889E0
3.273735894E0,-3.957728624E0,-1.508076429E0,-4.287040710E0
3.283449331E0,-3.548556089E0,-7.540382147E-1,-4.047758579E0
3.293163550E0,-2.444866419E0,-8.614161611E-2,-1.809273005E0
3.302876883E0,-4.289134443E-1,1.498804331E0,-6.314060688E-1
3.312589488E0,4.426721931E-1,7.375875711E-1,-6.218347549E-1
3.322302925E0,4.953143001E-1,-1.972583175E0,3.622135222E-1
3.332017144E0,2.922832966E0,-1.524826288E0,6.041877344E-2
3.341730477E0,3.025724173E0,-3.710669756E0,-3.195614576E0
3.351443081E0,4.170091629E0,-3.973880291E0,-1.189322567E1
3.361156571E0,5.680860043E0,-5.048855782E0,-1.756959915E1
3.370870738E0,5.805286884E0,-5.420042515E0,-1.042792130E1
3.380584071E0,4.914558411E0,-7.289734364E0,-5.024628639E0
3.390296675E0,1.764108539E0,-7.751848221E0,2.313261271E0
3.400010165E0,-2.104786634E0,-8.257032394E0,1.128395367E1
3.409724331E0,-6.306583405E0,-1.047637558E1,9.213264465E0
3.419437665E0,-1.004596710E1,-1.268614769E1,5.176572800E0
3.429150269E0,-8.020741463E0,-1.512084484E1,-5.038985252E0
3.438863758E0,-1.458425403E0,-1.542263889E1,2.741875648E0
3.448577925E0,4.809573591E-1,-1.996182442E1,7.599604607E0
3.458291258E0,2.635395050E0,-2.056990051E1,7.489534855E0
3.468003863E0,2.676073074E0,-1.895863342E1,4.082454681E0
3.477717352E0,6.484549642E-1,-1.738565063E1,8.554341197E-1
3.487431519E0,-2.044965982E0,-1.597089481E1,-9.738788009E-1
3.497144852E0,-3.378366470E0,-1.478106403E1,-1.064806104E0
3.506857508E0,-4.053740501E0,-1.444816208E1,-2.180459738E0
3.516570946E0,-4.312165737E0,-1.415623760E1,-3.372683525E0
3.526285113E0,-3.737588882E0,-1.413709545E1,-2.633002281E0
3.535998446E0,-2.674577475E0,-1.360558987E1,-1.663310885E0
3.545711102E0,-2.097608089E0,-1.198475170E1,-2.841177702E0
3.555424540E0,-2.097608089E0,-1.010518932E1,-3.590430260E0
3.565138706E0,-1.561316729E0,-8.123034477E0,-3.296113253E0
3.574852040E0,-1.494317770E0,-8.120641708E0,-2.984747171E0
3.584564696E0,-3.883551121E0,-1.087627602E1,-3.248256683E0
3.594278133E0,-7.197012424E0,-1.283689499E1,-5.218447208E0
3.603992300E0,-4.625924587E0,-9.336793900E0,-6.135496140E0
3.613705633E0,-2.822932482E0,-1.005254745E1,-1.009771156E1
3.623418238E0,-1.575673699E0,-1.054098225E1,-1.298973656E1
3.633131727E0,-9.771689177E-1,-1.074706364E1,-1.370309734E1
3.642845894E0,-9.122636169E-2,-1.070847988E1,-1.356192017E1
3.652559227E0,1.435992718E0,-1.029452133E1,-1.265683556E1
3.662271883E0,3.332304716E0,-9.135796547E0,-1.081346416E1
3.671985321E0,4.799703121E0,-8.032107353E0,-7.571788311E0
3.681699488E0,4.435994148E0,-6.878168583E0,-4.414159775E0
3.691412821E0,2.992224693E0,-5.752943993E0,-2.477169752E0
3.701125425E0,1.941177368E0,-4.431208611E0,-1.615454435E0
3.710838915E0,1.105783105E0,-3.188735247E0,-1.208375454E0
3.720553081E0,-6.107679605E-1,-2.446661234E0,-1.908276081E-1
3.730266415E0,-2.162214279E0,-2.475374937E0,4.092025757E0
3.739979019E0,-3.926621914E0,-2.874976397E0,7.161418915E0
3.749692508E0,-5.777470112E0,-3.978665829E0,7.690532207E0
3.759406675E0,-6.419045925E0,-6.351448536E0,3.627818346E0
3.769120008E0,-4.946562767E0,-9.564111710E0,-3.861118555E0
3.778832613E0,-3.414258718E0,-1.361516094E1,-8.323732376E0
3.788546102E0,-1.841576099E0,-1.887009811E1,-9.228518486E0
3.798260269E0,-8.790631890E-1,-2.277249336E1,-9.515956879E0
3.807973602E0,-2.842075109E0,-2.349303246E1,-8.084151268E0
3.817686206E0,-6.016752720E0,-2.286342049E1,-5.359623432E0
3.827399696E0,-7.852944851E0,-2.115404701E1,-5.163412094E0
3.837113863E0,-7.692625523E0,-2.018196297E1,-6.872784615E0
3.846827196E0,-7.051050186E0,-1.953081703E1,-6.384349823E0
3.856539800E0,-5.880361557E0,-1.871695709E1,-3.736392498E0
3.866253290E0,-4.589733124E0,-1.731865120E1,-1.512562990E0
3.875967456E0,-2.643470764E0,-1.564038658E1,-5.045864582E-1
3.885680790E0,-1.745564103E0,-1.379462242E1,-1.956132501E-1
3.895393394E0,-1.623530149E0,-1.186002541E1,3.574278951E-1
3.905106883E0,-1.877468467E0,-1.008126068E1,8.745766878E-1
3.914821050E0,-2.030609131E0,-8.417351723E0,1.159322619E0
3.924534383E0,-2.150250196E0,-6.710371971E0,1.240678549E0
3.934246988E0,-2.547757864E0,-5.307579517E0,1.094716311E0
3.943960425E0,-2.696112871E0,-4.282853603E0,1.403689623E0
3.953674644E0,-2.808575630E0,-3.574278831E0,1.580758452E0
3.963387977E0,-2.753540754E0,-3.033201694E0,5.871388316E-1
3.973100581E0,-2.617149830E0,-2.358126640E0,-4.423730969E-1
3.982814019E0,-2.571686029E0,-1.634896040E0,-1.976770639E0
3.992528238E0,-2.071287155E0,-1.079462171E0,-3.401397467E0
4.002241571E0,-9.675976634E-1,-1.285543919E0,-2.431705952E0
4.011954175E0,1.426421404E0,-1.903191328E0,-4.187439568E-3
4.021667613E0,3.406482220E0,-1.994118571E0,8.458628058E-1
4.031381779E0,2.664108992E0,-2.305185556E0,-4.304089844E-1
4.041095217E0,-1.250249892E-1,-3.571886063E0,-2.474776745E0
4.050807769E0,-1.307677627E0,-3.363411427E0,-6.832107067E0
4.060521206E0,-1.728814393E-1,-2.729014158E0,-1.615962791E1
4.070235373E0,2.642573595E0,-3.624528170E0,-1.781635857E1
4.079948810E0,4.093521118E0,-5.094319344E0,-8.395517349E0
4.089661363E0,2.700300455E0,-6.042475224E0,3.041277647E0
4.099374800E0,1.883749604E0,-6.207580090E0,7.901100159E0
4.109088967E0,1.285244823E0,-5.408078194E0,1.384098339E1
4.118802300E0,-4.589733124E0,-6.696014881E0,4.036991119E0
4.128514904E0,-1.135813046E1,-7.469494820E0,-3.034996510E0
4.138228394E0,-1.152323532E1,-1.057208824E1,-3.722035646E0
4.147942560E0,-6.952944279E0,-1.434287834E1,-5.261218548E-1
4.157655894E0,-4.750350952E0,-1.757258987E1,7.008278370E0
4.167368498E0,-2.047358990E0,-1.945663834E1,9.316155434E0
4.177081935E0,1.637288928E0,-1.915484428E1,7.276274681E0
4.186796154E0,3.116651535E0,-1.790519333E1,9.990034699E-1
4.196509488E0,1.941177368E0,-1.662922096E1,-2.817548811E-1
4.206222092E0,8.279166222E-1,-1.688764572E1,1.329512119E0
4.215935529E0,9.978070259E-1,-1.734975815E1,1.135394335E0
4.225649748E0,7.968099117E-1,-1.752473450E1,-4.112663865E-1
4.235363081E0,3.705884218E-1,-1.719661903E1,-1.464407444E0
4.245075685E0,7.866404206E-2,-1.662204170E1,-2.221137524E0
4.254789123E0,-3.547359705E-1,-1.548485279E1,-3.475574970E0
4.264503290E0,-8.934201598E-1,-1.358405399E1,-4.751547337E0
4.274216623E0,-1.182951689E0,-1.147478104E1,-5.812166214E0
4.283929279E0,-8.551349640E-1,-9.700801849E0,-5.802595139E0
4.293642717E0,-1.913360834E0,-9.451649666E0,-3.702893019E0
4.303356883E0,-4.678566456E0,-9.875477791E0,-2.728715181E0
4.313070217E0,-5.640780449E0,-8.745467186E0,-4.426123619E0
4.322782821E0,-5.664708614E0,-8.570791245E0,-8.938986778E0
4.332496258E0,-4.491627216E0,-8.719146729E0,-1.176879883E1
4.342210477E0,-3.431008577E0,-9.128618240E0,-1.276241875E1
4.351923810E0,-2.025823355E0,-9.681659698E0,-1.365763378E1
4.361636415E0,1.887338907E-1,-1.021077251E1,-1.494796276E1
4.371349852E0,2.793620348E0,-9.992726326E0,-1.439731503E1
4.381064019E0,4.648955345E0,-9.475577354E0,-1.169940758E1
4.390777456E0,5.166104317E0,-9.044570923E0,-8.012366295E0
4.400490008E0,4.979464054E0,-8.345566750E0,-4.411766529E0
4.410203446E0,3.679263830E0,-7.112665176E0,-1.833201289E0
4.419917613E0,1.299601793E0,-5.618646622E0,1.403689623E0
4.429630946E0,-1.946860313E0,-4.426422596E0,5.609972477E0
4.439343550E0,-4.733601570E0,-3.317947626E0,8.102396965E0
4.449057040E0,-5.758327484E0,-4.282853603E0,1.042223835E1
4.458771206E0,-6.021538258E0,-4.096213341E0,6.993921280E0
4.468484540E0,-6.756433964E0,-3.507279873E0,-2.043769598E0
4.478197144E0,-7.924729347E0,-8.084749222E0,-8.685049057E0
4.487910581E0,-8.439485550E0,-1.303819180E1,-7.454539776E0
4.497624748E0,-5.810969830E0,-1.897777557E1,-5.795416355E0
4.507338185E0,-2.590828657E0,-2.429043961E1,-5.757131100E0
4.517050738E0,-6.418746710E-1,-2.567408943E1,-4.653441906E0
4.526764175E0,-4.983053207E-1,-2.395035934E1,-3.485146284E0
4.536478342E0,-1.341177106E0,-2.110379791E1,-4.507479668E0
4.546191675E0,-2.296212435E0,-1.857548141E1,-5.958128452E0
4.555904279E0,-3.282653570E0,-1.667468452E1,-4.430909157E0
4.565617717E0,-4.922634602E0,-1.543699646E1,-2.063211441E0
4.575331935E0,-6.236892223E0,-1.428066444E1,-9.065806866E-1
4.585045269E0,-4.680959225E0,-1.303579903E1,-8.946165442E-1
4.594757873E0,-2.966800928E0,-1.218096256E1,-8.419744968E-1
4.604471310E0,-2.023430586E0,-1.147717381E1,-1.118644550E-1
4.614185477E0,-1.795813441E0,-1.024187946E1,5.919244885E-1
4.623898915E0,-1.853540182E0,-8.884251595E0,1.116251707E0
4.633611415E0,-2.025823355E0,-7.424031258E0,1.487438321E0
4.643324904E0,-1.987538338E0,-6.042475224E0,1.638186216E0
4.653039071E0,-2.076072693E0,-4.864608288E0,1.688435435E0
4.662752404E0,-2.320140600E0,-3.705883980E0,8.051848412E-1
4.672465008E0,-2.964408159E0,-2.705085993E0,-1.117448211E0
4.682178446E0,-3.728017569E0,-1.819442511E0,-3.123530865E0
4.691892613E0,-4.115953922E0,-1.167996526E0,-4.940879822E0
4.701606050E0,-4.072883129E0,-8.282157183E-1,-4.907380104E0
4.711318602E0,-2.660220623E0,-9.550353289E-1,-2.755036116E0
4.721032040E0,7.387840003E-2,-1.333400369E0,-1.060020447E0
4.730746206E0,1.692323804E0,-2.154437780E0,-8.898309469E-1
4.740459540E0,7.202396393E-1,-3.952344894E0,-1.421336651E0
4.750172144E0,9.188438654E-1,-4.922036171E0,-2.688037157E0
4.759885581E0,2.302792788E0,-4.914857864E0,-1.006899738E1
4.769599748E0,5.422136307E0,-5.513362408E0,-1.996361923E1
4.779313185E0,6.964011192E0,-5.065605640E0,-1.078475094E1
4.789025738E0,6.741478920E0,-6.547659874E0,1.815255046E0
4.798739175E0,4.562813759E0,-7.213163853E0,7.462914944E0
4.808453342E0,4.507778645E0,-5.597111225E0,1.105663490E1
4.818166675E0,3.040081263E0,-3.267698526E0,1.075484085E1
4.827879279E0,-9.052347183E0,-4.922036171E0,-1.340160179E1
4.837592717E0,-1.385504150E1,-6.363412857E0,-4.643870354E0
4.847306883E0,-1.481516171E1,-1.223360443E1,3.742673635E0
4.857020321E0,-1.172423267E1,-1.749123383E1,5.246263504E0
4.866732873E0,-6.962515831E0,-1.903759575E1,5.542973518E0
4.876446310E0,-1.400997639E0,-2.052922249E1,6.873981476E0
4.886160477E0,1.814357758E0,-1.911895180E1,5.583651543E0
4.895873810E0,3.662514210E0,-1.724925995E1,2.737090111E0
4.905586415E0,3.037688255E0,-1.578634834E1,1.226321578E0
4.915299852E0,1.526919961E0,-1.512802315E1,5.324030295E-2
4.925014019E0,-3.930211067E-1,-1.500598907E1,-1.189232826E0
4.934727352E0,-2.066501379E0,-1.496531105E1,-1.933699846E0
4.944439956E0,-2.717648268E0,-1.501795292E1,-2.331207514E0
4.954153394E0,-3.122334480E0,-1.525753403E1,-2.726322412E0
4.963867613E0,-3.641875982E0,-1.504427433E1,-3.399004459E0
4.973580946E0,-3.464508057E0,-1.456541061E1,-4.339982033E0
4.983293550E0,-2.286641121E0,-1.365105343E1,-4.581656933E0
4.993006988E0,-7.498508096E-1,-1.223121166E1,-5.656632900E0
5.002721154E0,-5.084747914E-3,-1.088824081E1,-6.559325218E0
5.012434488E0,-2.028216362E0,-9.889835358E0,-5.168197632E0
5.022147092E0,-4.352843285E0,-8.252246857E0,-2.350350142E0
5.031860529E0,-4.714458942E0,-7.830811024E0,-1.244267821E0
5.041574748E0,-3.675375462E0,-8.333602905E0,-3.082852840E0
5.051288081E0,-1.448854089E0,-8.692825317E0,-8.268697739E0
5.061000685E0,8.662018180E-1,-8.625826836E0,-1.531436443E1
5.070714123E0,2.762513638E0,-8.616254807E0,-1.966451645E1
5.080428290E0,4.742275238E0,-9.334401131E0,-1.924068642E1
5.090141623E0,5.381458282E0,-1.011715317E1,-1.546511173E1
5.099854227E0,4.397708893E0,-1.038544846E1,-1.023888779E1
5.109567665E0,2.879761934E0,-9.767801285E0,-5.256732464E0
5.119281831E0,2.228615284E0,-8.530113220E0,-1.404586911E0
5.128995165E0,1.682752490E0,-6.774978161E0,9.296116233E-1
5.138707769E0,2.030908167E-1,-4.630111694E0,2.263011932E0
5.148421206E0,-1.937289000E0,-2.927917719E0,3.443271875E0
5.158135425E0,-3.584448338E0,-2.312364101E0,7.058527470E0
5.167848758E0,-4.441378117E0,-3.049951553E0,9.526723862E0
5.177561363E0,-5.645565987E0,-4.591826439E0,8.430212975E0
5.187274800E0,-6.026323795E0,-7.033702374E0,4.072883129E0
5.196988967E0,-4.182952881E0,-1.058405304E1,-3.968795538E0
5.206702300E0,-2.461616278E0,-1.535324764E1,-9.733703613E0
5.216414904E0,-5.030909777E-1,-2.066082764E1,-1.077278709E1
5.226128342E0,-3.332005441E-1,-2.443161583E1,-1.083978558E1
5.235842508E0,-2.648256540E0,-2.446272278E1,-8.330910683E0
5.245555842E0,-5.432604790E0,-2.303570366E1,-4.631906509E0
5.255268446E0,-7.527521133E0,-2.089562225E1,-4.335196495E0
5.264981883E0,-8.652746201E0,-1.856351852E1,-4.856831551E0
5.274696102E0,-8.736495018E0,-1.662204170E1,-5.694917679E0
5.284409435E0,-8.305487633E0,-1.486242008E1,-4.667798996E0
5.294122040E0,-6.550651073E0,-1.342104340E1,-2.599203587E0
5.303835477E0,-3.914657831E0,-1.255454254E1,-1.117448211E0
5.313549644E0,-2.602792740E0,-1.190818119E1,-6.266204119E-1
5.323262977E0,-1.757528186E0,-1.119930744E1,3.861417472E-1
5.332975581E0,-8.144569993E-1,-1.029691410E1,1.731506228E0
5.342689019E0,-3.164508045E-1,-9.092725754E0,2.653341293E0
5.352403185E0,-3.810569942E-1,-7.562815189E0,2.717947483E0
5.362116519E0,-4.887340367E-1,-6.035296917E0,2.174477577E0
5.371829123E0,-6.801598072E-1,-4.558028221E0,1.458724499E0
5.381542560E0,-8.958129883E-1,-3.353840113E0,5.632106066E-1
5.391256727E0,-1.300499082E0,-2.362912416E0,-6.002993584E-1
5.400970060E0,-2.437688112E0,-1.321436286E0,-2.302493572E0
5.410682665E0,-2.983550787E0,-7.420741320E-1,-3.877868176E0
5.420396102E0,-2.636292458E0,-5.144568682E-1,-4.402195454E0
5.430110269E0,-1.072881818E0,-3.972085714E-1,-3.006282568E0
5.439823706E0,2.226222277E0,7.926224917E-2,-1.234696507E0
5.449536206E0,1.384846121E-1,-1.824228168E0,7.645068169E-1
5.459249644E0,-1.298106313E0,-2.997309446E0,4.531407952E-1
5.468963863E0,-1.027418256E0,-3.420839071E0,-2.118246317E0
5.478677196E0,-9.795617461E-1,-3.705883980E0,-1.179751301E1
5.488389800E0,2.365005970E0,-3.679563046E0,-2.117767715E1
5.498103238E0,5.616253853E0,-4.709074974E0,-1.045902824E1
5.507817404E0,4.220340729E0,-6.198009014E0,3.527020693E0
5.517530738E0,2.041675806E0,-6.595516682E0,9.239585876E0
5.527243342E0,-4.193421602E-1,-3.648456335E0,1.101595688E1
5.536956779E0,-5.631208897E0,-8.712865710E-1,-2.093719877E-2
5.546670946E0,-1.082183933E1,-6.727121830E0,-8.572586060E0
5.556384279E0,-1.312493134E1,-1.003101158E1,2.023729801E0
5.566096883E0,-9.823433876E0,-1.641386604E1,5.571687698E0
5.575810321E0,-4.508377075E0,-1.983739662E1,6.543771744E0
5.585524488E0,-1.034596682E0,-2.172623062E1,6.438487530E0
5.595237821E0,1.440778375E0,-2.162334061E1,6.060122490E0
5.604950425E0,3.995415688E0,-2.111336899E1,4.262215137E0
5.614663863E0,3.743870020E0,-1.967677879E1,2.212762833E0
5.624378029E0,2.178365946E0,-1.883659935E1,4.028915167E-1
5.634091363E0,1.443171144E0,-1.853719711E1,-1.222732425E0
5.643803967E0,1.153639674E0,-1.796740532E1,-1.948056698E0
5.653517404E0,9.667003751E-1,-1.716072655E1,-3.188436270E0
5.663231571E0,1.552343667E-1,-1.582014656E1,-5.122734070E0
5.672944904E0,-5.964110494E-1,-1.422802258E1,-6.291029930E0
5.682657508E0,-1.087238789E0,-1.264068413E1,-6.745965004E0
5.692370946E0,-1.115952611E0,-1.084038353E1,-6.379564285E0
5.702085113E0,-1.350748420E0,-9.300901413E0,-5.469992638E0
5.711798446E0,-3.536591768E0,-9.128618240E0,-3.181257725E0
5.721511050E0,-5.854040623E0,-9.655338287E0,-1.636989832E0
5.731224488E0,-5.688636780E0,-8.462815285E0,-1.644168258E0
5.740938654E0,-4.743172646E0,-7.668099403E0,-4.658227444E0
5.750652092E0,-3.383152008E0,-7.816454411E0,-1.054546833E1
5.760364592E0,-2.236391783E0,-7.759026527E0,-1.522104359E1
5.770078029E0,-1.170987606E0,-7.706384659E0,-1.698784447E1
5.779792196E0,2.581257522E-1,-7.897810459E0,-1.682034683E1
5.789505633E0,2.099103689E0,-8.328817368E0,-1.547946835E1
5.799218133E0,4.086342812E0,-8.781359673E0,-1.280309677E1
5.808931571E0,5.125426292E0,-8.759824753E0,-9.321838379E0
5.818645790E0,4.845166683E0,-8.314460754E0,-5.525027275E0
5.828359123E0,4.170091629E0,-7.747062206E0,-1.404586911E0
5.838071675E0,2.989831924E0,-6.837490559E0,2.464308262E0
5.847785113E0,2.724826932E-1,-6.061617851E0,6.694519520E0
5.857499331E0,-2.662613392E0,-6.313163280E0,1.155942726E1
5.867212665E0,-4.429413795E0,-7.861917973E0,1.494227982E1
5.876925217E0,-6.000002861E0,-5.491827011E0,9.940981865E0
5.886638654E0,-7.790731430E0,-4.512564182E0,-1.220339537E0
5.896352873E0,-1.102522945E1,-9.523433685E0,-1.015753174E1
5.906066206E0,-1.109222889E1,-1.429023552E1,-8.773583412E0
5.915778810E0,-6.876374245E0,-1.982064819E1,-6.860820770E0
5.925492144E0,-3.625126362E0,-2.374218369E1,-7.552645683E0
5.935206415E0,-1.877468467E0,-2.493440819E1,-7.327720165E0
5.944919748E0,-1.317248821E0,-2.457279396E1,-6.628716946E0
5.954632352E0,-1.523031592E0,-2.265045929E1,-6.872784615E0
5.964345790E0,-2.581257343E0,-2.078525352E1,-5.867201328E0
5.974059956E0,-3.802195072E0,-1.907348824E1,-3.281756163E0
5.983773290E0,-4.948955536E0,-1.710090446E1,-1.237089276E0
5.993485894E0,-4.031906128E0,-1.502513123E1,-1.214357466E-1
6.003199331E0,-2.226820469E0,-1.322483158E1,3.837489188E-1
6.012913498E0,-1.353141189E0,-1.189382362E1,9.272187948E-1
6.022626831E0,-4.360919297E-1,-1.068933678E1,1.367797256E0
6.032339383E0,-1.489532143E-1,-9.396614075E0,1.944766641E0
6.042052821E0,-1.250249892E-1,-8.345566750E0,2.667698145E0
6.051767040E0,-1.704886183E-2,-7.021738052E0,3.007778168E0
6.061480373E0,-1.896311939E-1,-5.764907837E0,3.034099102E0
6.071192925E0,-1.223629713E0,-4.440779686E0,2.758625507E0
6.080906363E0,-2.669791937E0,-3.131307602E0,1.750648856E0
6.090620581E0,-3.893122435E0,-1.800299883E0,-8.075776696E-2
6.100333915E0,-4.640281200E0,-3.445664644E-1,-2.130210400E0
6.110046467E0,-4.297808647E0,8.572286963E-1,-3.588037491E0
6.119759904E0,-2.945265532E0,1.529910922E0,-3.125923634E0
6.129474071E0,-8.383852243E-1,2.238784790E0,-1.692024708E0
6.139187404E0,-1.400997639E0,2.104487419E0,-7.606185079E-1
6.148900008E0,-3.555734396E0,2.204387933E-1,-3.032902777E-1
6.158613446E0,-4.240380764E0,1.429412484E0,-2.845963478E0
6.168327613E0,-6.505187511E0,1.000798106E0,-6.894320011E0
6.178040946E0,-5.755934715E0,-1.860120535E0,-1.097139072E1
6.187753550E0,-2.985943556E0,-3.770490170E0,-1.926222229E1
6.197466988E0,2.108675003E0,-5.374578953E0,-1.163001537E1
6.207181154E0,6.710371971E0,-7.653742313E0,-1.263410330E0
6.216894488E0,7.328019142E0,-9.494720459E0,1.968694806E0
6.226607092E0,7.042974472E0,-8.877073288E0,1.305075359E1
6.236320529E0,6.595217228E0,-9.056534767E0,2.033839417E1
6.246034696E0,-2.829512656E-1,-1.317218971E1,1.441675574E-1
6.255748029E0,-9.016454697E0,-1.270768261E1,-8.201399803E0
6.265460633E0,-6.524330139E0,-1.347847080E1,-1.301366520E1
6.275174071E0,-5.075775146E0,-1.106052399E1,-5.476573110E-1
6.284888238E0,-7.110870838E0,-1.802722740E1,1.255543995E1
6.294601571E0,-5.710172176E0,-2.157787704E1,1.474337673E1
6.304314175E0,1.029212832E0,-1.860449600E1,6.517450809E0
6.314027613E0,3.995415688E0,-1.786212158E1,-3.418147087E0
6.323741779E0,3.372982502E0,-1.719422531E1,-3.370290756E0
6.333455113E0,6.293123364E-1,-1.668904114E1,-2.386840582E-1
6.343167717E0,-7.450651526E-1,-1.665314865E1,-5.739783049E-1
6.352881154E0,-1.752742529E0,-1.605464363E1,-1.836491376E-1
6.362595321E0,-2.367997169E0,-1.564277935E1,2.760719061E-1
6.372308654E0,-1.707278967E0,-1.517827225E1,-5.859424472E-1
6.382021258E0,-8.407780528E-1,-1.443859100E1,-2.767000198E0
6.391734592E0,-6.514459848E-1,-1.308604813E1,-5.333302498E0
6.401448863E0,-1.001097202E0,-1.151067352E1,-7.643572807E0
6.411162196E0,-2.411366940E0,-1.025623608E1,-8.898308754E0
6.420874748E0,-4.594518661E0,-9.408578873E0,-7.698906898E0
6.430588185E0,-6.878767014E0,-8.561220169E0,-5.211268425E0
6.440302352E0,-7.589734554E0,-8.666504860E0,-4.246362686E0
6.450015685E0,-6.119643688E0,-9.786943436E0,-6.547360897E0
6.459728290E0,-3.780659676E0,-1.062951660E1,-1.085174942E1
6.469441727E0,-1.695314884E0,-1.098634624E1,-1.448614788E1
6.479155894E0,-4.121637046E-1,-1.052901745E1,-1.624098396E1
6.488869227E0,7.680960894E-1,-9.638588905E0,-1.549861145E1
6.498581831E0,2.108675003E0,-8.951250076E0,-1.316680527E1
6.508295269E0,3.451945782E0,-8.216354370E0,-9.561420441E0
6.518009435E0,4.711168766E0,-7.301698208E0,-5.560919762E0
6.527722769E0,4.138985157E0,-6.068796635E0,-1.988734722E0
6.537435373E0,2.008176327E0,-4.778466702E0,3.957130313E-1
6.547148810E0,-1.456032634E0,-3.313162088E0,4.116253376E0
6.556862977E0,-4.647459984E0,-2.377269268E0,5.526223660E0
6.566576310E0,-5.882754326E0,-2.171187401E0,5.772684574E0
6.576288863E0,-5.367998600E0,-2.532802820E0,5.921338558E0
6.586002300E0,-4.925027370E0,-3.016452074E0,2.619841576E0
6.595716519E0,-5.059025288E0,-5.223830700E0,-4.567300320E0
6.605429800E0,-5.983253002E0,-8.474779129E0,-1.048804092E1
6.615142404E0,-7.685447216E0,-1.281296730E1,-9.781559944E0
6.624855842E0,-6.828218460E0,-1.827637863E1,-8.515158653E0
6.634570008E0,-4.053740501E0,-2.355285263E1,-8.215756416E0
6.644283342E0,-2.274677038E0,-2.553769875E1,-6.365207195E0
6.653995946E0,-1.795813441E0,-2.454407883E1,-4.380660057E0
6.663709383E0,-1.757528186E0,-2.236062813E1,-5.761917114E0
6.673423550E0,-1.544566989E0,-2.002403641E1,-7.401897907E0
6.683136883E0,-2.938086987E0,-1.803470421E1,-5.891129494E0
6.692849488E0,-5.492425442E0,-1.658136368E1,-3.109174013E0
6.702562925E0,-7.161119938E0,-1.469013596E1,-1.373480201E0
6.712277092E0,-5.880361557E0,-1.281296730E1,-7.893323898E-1
6.721990425E0,-4.029513359E0,-1.177866936E1,-7.390831113E-1
6.731702977E0,-2.861217737E0,-1.055294609E1,-2.769692242E-1
6.741416467E0,-2.176571369E0,-9.288937569E0,5.368895531E-1
6.751130633E0,-2.104786634E0,-8.036892891E0,1.257428288E0
6.760843967E0,-2.021037817E0,-6.868597507E0,1.549651742E0
6.770556519E0,-1.805384636E0,-5.424828053E0,1.257428288E0
6.780269956E0,-1.851147413E0,-4.043570995E0,5.129613280E-1
6.789984123E0,-2.143071890E0,-2.827120066E0,-5.165506005E-1
6.799697456E0,-2.332104683E0,-1.838585138E0,-1.363908887E0
6.809410060E0,-2.574079037E0,-1.122532964E0,-1.625025630E0
6.819123498E0,-2.676970243E0,-5.838487148E-1,-2.029412746E0
6.828837665E0,-2.174178362E0,-5.072783828E-1,-2.685644388E0
6.838550998E0,-9.101698995E-1,-7.755736113E-1,-2.735893488E0
6.848263602E0,1.045962572E0,-1.378864050E0,-1.392622828E0
6.857977040E0,1.342672586E0,-1.680359721E0,9.631111473E-2
6.867691206E0,-3.188436031E-1,-2.142473459E0,-1.019342422E0
6.877404540E0,-3.052942514E0,-3.827918053E0,-3.892225027E0
6.887117092E0,-3.036192894E0,-5.269294739E0,-6.671787739E0
6.896830529E0,7.627122104E-2,-5.264508724E0,-1.111047363E1
6.906544696E0,4.019343853E0,-6.562016964E0,-1.398814201E1
6.916258029E0,6.949654102E0,-6.765407085E0,-9.963713646E0
6.925970633E0,7.404589653E0,-6.370591164E0,-5.907281041E-1
6.935684071E0,4.794917583E0,-7.004988194E0,8.145467758E0
6.945398238E0,2.985046148E0,-7.361518860E0,1.229910851E1
6.955111571E0,-2.648256540E0,-8.613862038E0,6.689733982E0
6.964824175E0,-1.121665478E1,-9.710372925E0,-5.158626556E0
6.974537613E0,-1.280877972E1,-1.160638618E1,-1.140718365E1
6.984251779E0,-9.263215065E0,-1.248036480E1,-1.615454435E0
6.993965113E0,-7.582555771E0,-1.700519180E1,8.947361946E0
7.003677665E0,-2.464009047E0,-1.962652969E1,1.112124157E1
7.013391102E0,2.501396894E0,-1.734258080E1,5.337191105E0
7.023105321E0,3.633800268E0,-1.531256962E1,2.760719061E-1
7.032818602E0,2.530110836E0,-1.426630783E1,-8.228318691E-1
7.042531206E0,-3.140579537E-2,-1.361516094E1,-1.083948612E0
7.052244644E0,-1.958824396E0,-1.415623760E1,-2.178066730E0
7.061958810E0,-2.006680965E0,-1.545374584E1,-3.078067303E0
7.071672144E0,-9.173483849E-1,-1.627239037E1,-3.640679598E0
7.081384748E0,-2.422732860E-2,-1.666032600E1,-3.540181160E0
7.091098185E0,-3.284149170E-1,-1.582732582E1,-3.099602699E0
7.100812352E0,-5.389832854E-1,-1.463719559E1,-4.741976261E0
7.110525685E0,1.719841212E-1,-1.343540001E1,-7.018746853E0
7.120238238E0,1.097707376E-1,-1.180738354E1,-7.255935669E0
7.129951675E0,-1.345962763E0,-1.038784122E1,-5.639883041E0
7.139665842E0,-4.087240219E0,-9.442078590E0,-4.169792652E0
7.149379175E0,-5.825326920E0,-7.938787460E0,-3.458825111E0
7.159091779E0,-5.631208897E0,-7.491030216E0,-5.019842625E0
7.168805217E0,-5.121238708E0,-7.615457058E0,-8.898308754E0
7.178519383E0,-4.735994339E0,-7.598707199E0,-1.277677536E1
7.188232717E0,-4.182952881E0,-7.481459141E0,-1.520668697E1
7.197945321E0,-2.322533369E0,-7.818847179E0,-1.578365612E1
7.207658654E0,5.814558864E-1,-8.716753960E0,-1.431835175E1
7.217372925E0,3.154936552E0,-9.525827408E0,-1.109372425E1
7.227086206E0,4.529314041E0,-9.499505997E0,-7.315756321E0
7.236798810E0,4.593920231E0,-8.676075935E0,-4.191328049E0
7.246512248E0,3.926023722E0,-7.464709282E0,-1.656132340E0
7.256226415E0,1.893320918E0,-5.992226124E0,7.235297561E-1
7.265939748E0,-7.594220638E-1,-4.294817448E0,1.786541224E0
7.275652352E0,-3.172583818E0,-2.911167860E0,3.596711636E0
7.285365790E0,-4.371985912E0,-2.719442844E0,6.974779129E0
7.295079956E0,-5.250750065E0,-3.521636724E0,8.243573189E0
7.304793290E0,-6.658328056E0,-5.154438972E0,3.314059258E0
7.314505842E0,-7.709375381E0,-8.515756607E0,-4.782654285E0
7.324219279E0,-8.571390152E0,-1.321765327E1,-9.475278854E0
7.333933446E0,-6.248856544E0,-1.867627907E1,-9.867701530E0
7.343646779E0,-2.562114954E0,-2.412742805E1,-9.903594017E0
7.353359383E0,-1.549352646E0,-2.548027039E1,-1.009771156E1
7.363072821E0,-2.693720102E0,-2.431676102E1,-7.586144924E0
7.372786988E0,-3.629911900E0,-2.224098778E1,-5.955735683E0
7.382500321E0,-4.589733124E0,-2.007189369E1,-5.283053398E0
7.392212925E0,-5.411069393E0,-1.815913010E1,-5.129912853E0
7.401926363E0,-6.813861370E0,-1.651197243E1,-3.873082638E0
7.411640529E0,-8.221738815E0,-1.483849144E1,-2.139781713E0
7.421353810E0,-7.505985737E0,-1.317936802E1,-1.229910851E0
7.431066415E0,-4.374378681E0,-1.184327602E1,-7.558328509E-1
7.440779852E0,-2.751147747E0,-1.114666557E1,-1.501496136E-1
7.450494019E0,-1.276570916E0,-1.049312592E1,8.745766878E-1
7.460207352E0,-3.355933726E-1,-9.703194618E0,1.928016901E0
7.469919956E0,3.634099364E-1,-8.467600822E0,2.239083767E0
7.479633394E0,9.834501147E-1,-6.825526714E0,2.097907305E0
7.489347560E0,1.234995604E0,-5.166403294E0,2.152942181E0
7.499060894E0,8.207381964E-1,-3.612564087E0,1.578365684E0
7.508773446E0,-1.896311939E-1,-2.314756870E0,2.521436810E-1
7.518486883E0,-1.709671736E0,-1.218544960E0,-1.172483087E0
7.528201050E0,-2.976372242E0,-2.273181528E-1,-2.453241348E0
7.537914383E0,-3.364009619E0,3.855435550E-1,-3.353540897E0
7.547626988E0,-2.303390980E0,5.222335458E-1,-3.334398270E0
7.557340425E0,2.964109182E-1,9.744769931E-1,-2.577668190E0
7.567054592E0,-3.403790295E-1,-1.179960608E0,-8.539385796E-1
7.576767873E0,-1.802991867E0,-2.142473459E0,-1.670489311E0
7.586480477E0,-1.226022482E0,-1.033998489E0,-4.820939541E0
7.596193915E0,-1.534995675E0,-3.021237612E0,-7.612466335E0
7.605908081E0,-2.398804724E-1,-3.116950512E0,-1.339920902E1
7.615621415E0,3.621836185E0,-3.588635683E0,-1.940818405E1
7.625334019E0,6.504290104E0,-3.772883177E0,-4.746761799E0
7.635047456E0,6.085546017E0,-5.702694416E0,4.836791992E0
7.644761623E0,5.020142078E0,-6.928418159E0,7.692924976E0
7.654474956E0,4.498207569E0,-6.061617851E0,1.380269814E1
7.664187508E0,1.194317579E0,-7.579565048E0,6.946064949E0
7.673900946E0,-9.461818695E0,-1.163988590E1,-1.573340702E1
7.683615113E0,-8.200202942E0,-1.442901993E1,-4.869094849E0
7.693328446E0,-7.352545738E0,-1.723250961E1,-1.866700768E0
7.703041050E0,-6.964908600E0,-1.628435516E1,9.423832893E0
7.712754488E0,-5.882754326E0,-2.021546364E1,1.637857246E1
7.722468654E0,-1.743171334E0,-1.917907143E1,9.282656670E0
7.732181988E0,1.744965911E0,-1.498206043E1,-1.438086390E0
7.741894540E0,2.178365946E0,-1.491266918E1,-2.142174482E0
7.751607977E0,-6.729813665E-2,-1.473320675E1,-5.739783049E-1
7.761322144E0,-2.964408159E0,-1.477627850E1,-1.071984529E0
7.771035477E0,-3.840480328E0,-1.567388535E1,-2.448455811E0
7.780748081E0,-2.700898647E0,-1.625324821E1,-3.468396425E0
7.790461519E0,-1.218844056E0,-1.686132431E1,-3.719642878E0
7.800175685E0,3.921238184E-1,-1.707219124E1,-2.541775942E0
7.809889019E0,1.309173107E0,-1.645454407E1,-1.852343798E0
7.819601571E0,1.907677889E0,-1.459651756E1,-3.382254839E0
7.829315008E0,2.329113722E0,-1.171645641E1,-6.149853230E0
7.839029175E0,1.141675472E0,-8.845966339E0,-8.005187988E0
7.848742508E0,-2.253141642E0,-6.435197353E0,-6.700501442E0
7.858455113E0,-8.506484032E0,-6.705586433E0,-4.277469635E0
7.868168550E0,-1.315843105E1,-8.146963120E0,-3.940081596E0
7.877882717E0,-1.056311512E1,-6.320342064E0,-5.201697350E0
7.887596050E0,-6.533901215E0,-7.246663570E0,-1.241994572E1
7.897308602E0,-2.097608089E0,-7.383353233E0,-1.944886208E1
7.907022040E0,1.594218135E0,-8.046463966E0,-2.059352875E1
7.916736206E0,4.433601379E0,-9.020642281E0,-1.714337730E1
7.926449540E0,6.521039963E0,-9.971191406E0,-1.214207935E1
7.936162144E0,6.626623154E0,-9.987940788E0,-7.119544506E0
7.945875581E0,5.178068161E0,-9.195617676E0,-2.932105064E0
7.955589748E0,2.970689297E0,-8.017750740E0,-2.985046208E-1
7.965303029E0,1.863410622E-1,-6.253343105E0,2.880360186E-1
7.975015633E0,-1.906182289E0,-4.742574692E0,1.322333574E0
7.984729071E0,-3.021835804E0,-4.337888241E0,4.276572227E0
7.994443238E0,-4.716851711E0,-5.020142078E0,6.450451851E0
8.004156571E0,-6.591329098E0,-6.614659309E0,7.252346516E0
8.013869175E0,-7.553842068E0,-8.896215439E0,6.122335911E0
8.023582508E0,-7.388438225E0,-1.171884918E1,-3.897309899E-1
8.033296779E0,-4.872385025E0,-1.553510189E1,-7.887939930E0
8.043010060E0,-1.025025368E0,-2.047657967E1,-1.170897865E1
8.052722665E0,-6.059823632E-1,-2.336860466E1,-1.242951679E1
8.062436102E0,-2.763111830E0,-2.391925430E1,-1.039920712E1
8.072150269E0,-4.537090778E0,-2.282752800E1,-7.428218842E0
8.081863602E0,-4.843671322E0,-2.114208412E1,-5.802595139E0
8.091576154E0,-4.539483547E0,-1.892513275E1,-4.631906509E0
8.101289592E0,-5.382355213E0,-1.665793419E1,-3.674179077E0
8.111003758E0,-7.345367432E0,-1.468535042E1,-2.283350945E0
8.120717092E0,-7.414759159E0,-1.302383423E1,-6.361917257E-1
8.130429696E0,-5.822933674E0,-1.156092262E1,-4.256233275E-1
8.140143133E0,-4.996811867E0,-1.045962620E1,-6.122635007E-1
8.149857300E0,-4.087240219E0,-9.611968994E0,-1.238285750E-1
8.159570633E0,-2.971586704E0,-8.905786514E0,6.828517914E-1
8.169283185E0,-1.843968987E0,-7.943572998E0,9.128618240E-1
8.178996623E0,-9.867402315E-1,-6.827919483E0,5.656034350E-1
8.188710790E0,-5.485545993E-1,-5.625824928E0,4.770690203E-1
8.198424123E0,-2.350948304E-1,-4.488636017E0,6.110670567E-1
8.208136727E0,-2.709871531E-1,-3.356232882E0,4.004986882E-1
8.217850060E0,-6.729813814E-1,-2.420340061E0,-1.501496136E-1
8.227564331E0,-1.817647934E0,-1.747358680E0,-1.210768223E0
8.237277613E0,-2.743969440E0,-1.165603757E0,-2.249851465E0
8.246990217E0,-2.875574589E0,-7.133602500E-1,-2.676073074E0
8.256703654E0,-2.116750717E0,-6.750751138E-1,-2.096710920E0
8.266417821E0,-2.997010350E-1,-6.511468887E-1,-1.510170221E0
8.276131154E0,2.345863581E0,-4.570291340E-1,-1.950449586E0
8.285843706E0,1.807179332E0,-2.815155745E0,-1.490728498E0
8.295557144E0,1.911267042E-1,-5.513362408E0,-4.789832592E0
8.305271310E0,9.619147182E-1,-4.297210217E0,-1.627209091E1
8.314984644E0,4.445565224E0,-4.474279404E0,-2.172114754E1
8.324697248E0,6.679265499E0,-5.113461971E0,-5.395515919E0
8.334410685E0,5.767001629E0,-7.170093060E0,7.175776005E0
8.344124852E0,5.539683342E0,-6.743871689E0,9.313762665E0
8.353838185E0,6.257829189E0,-3.353840113E0,1.144457150E1
8.363550738E0,1.733001828E0,-2.087438583E0,3.847957850E0
8.373264175E0,-1.150409317E1,-5.264508724E0,-1.394507122E1
8.382978342E0,-1.650060654E1,-9.813264847E0,-5.287838936E0
8.392691675E0,-1.534666729E1,-1.450559044E1,-6.840481758E-1
8.402404279E0,-1.118076324E1,-1.714636803E1,6.440880299E0
8.412117717E0,-6.212964058E0,-2.151566315E1,1.161924744E1
8.421831883E0,-3.212364316E-1,-2.185305023E1,1.009890842E1
8.431545165E0,4.610670090E0,-1.923410606E1,2.428116798E0
8.441257769E0,5.307280540E0,-1.746940041E1,-4.375874400E-1
8.450971206E0,3.499802113E0,-1.657418442E1,-1.004985452E0
8.460685373E0,7.680960894E-1,-1.602832222E1,-1.794916034E0
8.470398706E0,-1.063310504E0,-1.591825294E1,-2.762214661E0
8.480111258E0,-1.791027784E0,-1.553988743E1,-2.872284412E0
8.489824696E0,-1.396211982E0,-1.532214069E1,-3.255435228E0
8.499538863E0,-1.779063582E0,-1.497248936E1,-4.533800602E0
8.509252196E0,-2.617149830E0,-1.445055485E1,-5.378766060E0
8.518964800E0,-2.990729094E0,-1.359841156E1,-5.910272121E0
8.528678238E0,-2.863610506E0,-1.217617702E1,-6.369993210E0
8.538392404E0,-2.650649309E0,-1.053380394E1,-6.700501442E0
8.548105685E0,-3.258725405E0,-9.248259544E0,-5.572884083E0
8.557818290E0,-4.529912472E0,-8.170890808E0,-4.404588223E0
8.567531727E0,-5.334498882E0,-7.885846138E0,-4.552943230E0
8.577245894E0,-4.549055099E0,-8.175676346E0,-7.095317364E0
8.586959227E0,-3.198904753E0,-8.211568832E0,-1.258744335E1
8.596671779E0,-1.633101463E0,-7.998608112E0,-1.840050697E1
8.606385217E0,8.853443861E-1,-8.309675217E0,-2.030848312E1
8.616099383E0,3.717549086E0,-8.426922798E0,-1.682273865E1
8.625812717E0,5.407779217E0,-8.927322388E0,-1.119661522E1
8.635525321E0,5.118247509E0,-9.686445236E0,-6.499205589E0
8.645238758E0,3.755834341E0,-9.150154114E0,-3.023032188E0
8.654952925E0,2.173580170E0,-8.010572433E0,-4.232304990E-1
8.664666206E0,5.910272002E-1,-6.566802502E0,1.774577141E0
8.674378810E0,-1.001097202E0,-5.341079235E0,4.875077248E0
8.684092248E0,-2.511865616E0,-4.395316124E0,7.554141045E0
8.693806415E0,-2.789433002E0,-4.941178799E0,1.032173920E1
8.703519748E0,-2.942872763E0,-4.579862595E0,6.790232658E0
8.713232300E0,-5.293820858E0,-4.835894585E0,-2.395813704E0
8.722945738E0,-7.922336578E0,-8.621041298E0,-6.918248653E0
8.732659904E0,-8.930313110E0,-1.264546967E1,-6.468098640E0
8.742373238E0,-7.319046497E0,-1.782862282E1,-7.047461033E0
8.752085842E0,-5.320142269E0,-2.215963173E1,-9.132805824E0
8.761799279E0,-4.422235489E0,-2.365843582E1,-8.704191208E0
8.771513394E0,-3.842873096E0,-2.342603302E1,-6.336493492E0
8.781226727E0,-3.249154091E0,-2.185065842E1,-6.772286415E0
8.790939331E0,-3.318545818E0,-2.033300972E1,-7.380362511E0
8.800652769E0,-4.209274292E0,-1.902563286E1,-5.869594097E0
8.810366935E0,-5.480461121E0,-1.744068527E1,-3.525824070E0
8.820080269E0,-5.585745335E0,-1.575284863E1,-1.967199326E0
8.829792821E0,-3.469293833E0,-1.394537067E1,-1.165304661E0
8.839506258E0,-2.186142683E0,-1.278425312E1,-4.950151742E-1
8.849220425E0,-1.427318692E0,-1.158485126E1,2.138585299E-1
8.858933758E0,-7.833502889E-1,-1.023230743E1,9.176474810E-1
8.868646363E0,-6.299105883E-1,-8.862715721E0,1.427617788E0
8.878359800E0,-6.634100676E-1,-7.311269760E0,1.676471353E0
8.888073967E0,-5.629115105E-1,-5.743372440E0,1.815255046E0
8.897787248E0,-6.251249313E-1,-4.225425720E0,1.913659930E0
8.907499852E0,-1.144666553E0,-2.705085993E0,9.894321561E-1
8.917213290E0,-1.889432549E0,-1.378864050E0,-2.769692242E-1
8.926927456E0,-2.590828657E0,-2.392822653E-1,-1.466800332E0
8.936640790E0,-2.574079037E0,5.294120312E-1,-2.206780672E0
8.946353342E0,-1.954038739E0,9.361918569E-1,-2.673680305E0
8.956066779E0,4.546363056E-1,9.002995491E-1,-2.932105064E0
8.965780946E0,3.037688255E0,4.357928336E-1,-2.304886341E0
8.975494279E0,8.829515576E-1,-2.484946251E0,-8.467600942E-1
8.985206883E0,-1.032203913E0,-2.327019930E0,-2.568096876E0
8.994920217E0,-2.657827854E0,-2.147259235E0,-6.099604130E0
9.004634435E0,-2.167000055E0,-2.645265341E0,-1.384218025E1
9.014347769E0,2.161616087E0,-2.999702215E0,-1.636062622E1
9.024060373E0,5.649753571E0,-4.112963200E0,-4.576871395E0
9.033773810E0,5.979962826E0,-5.781657696E0,5.006682396E0
9.043487977E0,5.510969639E0,-6.126224041E0,8.767900467E0
9.053201310E0,5.096712112E0,-5.214259624E0,1.148524952E1
9.062913863E0,2.432005167E0,-6.803691864E0,1.225603771E1
9.072627300E0,-8.822636604E0,-5.520540714E0,-1.924786568E1
9.082341467E0,-1.040040398E1,-1.230060387E1,-7.001997471E0
9.092054800E0,-8.765208244E0,-1.574567032E1,-3.190829039E0
9.101767404E0,-6.450152397E0,-1.489831161E1,3.862314939E0
9.111480842E0,-5.755934715E0,-1.947817421E1,9.335298538E0
9.121194956E0,-4.613960266E0,-2.093151474E1,1.249292660E1
9.130908290E0,-1.937289000E0,-1.898256111E1,7.367201805E0
9.140620894E0,1.230209947E0,-1.777598000E1,7.980063558E-1
9.150334331E0,1.474277854E0,-1.574088478E1,-2.563311338E0
9.160048498E0,-2.853440940E-1,-1.539871120E1,-3.463610888E0
9.169761831E0,-1.149452209E0,-1.577677727E1,-2.628216505E0
9.179474435E0,-4.169493318E-1,-1.627239037E1,-3.209971666E0
9.189187769E0,1.014855862E0,-1.680628967E1,-3.073281527E0
9.198901988E0,1.218245864E0,-1.695494270E1,-3.753441334E0
9.208615321E0,8.973084688E-1,-1.644257927E1,-4.397409916E0
9.218327925E0,6.879365072E-3,-1.506580925E1,-5.330909729E0
9.228041363E0,-6.275177598E-1,-1.316740417E1,-6.508776665E0
9.237755529E0,-1.130309582E0,-1.064148045E1,-6.283851147E0
9.247468863E0,-2.540579557E0,-8.577970505E0,-4.119543076E0
9.257181415E0,-5.133202553E0,-7.174878597E0,-1.904985905E0
9.266894852E0,-8.506484032E0,-7.996214867E0,-2.154138565E0
9.276609019E0,-8.817850113E0,-8.144570351E0,-4.555335999E0
9.286322352E0,-5.700600624E0,-6.425626278E0,-8.350053787E0
9.296034956E0,-3.888336897E0,-6.439982891E0,-1.616202164E1
9.305748394E0,-2.133500576E0,-5.934798241E0,-2.070120621E1
9.315462560E0,-4.097708687E-2,-6.154938221E0,-2.025584221E1
9.325175894E0,2.496611357E0,-7.402495861E0,-1.662383652E1
9.334888498E0,4.953142643E0,-9.190832138E0,-1.104108143E1
9.344601831E0,5.778965950E0,-9.956833839E0,-4.279862404E0
9.354316050E0,5.065605640E0,-9.207581520E0,5.488536954E-1
9.364029383E0,3.097508907E0,-7.529315472E0,2.100300074E0
9.373741988E0,2.772683203E-1,-5.372185707E0,1.116251707E0
9.383455425E0,-1.997109652E0,-3.521636724E0,1.367797256E0
9.393169592E0,-3.661018610E0,-2.755335331E0,5.480760098E0
9.402882925E0,-5.109274387E0,-3.768097401E0,7.905886173E0
9.412595529E0,-6.996015072E0,-5.460720539E0,6.953243732E0
9.422308967E0,-8.408378601E0,-7.610671520E0,9.152546525E-2
9.432023133E0,-9.478569031E0,-1.166620636E1,-7.411468983E0
9.441736467E0,-6.404688835E0,-1.796022797E1,-9.666704178E0
9.451449071E0,-1.542174220E0,-2.375893402E1,-1.129472065E1
9.461162404E0,-8.216354847E-1,-2.647628403E1,-1.178076363E1
9.470876675E0,-1.985145450E0,-2.631566429E1,-8.953344345E0
9.480589956E0,-2.930908680E0,-2.472832680E1,-7.516753197E0
9.490302560E0,-3.163012505E0,-2.233670044E1,-7.686942577E0
9.500015998E0,-3.668197155E0,-2.016760635E1,-6.678966045E0
9.509730165E0,-5.583352566E0,-1.844148445E1,-4.215256214E0
9.519443498E0,-7.477271557E0,-1.664836311E1,-2.247458696E0
9.529156102E0,-5.839683533E0,-1.482892036E1,-1.009771109E0
9.538869540E0,-3.866801500E0,-1.342104340E1,-5.165506005E-1
9.548583706E0,-2.825325251E0,-1.182174015E1,1.561316848E-1
9.558297040E0,-2.049751759E0,-9.952048302E0,7.426723242E-1
9.568009644E0,-1.343569875E0,-8.273782730E0,1.073180914E0
9.577723081E0,-6.490531564E-1,-6.892525673E0,1.221535921E0
9.587437248E0,-2.183450609E-1,-5.506184101E0,1.367797256E0
9.597150581E0,-5.294120312E-1,-4.127319813E0,1.370190024E0
9.606863185E0,-1.046560764E0,-3.176771164E0,1.645364642E0
9.616576623E0,-1.783849239E0,-2.439482689E0,1.693221092E0
9.626290790E0,-2.681756020E0,-1.642074585E0,1.334297776E0
9.636004123E0,-3.416651726E0,-1.012463093E0,5.823532343E-1
9.645716727E0,-3.888336897E0,-4.570291340E-1,-6.314060688E-1
9.655430165E0,-3.802195072E0,-5.952146277E-2,-2.118246317E0
9.665144331E0,-2.727219582E0,-8.374879509E-2,-3.034996510E0
9.674857665E0,-2.279163599E-1,-5.216353536E-1,-1.869093537E0
9.684570269E0,2.805584431E0,-4.618147612E-1,-1.651346684E0
9.694283602E0,2.570788860E0,-1.512862086E0,-1.924128532E0
9.703997873E0,1.627717614E0,-3.219841957E0,-2.829213619E0
9.713711206E0,1.804786444E0,-3.576671600E0,-5.690132141E0
9.723423810E0,3.104687452E0,-3.150450230E0,-1.351167107E1
9.733137248E0,6.853941441E0,-4.357030869E0,-1.659272957E1
9.742851415E0,7.256234646E0,-4.246961117E0,-7.607680321E0
9.752564748E0,5.178068161E0,-5.460720539E0,2.655734062E0
9.762277352E0,5.170889854E0,-7.074379921E0,4.698008060E0
9.771990790E0,1.618146300E0,-7.883453369E0,1.144696426E1
9.781704956E0,-9.706186295E0,-1.303579903E1,9.912267685E0
9.791418290E0,-1.807328796E1,-1.451037598E1,1.721935034E0
9.801130894E0,-1.468325710E1,-1.577199173E1,-1.277677536E1
9.810844331E0,-7.182655334E0,-1.423041534E1,-1.238285750E-1
9.820558498E0,-5.346463203E0,-1.800090599E1,8.710473061E0
9.830271831E0,-1.353141189E0,-1.973450470E1,1.199282742E1
9.839984435E0,2.365005970E0,-1.920299911E1,9.009575844E0
9.849697873E0,4.339982033E0,-1.835055733E1,-7.845467329E-1
9.859412040E0,2.956332445E0,-1.614078522E1,-7.952546120E0
9.869125373E0,5.264210105E-1,-1.587996769E1,-5.891129494E0
9.878837977E0,1.360917836E-1,-1.736890221E1,-3.458825111E0
9.888551415E0,3.346960545E-1,-1.845344734E1,-1.620239973E0
9.898265581E0,1.025922745E-1,-1.836730576E1,-6.672984362E-1
9.907978915E0,-5.868397355E-1,-1.733779526E1,-1.888236165E0
9.917691519E0,-1.367498159E0,-1.558295822E1,-5.462814331E0
9.927404956E0,-2.186142683E0,-1.361994648E1,-8.603693008E0
9.937119123E0,-3.440579891E0,-1.115384388E1,-8.563014984E0
9.946832456E0,-5.173880577E0,-8.652147293E0,-7.153044224E0
9.956545060E0,-6.948158741E0,-6.751049995E0,-5.373980522E0
9.966258498E0,-8.051848412E0,-5.465506077E0,-4.011866093E0
9.975972717E0,-7.752446175E0,-4.833501816E0,-4.801796913E0
9.985686050E0,-6.198606968E0,-4.991427898E0,-8.036294937E0
9.995398654E0,-4.721637249E0,-4.929214478E0,-1.226441288E1
1.000511209E1,-3.261118174E0,-5.036891460E0,-1.551057529E1
1.001482626E1,-1.367498159E0,-5.709873199E0,-1.617637825E1
1.002453959E1,4.881358147E-1,-6.971488953E0,-1.435902977E1
1.003425220E1,2.178365946E0,-8.290532112E0,-1.073928738E1
1.004396563E1,3.040081263E0,-8.857930183E0,-5.991927147E0
1.005367980E1,2.915654421E0,-8.450851440E0,-2.350350142E0
1.006339313E1,2.453540564E0,-7.493422985E0,-1.021735311E0
1.007310574E1,1.380957723E0,-5.884549141E0,-6.457630396E-1
1.008281918E1,-3.140579760E-1,-4.213461399E0,2.157727718E0
1.009253339E1,-1.604387641E0,-2.978166819E0,6.148656845E0
1.010224673E1,-2.121536493E0,-2.673979282E0,9.174979210E0
1.011195933E1,-2.289033890E0,-3.763311863E0,4.956432819E0
1.012167277E1,-2.775076151E0,-5.870192051E0,-5.840879917E0
1.013138694E1,-4.884349346E0,-9.032606125E0,-1.088764191E1
1.014110027E1,-7.494021416E0,-1.434527111E1,-7.519145966E0
1.015081287E1,-5.396712303E0,-2.011017799E1,-6.106782436E0
1.016052631E1,-3.574877024E0,-2.393361092E1,-7.823333740E0
1.017024048E1,-4.204488277E0,-2.487458801E1,-8.160721779E0
1.017995392E1,-5.279464245E0,-2.355285263E1,-6.566503525E0
1.018966647E1,-5.003990173E0,-2.192244339E1,-6.085247040E0
1.019937990E1,-4.621138573E0,-2.026092720E1,-6.379564285E0
1.020909407E1,-5.224429131E0,-1.854437637E1,-5.491528034E0
1.021880740E1,-6.881159782E0,-1.706501198E1,-3.439682484E0
1.022852001E1,-7.173084259E0,-1.536521149E1,-1.426122308E0
1.023823345E1,-4.795814991E0,-1.338036537E1,-3.753740489E-1
1.024794761E1,-2.990729094E0,-1.193928814E1,1.489532143E-1
1.025766095E1,-2.025823355E0,-1.076142120E1,5.751747489E-1
1.026737355E1,-1.190130115E0,-9.722337723E0,9.631111026E-1
1.027708704E1,-8.072785139E-1,-8.716753960E0,1.259821177E0
1.028680121E1,-7.666005492E-1,-7.658527851E0,1.370190024E0
1.029651454E1,-1.147059321E0,-6.305984974E0,1.061216831E0
1.030622714E1,-1.446461320E0,-4.826323509E0,6.756733060E-1
1.031594058E1,-1.429711580E0,-3.574278831E0,2.258226424E-1
1.032565475E1,-1.582852125E0,-2.377269268E0,-5.021936297E-1
1.033536808E1,-1.925324917E0,-1.455434322E0,-1.299302697E0
1.034508069E1,-2.413759947E0,-7.492526174E-1,-2.431705952E0
1.035479412E1,-2.540579557E0,2.991028305E-4,-3.995116472E0
1.036450834E1,-1.786242127E0,3.400799036E-1,-4.912165642E0
1.037422168E1,-2.973082066E-1,-6.191428751E-2,-3.928117514E0
1.038393428E1,1.630110383E0,-1.144068360E0,-1.490728498E0
1.039364772E1,1.313061416E-1,-3.964308977E0,1.752742529E-1
1.040336188E1,-7.881359458E-1,-4.694717884E0,-1.684846282E0
1.041307532E1,-1.652244091E0,-5.906084538E0,-4.284647942E0
1.042278782E1,-1.405783296E0,-6.296413898E0,-1.005703354E1
1.043250131E1,3.032902718E0,-7.272984505E0,-2.016252136E1
1.044221548E1,6.255436420E0,-7.122236729E0,-1.420349598E1
1.045192881E1,8.637491226E0,-6.621837616E0,-1.622632861E0
1.046164142E1,7.007081985E0,-7.873881817E0,8.406285286E0
1.047135485E1,5.259424210E0,-7.744669437E0,1.191595745E1
1.048106902E1,3.439981699E0,-7.081558704E0,1.559103394E1
1.049078235E1,-6.299404621E0,-8.001000404E0,9.750752449E-1
1.050049501E1,-1.563380623E1,-7.052844524E0,-6.427420616E0
1.051020845E1,-1.228445244E1,-9.525827408E0,-7.890332699E0
1.051992261E1,-8.099704742E0,-1.248275757E1,-1.759023786E0
1.052963595E1,-8.458627701E0,-1.512802315E1,4.384249210E0
1.053934855E1,-6.588936329E0,-1.604507256E1,9.076574326E0
1.054906199E1,-3.407080412E0,-1.593260956E1,9.011968613E0
1.055877621E1,-1.271785259E0,-1.562602901E1,2.516950369E0
1.056848954E1,-7.378866673E-1,-1.451276875E1,-4.227220535E0
1.057820214E1,-3.260220885E-1,-1.425673676E1,-4.229613304E0
1.058791558E1,6.939185858E-1,-1.589193153E1,-2.982354403E0
1.059762975E1,1.591825247E0,-1.723250961E1,-2.333600283E0
1.060734308E1,2.214258194E0,-1.760130501E1,-7.965108156E-1
1.061705568E1,2.214258194E0,-1.745265007E1,-3.104687333E-1
1.062676912E1,1.359422326E0,-1.672732544E1,-2.455634356E0
1.063648334E1,6.053841114E-1,-1.574806309E1,-5.919843197E0
1.064619668E1,-2.327020019E-1,-1.425673676E1,-8.563014984E0
1.065590928E1,-1.590030670E0,-1.220728397E1,-8.768797874E0
1.066562272E1,-4.197309971E0,-1.044048309E1,-8.191828728E0
1.067533688E1,-6.969694138E0,-9.209974289E0,-6.686144829E0
1.068505032E1,-8.731708527E0,-8.652147293E0,-6.731608391E0
1.069476287E1,-6.576972008E0,-8.204390526E0,-9.166305542E0
1.070447631E1,-3.148655415E0,-9.003892899E0,-1.287248898E1
1.071419048E1,-1.135095239E0,-9.561718941E0,-1.575015640E1
1.072390381E1,-9.870393202E-3,-9.334401131E0,-1.629123306E1
1.073361642E1,1.031605721E0,-9.049356461E0,-1.365045452E1
1.074332985E1,2.168794632E0,-9.027820587E0,-9.783952713E0
1.075304407E1,2.817548752E0,-8.800502777E0,-6.542276382E0
1.076275740E1,2.611466885E0,-7.948358536E0,-3.846761465E0
1.077247001E1,1.534098387E0,-6.679265499E0,-2.115853310E0
1.078218345E1,3.921238184E-1,-5.522933960E0,-1.296909928E0
1.079189761E1,-9.915258884E-1,-4.481457710E0,-9.714859724E-1
1.080161095E1,-2.327319145E0,-4.206283092E0,1.417747438E-1
1.081132355E1,-2.574079037E0,-5.810371399E0,5.054538727E0
1.082103699E1,-1.743171334E0,-6.430411816E0,1.065673447E1
1.083075121E1,-1.700100541E0,-6.890132904E0,1.099202919E1
1.084046454E1,-2.119143486E0,-6.504589081E0,3.213560820E0
1.085017714E1,-4.321736813E0,-1.052901745E1,-6.166603088E0
1.085989058E1,-5.339284420E0,-1.525753403E1,-7.516753197E0
1.086960475E1,-4.657031059E0,-1.762523270E1,-8.266304970E0
1.087931818E1,-5.183751106E0,-2.048136520E1,-1.133779144E1
1.088903074E1,-7.223333359E0,-2.083789635E1,-9.697811127E0
1.089874418E1,-8.190631866E0,-1.998096657E1,-6.791429043E0
1.090845834E1,-7.458128929E0,-1.846780586E1,-7.061817646E0
1.091817168E1,-7.175477028E0,-1.712004852E1,-7.418647289E0
1.092788428E1,-7.980063438E0,-1.614557076E1,-5.654240131E0
1.093759772E1,-9.002098083E0,-1.502752399E1,-3.947260141E0
1.094731194E1,-7.120441914E0,-1.357209015E1,-2.664108992E0
1.095702527E1,-3.148655415E0,-1.231017494E1,-1.007378340E0
1.096673787E1,-1.824826360E0,-1.178106213E1,6.756733060E-1
1.097645131E1,-9.125627279E-1,-1.076381397E1,2.121835470E0
1.098616548E1,-2.781656384E-1,-9.655338287E0,2.682054996E0
1.099587892E1,4.208376706E-1,-8.532505989E0,2.598306179E0
1.100559142E1,7.848458290E-1,-7.184450150E0,2.198405743E0
1.101530490E1,9.547362328E-1,-5.817550182E0,2.038086653E0
1.102501907E1,6.580262184E-1,-4.481457710E0,1.492223978E0
1.103473240E1,8.105687052E-2,-3.095415115E0,5.392823815E-1
1.104444501E1,-7.761718631E-1,-2.037189484E0,-6.864410043E-1
1.105415845E1,-1.599601984E0,-1.208973646E0,-1.854736686E0
1.106387266E1,-1.728814363E0,-6.053841114E-1,-2.726322412E0
1.107358600E1,-9.053842425E-1,-3.062812984E-1,-3.487539053E0
1.108329860E1,1.855035782E0,-2.967100143E-1,-2.776571512E0
1.109301204E1,1.558026671E0,-1.273579836E0,-8.611170650E-1
1.110272621E1,-2.245963097E0,-3.605385542E0,-6.792625189E-1
1.111243954E1,-3.158226728E0,-1.613360643E0,-4.648656368E0
1.112215214E1,-4.532305241E0,-1.790728688E0,-7.737192154E0
1.113186563E1,-2.789433002E0,-1.867298961E0,-1.371984673E1
1.114157980E1,2.259721994E0,-3.253341436E0,-1.617159271E1
1.115129313E1,6.166902065E0,-4.510171413E0,-6.168995857E0
1.116100574E1,7.153044224E0,-6.001797199E0,1.698006749E0
1.117071918E1,6.327221394E0,-6.724729061E0,5.847161293E0
1.118043334E1,6.580860615E0,-6.861418724E0,1.004626560E1
1.119014678E1,4.115056515E0,-1.005015373E1,2.598306179E0
1.119985933E1,-6.849753857E0,-1.350957775E1,-8.424231529E0
1.120957277E1,-8.614460945E0,-1.470210075E1,-3.449253798E0
1.121928694E1,-6.000002861E0,-1.682064629E1,-5.955137610E-1
1.122900027E1,-8.032705307E0,-1.803948975E1,4.870291233E0
1.123871287E1,-7.201797962E0,-1.997618103E1,1.149003506E1
1.124842631E1,-3.431008577E0,-1.806341743E1,9.663115501E0
1.125814053E1,9.780662507E-2,-1.600200081E1,3.115455151E0
1.126785386E1,4.184448719E-1,-1.444576931E1,-1.074377418E0
1.127756647E1,-4.959124923E-1,-1.322483158E1,-4.129114628E0
1.128727990E1,-1.017846942E0,-1.329900932E1,-4.131507397E0
1.129699407E1,-1.089631557E0,-1.419691563E1,-3.422932863E0
1.130670751E1,-8.958129883E-1,-1.489591885E1,-2.417349100E0
1.131642006E1,-1.992024779E-1,-1.539392567E1,-1.663310885E0
1.132613350E1,-5.772684515E-2,-1.527189159E1,-1.558026671E0
1.133584767E1,-1.103689447E-1,-1.453669643E1,-2.910569668E0
1.134556100E1,-1.968096644E-1,-1.293260860E1,-4.885844707E0
1.135527360E1,-8.096713424E-1,-1.151306629E1,-5.714060307E0
1.136498704E1,-2.308176517E0,-1.025623608E1,-5.003093243E0
1.137470126E1,-5.401497841E0,-9.487542152E0,-2.879462957E0
1.138441459E1,-7.063014030E0,-8.407780647E0,-1.976770639E0
1.139412720E1,-7.611269951E0,-8.008178711E0,-5.527420521E0
1.140384063E1,-6.641578197E0,-8.106285095E0,-1.196979618E1
1.141355480E1,-5.166702271E0,-7.955537319E0,-1.709791374E1
1.142326813E1,-3.084049225E0,-8.120641708E0,-1.865175247E1
1.143298074E1,-2.111666054E-1,-8.853144646E0,-1.712902069E1
1.144269423E1,3.219542980E0,-9.674481392E0,-1.367916870E1
1.145240839E1,6.480361938E0,-1.019641590E1,-9.410672188E0
1.146212173E1,7.653443336E0,-9.808479309E0,-5.364409447E0
1.147183433E1,5.836393356E0,-8.558827400E0,-3.087638617E0
1.148154777E1,3.183650494E0,-7.347161770E0,-2.577668190E0
1.149126194E1,5.694918036E-1,-6.298806667E0,-2.572882652E0
1.150097537E1,-1.463211060E0,-5.223830700E0,-1.589133382E0
1.151068793E1,-2.822932482E0,-4.835894585E0,1.956730723E0
1.152040136E1,-4.051048756E0,-5.975476265E0,5.473581791E0
1.153011553E1,-6.172286034E0,-7.627421379E0,6.730412006E0
1.153982886E1,-7.532306671E0,-9.643374443E0,7.508677483E0
1.154954147E1,-6.761219501E0,-1.249950695E1,4.458426952E0
1.155925490E1,-1.829612017E0,-1.603310776E1,-2.788535595E0
1.156896912E1,2.961117983E0,-1.946381760E1,-1.046142101E1
1.157868246E1,2.209472656E0,-2.086930084E1,-1.462253952E1
1.158839506E1,-1.915753603E0,-2.103919220E1,-1.177358437E1
1.159810850E1,-4.654638290E0,-2.109662056E1,-6.791429043E0
1.160782266E1,-5.746363640E0,-2.003600121E1,-5.180161953E0
1.161753600E1,-6.840182781E0,-1.821655846E1,-5.357230663E0
1.162724860E1,-8.731708527E0,-1.646172333E1,-4.186542511E0
1.163696209E1,-1.046979523E1,-1.482174206E1,-2.577668190E0
1.164667626E1,-9.830613136E0,-1.303579903E1,-1.416550994E0
1.165638959E1,-6.454938412E0,-1.162313557E1,-1.067198873E0
1.166610220E1,-4.376771927E0,-1.068215847E1,-7.199404836E-1
1.167581563E1,-2.736790895E0,-9.540184021E0,1.728814393E-1
1.168552985E1,-1.611566067E0,-8.585148811E0,1.015753269E0
1.169524318E1,-8.431708813E-1,-7.833203793E0,1.367797256E0
1.170495579E1,-3.978067636E-1,-7.064808846E0,1.587936878E0
1.171466923E1,-2.662015259E-1,-6.133402824E0,1.822433591E0
1.172438339E1,-6.035895348E-1,-5.091926575E0,2.023729801E0
1.173409673E1,-1.245165110E0,-4.172783375E0,1.585544109E0
1.174380933E1,-1.944467545E0,-3.344268799E0,6.541379094E-1
1.175352277E1,-2.583650351E0,-2.355733871E0,-5.811567903E-1
1.176323699E1,-2.736790895E0,-1.455434322E0,-2.019841433E0
1.177295032E1,-2.339283228E0,-3.397808075E-1,-2.664108992E0
1.178266292E1,-4.983053207E-1,5.126622319E-1,-1.735095501E0
1.179237636E1,2.400898457E0,5.054838061E-1,1.848455518E-1
1.180209053E1,1.483849168E0,-2.731407166E0,1.633400559E0
1.181180386E1,1.373779297E0,-2.839084148E0,-1.203589797E0
1.182151647E1,1.514955878E0,-1.737787485E0,-6.314958096E0
1.183122996E1,1.217348501E-1,-4.759324074E0,-9.530313492E0
1.184094412E1,1.060319543E0,-4.067499161E0,-1.575255013E1
1.185065746E1,5.211567879E0,-4.943571568E0,-1.256112289E1
1.186037006E1,6.583253384E0,-4.800002098E0,-2.474776745E0
1.187008350E1,5.364708424E0,-7.237092018E0,4.750650406E0
1.187979766E1,2.989831924E0,-8.481958389E0,9.167800903E0
1.188951110E1,-3.677768469E0,-9.975976944E0,8.866005898E0
1.189922365E1,-1.304357529E1,-1.199671555E1,-2.833999395E0
1.190893709E1,-1.333789253E1,-1.275075340E1,-8.455337524E0
1.191865126E1,-6.777969360E0,-1.200628662E1,-1.725524187E0
1.192836459E1,-5.497210979E0,-1.555903053E1,4.982754230E0
1.193807720E1,-4.431806564E0,-1.921257210E1,9.179764748E0
1.194779063E1,-1.319641709E0,-1.797937012E1,8.813364029E0
1.195750485E1,1.294816136E0,-1.651914978E1,2.670090914E0
1.196721818E1,1.850250125E0,-1.580578995E1,-2.615953445E0
1.197693079E1,5.694918036E-1,-1.487916946E1,-4.912165642E0
1.198664423E1,-1.920240223E-1,-1.542024612E1,-4.986343384E0
1.199635839E1,5.742774606E-1,-1.648086548E1,-3.839582920E0
1.200607173E1,1.361815214E0,-1.670818329E1,-1.675274968E0
1.201578433E1,1.711466432E0,-1.607857132E1,-1.596311808E0
1.202549777E1,1.548455358E0,-1.501077461E1,-3.724428415E0
1.203521199E1,1.211067319E0,-1.399561977E1,-6.219244957E0
1.204492532E1,1.959123611E-1,-1.260718441E1,-7.258328438E0
1.205463793E1,-2.222034931E0,-1.092891788E1,-5.972485542E0
1.206435136E1,-5.003990173E0,-9.789336205E0,-3.827618837E0
1.207406553E1,-8.319844246E0,-9.897013664E0,-3.365504980E0
1.208377886E1,-8.137989998E0,-9.078369141E0,-4.641477585E0
1.209349147E1,-5.942574978E0,-7.280162811E0,-7.830512047E0
1.210320496E1,-4.932205677E0,-6.736692905E0,-1.482114315E1
1.211291912E1,-3.608376503E0,-5.939583778E0,-1.741885185E1
1.212263246E1,-1.944467545E0,-5.884549141E0,-1.667917061E1
1.213234506E1,4.040879309E-1,-6.593123913E0,-1.409342670E1
1.214205850E1,2.580360174E0,-7.359126091E0,-1.000917721E1
1.215177267E1,3.638586044E0,-7.847560883E0,-6.013462543E0
1.216148610E1,3.341876030E0,-7.586743355E0,-3.133102179E0
1.217119865E1,2.372184515E0,-7.064808846E0,-1.347159147E0
1.218091209E1,1.766501307E0,-6.578766823E0,-2.578266263E-1
1.219062626E1,8.470591903E-1,-5.467898846E0,1.058824062E0
1.220033959E1,5.473581702E-2,-4.610969067E0,4.322035789E0
1.221005220E1,-5.006981492E-1,-4.778466702E0,6.979564667E0
1.221976563E1,-2.305783749E0,-5.949155331E0,6.519843578E0
1.222947985E1,-4.513162613E0,-7.579565048E0,2.725125790E0
1.223919319E1,-7.314260483E0,-9.755837440E0,-3.623929977E0
1.224890579E1,-8.918349266E0,-1.324636745E1,-6.561717987E0
1.225861923E1,-5.813362598E0,-1.770180321E1,-8.905488014E0
1.226833339E1,-4.668995380E0,-2.107747650E1,-1.276002598E1
1.227804673E1,-5.415854931E0,-2.231516457E1,-1.120140076E1
1.228775933E1,-6.122036934E0,-2.256670952E1,-6.655037880E0
1.229747277E1,-5.322535038E0,-2.175733757E1,-4.531407833E0
1.230718699E1,-4.161417484E0,-2.061536407E1,-4.339982033E0
1.231690032E1,-4.084847450E0,-1.881506348E1,-3.868296862E0
1.232661293E1,-5.530710220E0,-1.665075493E1,-3.145066261E0
1.233632636E1,-6.801897526E0,-1.484327698E1,-2.434098721E0
1.234604053E1,-5.552245617E0,-1.311476135E1,-1.593919039E0
1.235575386E1,-3.921836376E0,-1.164945698E1,-7.103692293E-1
1.236546647E1,-2.782254457E0,-1.036869907E1,1.154536903E-1
1.237517990E1,-1.695314884E0,-9.253045082E0,6.278168559E-1
1.238489412E1,-9.221340418E-1,-8.285746574E0,6.349952817E-1
1.239460746E1,-5.341976285E-1,-7.253841877E0,5.751747489E-1
1.240432006E1,-3.332005441E-1,-6.190830231E0,6.086742878E-1
1.241403350E1,-2.135594189E-1,-5.286044121E0,1.013360381E0
1.242374766E1,-7.187440991E-1,-4.450351238E0,1.259821177E0
1.243346100E1,-1.747956991E0,-3.524029493E0,8.673982024E-1
1.244317360E1,-2.533401012E0,-2.733799934E0,5.802594870E-2
1.245288704E1,-2.732005358E0,-2.027618170E0,-8.443672657E-1
1.246260126E1,-2.021037817E0,-1.610967875E0,-1.510170221E0
1.247231459E1,2.006980032E-1,-1.431506157E0,-1.601097465E0
1.248202720E1,3.303590775E0,-1.175175071E0,-1.773380637E0
1.249174063E1,3.322733402E0,-1.256830096E0,-1.988734722E0
1.250145480E1,1.352243900E0,-2.738585472E0,-3.135494947E0
1.251116813E1,8.542376757E-1,-2.939881802E0,-5.840879917E0
1.252088074E1,2.102692872E-1,-4.072285175E0,-9.118449211E0
1.253059418E1,3.238685369E0,-2.595016241E0,-1.193868923E1
1.254030839E1,6.131010056E0,-2.815155745E0,-8.117650986E0
1.255002173E1,5.965605736E0,-3.294019461E0,-2.650051117E-1
1.255973433E1,3.652942896E0,-3.725026608E0,3.680460215E0
1.256944777E1,8.183453679E-1,-6.001797199E0,3.768994808E0
1.257916194E1,-6.347260952E0,-9.897013664E0,2.524128675E0
1.258887527E1,-1.054158020E1,-1.192253780E1,7.438986301E0
1.259858787E1,-1.493958855E1,-1.591107464E1,-2.111067772E0
1.260830131E1,-1.153520012E1,-1.537478256E1,-6.891927242E0
1.261801553E1,-6.236892223E0,-1.607139397E1,3.733102322E0
1.262772886E1,-4.537090778E0,-2.008864403E1,8.530712128E0
1.263744147E1,-1.211665511E0,-1.928435516E1,9.105288506E0
1.264715490E1,1.677966833E0,-1.697647858E1,5.495117188E0
1.265686907E1,2.709871531E0,-1.530539131E1,-1.692921966E-1
1.266658240E1,1.962712765E0,-1.414666653E1,-3.913760424E0
1.267629501E1,1.385743380E0,-1.380658627E1,-4.251148701E0
1.268600850E1,8.279166222E-1,-1.431655693E1,-4.320839405E0
1.269572266E1,1.172782183E0,-1.567867088E1,-3.233899832E0
1.270543600E1,8.542376757E-1,-1.574567032E1,-9.906286001E-1
1.271514860E1,-1.585244983E-1,-1.491984749E1,-1.050449133E0
1.272486204E1,-8.527421951E-1,-1.391904926E1,-4.797011375E0
1.273457621E1,-1.185344458E0,-1.239870930E1,-8.649156570E0
1.274428954E1,-2.397010088E0,-1.076381397E1,-8.756834030E0
1.275400214E1,-3.538984776E0,-1.003579712E1,-5.836094379E0
1.276371558E1,-4.769493580E0,-9.784550667E0,-3.339184046E0
1.277342980E1,-5.906682491E0,-9.705587387E0,-3.652643681E0
1.278314313E1,-4.757529736E0,-7.682456017E0,-5.326124191E0
1.279285574E1,-3.651447296E0,-7.502994537E0,-9.044271469E0
1.280256918E1,-2.392224550E0,-7.536494255E0,-1.284856033E1
1.281228334E1,-2.052144527E0,-7.052844524E0,-1.564965820E1
1.282199678E1,-1.487139225E0,-6.789335251E0,-1.659751511E1
1.283170928E1,2.126621157E-1,-7.115057945E0,-1.516840172E1
1.284142277E1,2.436790705E0,-7.948358536E0,-1.161087322E1
1.285113694E1,3.451945782E0,-8.407780647E0,-7.088139057E0
1.286085027E1,3.241078377E0,-8.319246292E0,-3.118745327E0
1.287056287E1,1.924427629E0,-7.548458099E0,-7.319046259E-1
1.288027631E1,2.772683203E-1,-6.344270229E0,1.899302900E-1
1.288999048E1,-1.082453132E0,-5.048855782E0,1.784148335E0
1.289970392E1,-2.265105724E0,-4.603790760E0,5.816054344E0
1.290941647E1,-4.166203499E0,-5.079962254E0,9.002396584E0
1.291912990E1,-5.559424400E0,-5.934798241E0,1.028554821E1
1.292884407E1,-5.580959797E0,-7.368697166E0,4.937290192E0
1.293855740E1,-5.222036362E0,-9.961619377E0,-6.686144829E0
1.294827001E1,-6.119643688E0,-1.410090351E1,-1.525215054E1
1.295798345E1,-5.289035320E0,-1.896102524E1,-1.622423553E1
1.296769761E1,-6.086144447E0,-2.275335121E1,-1.252283764E1
1.297741105E1,-6.320940018E0,-2.434786797E1,-6.650252342E0
1.298712360E1,-5.396712303E0,-2.332792664E1,-3.106781006E0
1.299683704E1,-4.664209366E0,-2.116361809E1,-4.651049137E0
1.300655121E1,-4.288237095E0,-1.915245247E1,-6.085247040E0
1.301626454E1,-4.956133842E0,-1.746461487E1,-4.761118889E0
1.302597714E1,-5.511568069E0,-1.608335686E1,-2.388635159E0
1.303569063E1,-4.477270126E0,-1.441466236E1,-7.342974544E-1
1.304540480E1,-3.005086184E0,-1.243490124E1,-1.980060786E-1
1.305511813E1,-2.643470764E0,-1.116102219E1,7.716853172E-2
1.306483074E1,-1.891825438E0,-1.000708294E1,7.740781307E-1
1.307454418E1,-1.101595759E0,-8.977571487E0,1.523330688E0
1.308425834E1,-7.689933777E-1,-7.720741272E0,1.602293849E0
1.309397178E1,-1.015454054E0,-6.305984974E0,1.458724499E0
1.310368433E1,-1.194915771E0,-5.010570526E0,1.461117268E0
1.311339777E1,-1.501496196E0,-4.029214382E0,1.295713425E0
1.312311194E1,-1.899003863E0,-3.114557743E0,5.703890920E-1
1.313282527E1,-2.459223509E0,-2.233400822E0,-8.515457511E-1
1.314253787E1,-2.641077995E0,-1.527219057E0,-2.178066730E0
1.315225131E1,-2.092822552E0,-9.526425004E-1,-3.099602699E0
1.316196553E1,-2.015953064E-1,-7.157530785E-1,-2.376671076E0
1.317167886E1,3.511766434E0,-2.967100143E-1,-8.515457511E-1
1.318139147E1,3.265305519E0,-1.393221021E0,-5.931209326E-1
1.319110490E1,1.644467354E0,-2.978166819E0,-1.943271041E0
1.320081907E1,2.365005970E0,-2.334198475E0,-6.085247040E0
1.321053251E1,7.585247755E-1,-3.638885021E0,-1.049282646E1
1.322024506E1,2.633002281E0,-2.681157827E0,-1.678684807E1
1.322995850E1,5.757430553E0,-2.887239695E0,-7.660322666E0
1.323967266E1,6.604788780E0,-3.961916208E0,1.434796333E0
1.324938600E1,5.656931877E0,-4.491028786E0,4.676472664E0
1.325909860E1,3.988237143E0,-4.625326157E0,6.376274109E0
1.326881204E1,-2.171785593E0,-6.789335251E0,1.331904888E0
1.327852626E1,-1.160219860E1,-1.143171024E1,-1.579562068E0
1.328823959E1,-1.295234871E1,-1.710090446E1,2.210369825E0
1.329795220E1,-1.213131142E1,-1.925803566E1,-3.221935749E0
1.330766563E1,-9.033205032E0,-1.832662773E1,5.037788868E0
1.331737985E1,-6.366403580E0,-2.319153595E1,9.014361382E0
1.332709318E1,-1.781456470E0,-2.225295067E1,8.549854279E0
1.333680579E1,1.498206019E0,-1.889402580E1,5.377869129E0
1.334651923E1,3.147758245E0,-1.715354729E1,1.614257932E0
1.335623339E1,3.504587889E0,-1.495095444E1,-2.819642305E0
1.336594673E1,2.039283037E0,-1.416820240E1,-5.254339218E0
1.337565938E1,-3.475574851E-1,-1.340668583E1,-5.297410011E0
1.338537282E1,-1.551745534E0,-1.343300724E1,-3.365504980E0
1.339508699E1,-8.216354847E-1,-1.451276875E1,-1.347159147E0
1.340480032E1,-1.704886109E-1,-1.374198055E1,-1.430907965E0
1.341451292E1,1.121635586E-1,-1.221685505E1,-3.705285788E0
1.342422636E1,-5.294119939E-2,-1.038305569E1,-5.836094379E0
1.343394058E1,-2.255534410E0,-9.367900848E0,-7.181757927E0
1.344365392E1,-6.291927338E0,-9.669695854E0,-7.222435951E0
1.345336652E1,-9.847362518E0,-1.037827015E1,-6.681358814E0
1.346307996E1,-1.050090218E1,-9.233902931E0,-5.745167255E0
1.347279418E1,-7.074978352E0,-6.997809887E0,-3.966402531E0
1.348250751E1,-4.147060871E0,-8.003393173E0,-5.527420521E0
1.349222011E1,-2.097608089E0,-7.984251022E0,-9.611669540E0
1.350193355E1,-4.959124923E-1,-7.390532017E0,-1.353320694E1
1.351164772E1,1.285244823E0,-6.930810928E0,-1.530479240E1
1.352136115E1,3.236292601E0,-6.774978161E0,-1.437338638E1
1.353107371E1,4.548456669E0,-6.310770512E0,-1.145025444E1
1.354078714E1,5.065605640E0,-5.767300606E0,-7.600502014E0
1.355050131E1,4.419244289E0,-5.266901970E0,-3.889832258E0
1.356021464E1,2.298007011E0,-4.649254322E0,-1.430907965E0
1.356992725E1,7.627122104E-2,-3.679563046E0,1.513460279E-1
1.357964074E1,-1.783849239E0,-2.731407166E0,9.248259664E-1
1.358935490E1,-2.734398127E0,-2.532802820E0,3.414557934E0
1.359906824E1,-2.791825771E0,-2.994916677E0,7.190133095E0
1.360878084E1,-3.110370398E0,-4.524528503E0,6.955636501E0
1.361849428E1,-4.362414837E0,-7.210771084E0,2.849552631E0
1.362820850E1,-5.545067310E0,-1.045005512E1,-3.758227110E0
1.363792183E1,-6.792325974E0,-1.493181133E1,-7.739584923E0
1.364763444E1,-3.914657831E0,-2.053400803E1,-7.801798344E0
1.365734787E1,-1.094417214E0,-2.428086853E1,-1.128036404E1
1.366706209E1,-1.738385677E0,-2.417528534E1,-1.175204945E1
1.367677542E1,-2.428116798E0,-2.413221550E1,-7.296613693E0
1.368648803E1,-3.206083298E0,-2.301416779E1,-6.094818592E0
1.369620147E1,-4.771886349E0,-2.053879356E1,-6.448956013E0
1.370591568E1,-6.964908600E0,-1.862363815E1,-4.890630245E0
1.371562902E1,-9.241679192E0,-1.699801445E1,-3.243471146E0
1.372534162E1,-9.512067795E0,-1.559492207E1,-2.352742910E0
1.373505506E1,-6.550651073E0,-1.415145206E1,-1.629811287E0
1.374476923E1,-4.587339878E0,-1.280818176E1,-9.451649189E-1
1.375448267E1,-3.548556089E0,-1.180738354E1,-2.554338276E-1
1.376419522E1,-2.459223509E0,-1.074227810E1,4.794618487E-1
1.377390865E1,-1.635494232E0,-9.482755661E0,1.101894855E0
1.378362282E1,-1.001097202E0,-8.012965202E0,1.650150299E0
1.379333626E1,-7.666005492E-1,-6.435197353E0,1.767398596E0
1.380304881E1,-1.003489971E0,-4.943571568E0,1.860718727E0
1.381276225E1,-1.795813441E0,-3.844667673E0,1.858325839E0
1.382247642E1,-2.459223509E0,-3.088236809E0,1.178465128E0
1.383218975E1,-2.923431158E0,-2.501696110E0,-2.985046208E-1
1.384190240E1,-2.918645382E0,-1.903191328E0,-2.350350142E0
1.385161584E1,-2.418545485E0,-1.328614831E0,-3.554538012E0
1.386133001E1,-1.420140266E0,-1.041176915E0,-3.324826956E0
1.387104334E1,8.231309652E-1,-1.060319543E0,-1.289731383E0
1.388075595E1,2.884547710E0,-4.570291340E-1,1.971087605E-1
1.389046944E1,2.601895571E0,-3.080759197E-2,-1.318445325E0
1.390018360E1,1.392921925E0,-1.982154489E0,-2.855534792E0
1.390989694E1,1.950748682E0,-2.511267424E0,-5.958128452E0
1.391960954E1,2.072782516E0,-2.429911375E0,-1.103121185E1
1.392932303E1,4.024129391E0,-2.913560629E0,-1.992533302E1
1.393903720E1,6.233901024E0,-3.519243956E0,-1.359063435E1
1.394875053E1,5.601896763E0,-4.249353886E0,-2.474776745E0
1.395846313E1,2.915654421E0,-6.478268147E0,3.062813044E0
1.396817657E1,4.402793646E-1,-7.469494820E0,1.065912724E1
1.397789079E1,-3.967299938E0,-1.097677517E1,1.643121338E1
1.398760412E1,-1.532034588E1,-1.411077404E1,8.913862228E0
1.399731673E1,-1.711585999E1,-1.525035572E1,-6.860820770E0
1.400703017E1,-7.508378506E0,-1.526949883E1,-9.405886650E0
1.401674438E1,-5.090131760E0,-1.570977783E1,3.012563705E0
1.402645772E1,-4.053740501E0,-1.953799438E1,9.857233047E0
1.403617032E1,1.263709426E0,-1.971267128E1,1.140359497E1
1.404588376E1,5.585147381E0,-1.830748558E1,6.495915413E0
1.405559798E1,5.094319344E0,-1.730429459E1,-8.611170650E-1
1.406531131E1,1.783251047E0,-1.578874111E1,-4.753940582E0
1.407502392E1,-4.001995921E-1,-1.538196087E1,-3.533002615E0
1.408473735E1,-1.020239711E0,-1.595414543E1,-3.628715515E0
1.409445157E1,-1.463211060E0,-1.686371613E1,-2.764607430E0
1.410416490E1,-1.808076620E0,-1.645454407E1,-1.103091240E0
1.411387751E1,-1.377069473E0,-1.551595974E1,-1.471585870E0
1.412359095E1,-6.227321029E-1,-1.405304718E1,-3.940081596E0
1.413330511E1,-1.824527234E-1,-1.233171082E1,-5.623133183E0
1.414301855E1,-7.043871880E-1,-1.080209827E1,-5.570491314E0
1.415273110E1,-3.311367512E0,-9.102297783E0,-4.145864487E0
1.416244454E1,-6.694220543E0,-7.222734928E0,-2.178066730E0
1.417215871E1,-8.645566940E0,-5.546862125E0,-1.541276932E0
1.418187214E1,-8.417949677E0,-5.518147945E0,-4.648656368E0
1.419158470E1,-6.869195461E0,-6.238687038E0,-1.106261730E1
1.420129813E1,-4.776672363E0,-6.870990276E0,-1.708355713E1
1.421101230E1,-2.382653236E0,-7.543672562E0,-1.900379753E1
1.422072574E1,2.676970363E-1,-8.577970505E0,-1.779961014E1
1.423043829E1,3.142972469E0,-9.672088623E0,-1.497936916E1
1.424015173E1,5.316852093E0,-1.004776096E1,-1.046859932E1
1.424986589E1,5.967998981E0,-9.315258980E0,-5.328516960E0
1.425957933E1,5.474778175E0,-7.727920055E0,-1.646561027E0
1.426929188E1,4.440779686E0,-6.214758396E0,1.489532143E-1
1.427900532E1,2.185544491E0,-4.311567307E0,9.559326172E-1
1.428871949E1,-9.101698995E-1,-2.662015200E0,3.433700562E0
1.429843292E1,-3.368795156E0,-1.891227245E0,6.369095802E0
1.430814548E1,-4.484448910E0,-2.822334290E0,7.242774963E0
1.431785892E1,-5.576174259E0,-4.914857864E0,4.288536549E0
1.432757308E1,-7.441379547E0,-7.565207958E0,-1.406979680E0
1.433728642E1,-9.854540825E0,-1.258564854E1,-7.895118237E0
1.434699907E1,-9.320642471E0,-1.894666862E1,-1.083500004E1
1.435671251E1,-4.290630341E0,-2.415853500E1,-1.089003468E1
1.436642668E1,-1.743171334E0,-2.729014206E1,-1.046620655E1
1.437614011E1,-1.630708575E0,-2.591367149E1,-7.284649372E0
1.438585267E1,-1.381855130E0,-2.353610229E1,-5.467599869E0
1.439556610E1,-1.659422517E0,-2.042154503E1,-6.228816509E0
1.440528027E1,-3.203690529E0,-1.766351700E1,-6.784250259E0
1.441499360E1,-5.887540340E0,-1.631546211E1,-4.682155609E0
1.442470621E1,-8.475378036E0,-1.526471329E1,-2.204387903E0
1.443441970E1,-8.686244965E0,-1.385922909E1,-9.978070259E-1
1.444413386E1,-5.466104031E0,-1.230778217E1,-7.342974544E-1
1.445384720E1,-3.352045536E0,-1.158485126E1,2.691925503E-2
1.446355980E1,-1.802991867E0,-1.097916794E1,1.434796333E0
1.447327329E1,-2.231307179E-1,-1.015065289E1,2.521735907E0
1.448298746E1,6.005984545E-1,-8.865108490E0,3.000599623E0
1.449270079E1,7.106683254E-1,-7.459923744E0,3.012563705E0
1.450241339E1,5.120640397E-1,-6.020939827E0,2.591127872E0
1.451212688E1,7.627122104E-2,-4.747360229E0,2.248655081E0
1.452184105E1,-5.054838061E-1,-3.538386583E0,2.097907305E0
1.453155438E1,-1.367498159E0,-2.219043970E0,1.018146038E0
1.454126699E1,-2.078465462E0,-1.144068360E0,-3.969094455E-1
1.455098048E1,-1.999502420E0,-5.862415433E-1,-1.713560104E0
1.456069464E1,-9.723833203E-1,-4.546363056E-1,-2.058425665E0
1.457040798E1,1.232602715E0,-6.631109715E-1,-1.392622828E0
1.458012058E1,3.866203070E0,-3.732803464E-1,-1.249053478E0
1.458983407E1,6.197410822E-1,-1.946262121E0,-5.213362575E-1
1.459954824E1,-1.154237866E0,-1.512862086E0,-2.477169752E0
1.460926157E1,-1.508674622E0,-2.841476910E-2,-6.360421658E0
1.461897418E1,-1.127916813E0,-1.512862086E0,-9.551849365E0
1.462868761E1,1.404886007E0,-1.817049742E0,-1.334417343E1
1.463840183E1,5.625824928E0,-2.997309446E0,-1.083260727E1
1.464811516E1,7.191628456E0,-3.758526087E0,-2.426920414E0
1.465782777E1,6.293721676E0,-4.955535889E0,3.247060299E0
1.466754121E1,4.392923355E0,-6.159723759E0,8.092824936E0
1.467725542E1,5.240281820E-1,-9.880263329E0,6.340082645E0
1.468696876E1,-1.348385429E1,-1.281296730E1,-3.595216036E0
1.469668136E1,-1.260778236E1,-1.674168205E1,-3.090031385E0
1.470639480E1,-8.343772888E0,-1.833859253E1,-7.847261906E0
1.471610902E1,-7.299903870E0,-1.658136368E1,4.209573269E0
1.472582235E1,-6.337689877E0,-2.143909264E1,1.163121223E1
1.473553496E1,7.609176040E-1,-2.388336182E1,1.181785202E1
1.474524839E1,5.886642933E0,-2.033779526E1,6.366703033E0
1.475496261E1,6.020640850E0,-1.853480339E1,2.224726915E0
1.476467595E1,3.636193037E0,-1.681346703E1,-7.677969933E-1
1.477438855E1,3.849453330E-1,-1.555424404E1,-1.723131418E0
1.478410199E1,-7.881359458E-1,-1.551595974E1,-2.886641502E0
1.479381621E1,-7.163512707E-1,-1.585843182E1,-3.652643681E0
1.480352954E1,-8.934201598E-1,-1.553510189E1,-3.231507063E0
1.481324214E1,-7.307082415E-1,-1.484566975E1,-3.784548044E0
1.482295558E1,-4.121637046E-1,-1.354068470E1,-5.096413136E0
1.483266980E1,-5.509474277E-1,-1.186511040E1,-6.954140663E0
1.484238313E1,-1.295713425E0,-1.055294609E1,-6.805785656E0
1.485209574E1,-3.629911900E0,-9.248259544E0,-5.378766060E0
1.486180918E1,-8.868100166E0,-8.826823235E0,-5.378766060E0
1.487152339E1,-1.106351471E1,-6.940382004E0,-5.271089077E0
1.488123673E1,-9.026025772E0,-6.171687603E0,-6.121139526E0
1.489094933E1,-6.282355785E0,-6.823133945E0,-9.329017639E0
1.490066277E1,-3.342474222E0,-7.124629498E0,-1.372463226E1
1.491037699E1,-9.795617461E-1,-7.332805157E0,-1.650180244E1
1.492009032E1,1.536491275E0,-7.742276669E0,-1.718884087E1
1.492980292E1,4.050450325E0,-8.185248375E0,-1.564008713E1
1.493951636E1,5.405386448E0,-8.156534195E0,-1.220698452E1
1.494923058E1,5.312066078E0,-8.072785378E0,-7.696514130E0
1.495894392E1,4.289732933E0,-7.845168114E0,-3.990330935E0
1.496865652E1,2.642573595E0,-7.361518860E0,-1.617847204E0
1.497836996E1,7.680960894E-1,-5.877370834E0,-1.860419661E-1
1.498808418E1,-1.242772222E0,-4.366602421E0,2.725125790E0
1.499779751E1,-2.868396044E0,-3.681955814E0,6.201299191E0
1.500751011E1,-3.490829229E0,-3.430410385E0,9.131608963E0
1.501722355E1,-3.026621580E0,-4.364209175E0,1.051795101E1
1.502693777E1,-3.799802303E0,-5.238187790E0,6.414559364E0
1.503665110E1,-6.383153439E0,-7.495816231E0,-4.912165642E0
1.504636371E1,-1.012014389E1,-1.318415356E1,-1.698305893E1
1.505607714E1,-9.129216194E0,-1.965045738E1,-1.386371517E1
1.506579136E1,-5.161916733E0,-2.531965256E1,-8.553443909E0
1.507550470E1,-2.514258385E0,-2.714896584E1,-6.429813385E0
1.508521730E1,-2.350948304E-1,-2.441486740E1,-5.474778175E0
1.509493074E1,-2.877369225E-1,-2.148455620E1,-7.270292282E0
