"Time (s)","Gyroscope x (rad/s)","Gyroscope y (rad/s)","Gyroscope z (rad/s)"
1.994941230E-1,-2.718575716E0,1.942494214E-1,1.038134933E0
2.092074560E-1,-2.498670816E0,-4.291202128E-2,7.730271816E-1
2.189216750E-1,-2.420482159E0,-3.348970115E-1,5.347967744E-1
2.286350080E-1,-2.466906548E0,-4.362976551E-1,3.820849657E-1
2.383476130E-1,-2.481566906E0,-3.190149665E-1,3.234436214E-1
2.480609460E-1,-2.309308052E0,-3.558185324E-2,3.600944579E-1
2.577751650E-1,-1.969676971E0,2.663294077E-1,4.688252807E-1
2.674884980E-1,-1.575069666E0,4.764608741E-1,5.128062963E-1
2.772010500E-1,-1.198787689E0,5.558710098E-1,3.991886973E-1
2.869144880E-1,-8.554915786E-1,5.289937258E-1,2.108950168E-1
2.966286540E-1,-5.012001991E-1,4.911212027E-1,1.542389300E-2
3.063419880E-1,-1.163664013E-1,4.984513521E-1,-1.568350345E-1
3.160545400E-1,2.990097404E-1,5.351021886E-1,-2.826695740E-1
3.257679770E-1,7.314895988E-1,6.157340407E-1,-3.608580232E-1
3.354821440E-1,1.163969398E0,6.817055345E-1,-3.950654566E-1
3.451954250E-1,1.569724798E0,7.000309825E-1,-3.767400384E-1
3.549080290E-1,1.881256819E0,6.731536984E-1,-3.168770075E-1
3.646213630E-1,2.073062897E0,5.656445622E-1,-2.362451702E-1
3.743355810E-1,2.150029659E0,3.603998721E-1,-2.008160353E-1
3.840489150E-1,2.190345526E0,1.637070626E-1,-2.411319613E-1
3.937615190E-1,2.334505558E0,1.930277348E-1,-3.327590525E-1
4.034748520E-1,2.604500055E0,4.960079789E-1,-3.975088596E-1
4.131890710E-1,2.770650387E0,9.309312105E-1,-4.231644273E-1
4.229024040E-1,2.683910131E0,1.321873426E0,-4.439332485E-1
4.326149560E-1,2.387038469E0,1.494132400E0,-3.767400384E-1
4.423283940E-1,1.913020849E0,1.404948711E0,-2.496838123E-1
4.520425600E-1,1.259414315E0,1.097081661E0,-2.228065431E-1
4.617558940E-1,5.213581324E-1,4.618005157E-1,-3.645231128E-1
4.714684460E-1,-1.527118147E-3,-4.338542521E-1,-6.223006248E-1
4.811818830E-1,1.218640283E-1,-8.199097514E-1,-8.507575393E-1
4.908960500E-1,6.716265678E-1,-1.614163816E-1,-1.007134438E0
5.006093830E-1,9.367342591E-1,6.865923405E-1,-1.106091619E0
5.103219350E-1,7.449282408E-1,2.809897363E-1,-1.145185947E0
5.200353730E-1,1.731752008E-1,-1.032484531E0,-1.136633992E0
5.297495400E-1,-6.139015034E-2,-1.843689680E0,-7.957812548E-1
5.394628730E-1,3.002314270E-1,-1.763057947E0,1.265980899E-1
5.491754250E-1,1.029583097E0,-4.191939235E-1,1.111436605E0
5.588888630E-1,1.579498291E0,1.722589284E-1,1.631878495E0
5.686030290E-1,1.666238666E0,-5.694623590E-1,1.365549088E0
5.783163100E-1,1.542847514E0,-1.480846524E0,5.934380889E-1
5.880289150E-1,1.314390540E0,-1.868123651E0,8.093725890E-3
5.977423520E-1,1.337602735E0,-1.774053097E0,-1.739387512E-1
6.074565190E-1,1.660130143E0,-1.204743505E0,-1.507265568E-1
6.171698000E-1,2.000983000E0,-5.841227174E-1,-1.177408099E-1
6.268824040E-1,2.277085781E0,-1.748550236E-1,-1.776038408E-1
6.365958420E-1,2.503099442E0,1.759240031E-1,-3.107685447E-1
6.463100080E-1,2.735221386E0,4.679090083E-1,-3.681881726E-1
6.560232900E-1,2.960013151E0,6.646018028E-1,-2.997733057E-1
6.657358940E-1,3.083404303E0,8.454126120E-1,-2.191414535E-1
6.754493310E-1,3.087069273E0,1.016449809E0,-2.142546773E-1
6.851634980E-1,3.050418615E0,1.141062737E0,-2.350234836E-1
6.948767790E-1,3.021097898E0,1.204590797E0,-1.336228400E-1
7.045893830E-1,2.975895166E0,1.097081661E0,2.047865391E-1
7.143028210E-1,2.835400343E0,8.869501948E-1,6.007682681E-1
7.240169880E-1,2.548301935E0,7.207997441E-1,8.756495714E-1
7.337303210E-1,2.081614733E0,6.108472347E-1,9.843803644E-1
7.434428730E-1,1.413347840E0,5.314370990E-1,9.452861547E-1
7.531563100E-1,5.983248949E-1,3.286358118E-1,7.901309133E-1
7.628704770E-1,-2.800734639E-1,6.459710002E-2,4.981459379E-1
7.725838100E-1,-1.154806733E0,-5.024218559E-2,1.339282542E-1
7.822963630E-1,-1.953794956E0,-1.114796288E-2,-1.776038408E-1
7.920098000E-1,-2.591519594E0,-2.580829710E-2,-3.645231128E-1
8.017239670E-1,-3.082640648E0,-1.882936656E-1,-4.353813827E-1
8.114373000E-1,-3.499238491E0,-4.631749392E-1,-4.573718905E-1
8.211499040E-1,-3.866968632E0,-7.624900937E-1,-4.475983381E-1
8.308632380E-1,-4.218969345E0,-1.201078415E0,-3.914003670E-1
8.405774560E-1,-4.460865021E0,-2.002510071E0,-3.107685447E-1
8.502907900E-1,-4.508511066E0,-2.847922564E0,-2.557922900E-1
8.600033940E-1,-4.278832436E0,-3.229091406E0,-1.250709742E-1
8.697168310E-1,-3.996468306E0,-2.603583813E0,2.341072112E-1
8.794309980E-1,-3.923166513E0,-1.380667567E0,5.909947157E-1
8.891443310E-1,-3.908506155E0,-7.307260633E-1,8.121214509E-1
8.988569350E-1,-3.832761049E0,-4.986040890E-1,8.328902125E-1
9.085702690E-1,-3.838869572E0,-5.390727147E-2,7.156075835E-1
9.182844880E-1,-3.904841185E0,3.090887070E-1,6.911736727E-1
9.279978210E-1,-3.798553705E0,1.073564067E-1,7.400414348E-1
9.377104250E-1,-3.563988447E0,-2.823641598E-1,8.072346449E-1
9.474238630E-1,-3.318427801E0,-3.373403847E-1,8.573241234E-1
9.571380290E-1,-3.050876617E0,-1.357607991E-1,8.658760190E-1
9.668513630E-1,-2.725905895E0,1.305686086E-1,8.231166601E-1
9.765639670E-1,-2.348402262E0,4.544703662E-1,7.082774043E-1
9.862774040E-1,-1.922030926E0,6.975875497E-1,5.164713860E-1
9.959915710E-1,-1.511541486E0,7.928797603E-1,3.038965166E-1
1.005704904E0,-1.135259628E0,7.782194018E-1,1.498102844E-1
1.015417508E0,-7.601994276E-1,7.207997441E-1,7.773031294E-2
1.025130842E0,-3.778090179E-1,6.340594292E-1,2.764083818E-2
1.034845113E0,1.435491070E-2,5.595360994E-1,-3.833066672E-2
1.044558446E0,4.297310412E-1,5.583143830E-1,-1.116323397E-1
1.054270998E0,8.561024070E-1,6.548282504E-1,-1.702736765E-1
1.063984435E0,1.256971002E0,7.745543122E-1,-2.142546773E-1
1.073698654E0,1.580719948E0,8.270871639E-1,-2.496838123E-1
1.083411935E0,1.796959877E0,7.611156702E-1,-2.570139766E-1
1.093124540E0,1.914242625E0,6.022953987E-1,-1.995943487E-1
1.102837977E0,1.982657433E0,4.373666346E-1,-1.128540337E-1
1.112552144E0,2.068176031E0,3.689517379E-1,-4.199574888E-2
1.122265581E0,2.226996422E0,4.996730685E-1,-2.000524849E-2
1.131978081E0,2.494547606E0,8.857285380E-1,-4.688252881E-2
1.141691519E0,2.810966492E0,1.470920205E0,-1.067455560E-1
1.151405738E0,2.983225346E0,2.026791096E0,-1.482831687E-1
1.161119071E0,2.809744596E0,2.222262383E0,-1.421747059E-1
1.170831675E0,2.255095482E0,1.872857690E0,-1.299577504E-1
1.180545113E0,1.481762767E0,1.068982720E0,-2.411319613E-1
1.190259279E0,7.803573608E-1,3.161134571E-2,-4.891359508E-1
1.199972613E0,5.909947157E-1,-4.839437306E-1,-7.750124335E-1
1.209685217E0,8.951966763E-1,6.337540597E-2,-9.607100487E-1
1.219398654E0,1.230093718E0,1.083643079E0,-1.042563558E0
1.229112821E0,1.151752472E0,8.796200752E-1,-1.158624530E0
1.238826154E0,3.466558158E-1,-1.417318344E0,-1.103648305E0
1.248538758E0,-4.376720488E-1,-2.796611547E0,-8.605310917E-1
1.258252196E0,-3.695625812E-2,-2.489966154E0,-2.203631550E-1
1.267966363E0,8.890882134E-1,-1.000720501E0,6.630746722E-1
1.277679800E0,1.730988383E0,3.677300513E-1,1.338671803E0
1.287392300E0,2.112157106E0,9.880454093E-2,1.370435834E0
1.297105790E0,1.977770686E0,-9.433009028E-1,7.314895988E-1
1.306819956E0,1.555064440E0,-1.831472754E0,6.306997687E-2
1.316533290E0,1.230093718E0,-2.239518881E0,-1.934858710E-1
1.326245894E0,1.316833973E0,-1.863236904E0,-9.941539168E-2
1.335959331E0,1.661351800E0,-1.053253412E0,3.741439432E-2
1.345673498E0,2.031525373E0,-3.385621011E-1,4.352286831E-2
1.355386935E0,2.391925097E0,2.174616307E-1,-1.201841980E-1
1.365099488E0,2.741329670E0,6.377245188E-1,-3.352024257E-1
1.374812925E0,3.089512825E0,8.038749695E-1,-4.378247857E-1
1.384527092E0,3.358285427E0,7.708892226E-1,-4.439332485E-1
1.394240425E0,3.462129593E0,8.136485219E-1,-4.292729199E-1
1.403953029E0,3.430365562E0,9.956810474E-1,-4.097257853E-1
1.413666467E0,3.302087545E0,1.112963676E0,-3.901786804E-1
1.423380685E0,3.115168333E0,1.049435616E0,-3.022166789E-1
1.433094019E0,2.880603075E0,7.989882231E-1,-8.353336155E-2
1.442806623E0,2.595948219E0,4.740174711E-1,1.950129867E-1
1.452520060E0,2.229439735E0,2.614426315E-1,4.981459379E-1
1.462234279E0,1.721214890E0,2.492256761E-1,7.754706144E-1
1.471947613E0,1.079672575E0,2.553341687E-1,9.807152748E-1
1.481660217E0,3.124483824E-1,-6.261184346E-3,1.072342396E0
1.491373654E0,-5.525113344E-1,-4.827220440E-1,1.018587828E0
1.501087821E0,-1.432131410E0,-8.785510659E-1,8.524373770E-1
1.510801258E0,-2.243336678E0,-1.044701576E0,6.850652099E-1
1.520513810E0,-2.947032690E0,-9.787300229E-1,6.056550741E-1
1.530227248E0,-3.527337551E0,-8.467870355E-1,5.775560737E-1
1.539941415E0,-3.992803097E0,-8.150229454E-1,5.091412067E-1
1.549654748E0,-4.346025467E0,-9.445225596E-1,4.211791754E-1
1.559367404E0,-4.685656548E0,-1.278045177E0,4.052971601E-1
1.569080842E0,-4.973976612E0,-1.870566964E0,3.894151151E-1
1.578795008E0,-4.975198269E0,-2.323815584E0,3.503209054E-1
1.588508342E0,-4.739411354E0,-2.050156116E0,4.822639227E-1
1.598220946E0,-4.343582153E0,-8.467870355E-1,7.889092565E-1
1.607934435E0,-3.877963781E0,6.560499668E-1,1.051573515E0
1.617648602E0,-3.512677193E0,1.541778445E0,1.115101695E0
1.627361935E0,-3.396616220E0,1.646844268E0,9.513946176E-1
1.637074540E0,-3.504125357E0,1.494132400E0,6.642963886E-1
1.646788029E0,-3.667832375E0,1.393953443E0,5.018110275E-1
1.656502196E0,-3.708148241E0,1.161831498E0,5.836645365E-1
1.666215529E0,-3.610412836E0,6.902574301E-1,7.913526297E-1
1.675928185E0,-3.512677193E0,2.626643181E-1,9.061918855E-1
1.685641623E0,-3.443040609E0,8.170082420E-2,8.182299137E-1
1.695355790E0,-3.124178410E0,-2.825168520E-2,6.349757314E-1
1.705069123E0,-2.603736401E0,8.399149403E-3,4.737120569E-1
1.714781779E0,-2.057638884E0,2.565558553E-1,3.258870244E-1
1.724495217E0,-1.549414039E0,5.387672782E-1,1.595838517E-1
1.734209383E0,-1.063179612E0,7.073611021E-1,-9.009997360E-3
1.743922821E0,-5.977140665E-1,7.427902818E-1,-1.421747059E-1
1.753635373E0,-1.151447073E-1,7.525638342E-1,-2.606790662E-1
1.763348810E0,4.004103839E-1,8.136485219E-1,-3.449759781E-1
1.773062977E0,9.135220647E-1,9.211576581E-1,-3.950654566E-1
1.782776415E0,1.390135646E0,1.042105436E0,-4.060607255E-1
1.792488967E0,1.836054206E0,1.213142633E0,-3.767400384E-1
1.802202404E0,2.225774765E0,1.397618532E0,-3.352024257E-1
1.811916623E0,2.479887247E0,1.447708011E0,-3.290939629E-1
1.821629956E0,2.587396383E0,1.229024649E0,-3.645231128E-1
1.831342560E0,2.558075666E0,8.050966859E-1,-3.926220834E-1
1.841055998E0,2.434684515E0,3.713951409E-1,-4.097257853E-1
1.850770217E0,2.323510170E0,4.504998401E-2,-3.938437700E-1
1.860483550E0,2.311293364E0,-1.235438585E-1,-3.254288733E-1
1.870196154E0,2.444458008E0,-3.558185324E-2,-1.812689304E-1
1.879909592E0,2.748659849E0,2.040229887E-1,2.886253223E-2
1.889623810E0,2.980781794E0,6.071822047E-1,1.962346882E-1
1.899337144E0,2.857390881E0,1.116628766E0,2.634278834E-1
1.909049748E0,2.248986959E0,1.530783176E0,2.658712566E-1
1.918763238E0,1.080894232E0,1.255901933E0,1.901262105E-1
1.928477404E0,-1.994416267E-1,-1.528645307E-1,-1.128540337E-1
1.938190738E0,-5.940489769E-1,-9.200887084E-1,-6.027535200E-1
1.947903394E0,-1.469087601E-1,-3.116848171E-1,-8.495358229E-1
1.957616831E0,6.032116413E-1,8.319739699E-1,-8.470924497E-1
1.967330998E0,1.138313890E0,1.282779217E0,-9.240592122E-1
1.977044435E0,9.000834227E-1,3.750602305E-1,-9.313893318E-1
1.986756988E0,4.089622498E-1,-1.452747464E0,-6.919372082E-1
1.996470425E0,3.356605768E-1,-1.824142575E0,-3.193204105E-1
2.006184644E0,8.634325862E-1,-6.843016148E-1,3.075616062E-1
2.015897977E0,1.457328796E0,-1.284306347E-1,9.648332596E-1
2.025610581E0,1.638139606E0,-8.015843034E-1,1.014922738E0
2.035324019E0,1.445111871E0,-1.737402320E0,6.068767309E-1
2.045038238E0,1.239867210E0,-2.340919495E0,1.962346882E-1
2.054751571E0,1.330272675E0,-2.450871944E0,4.428642802E-3
2.064464175E0,1.597823739E0,-1.918213129E0,-2.901524538E-3
2.074177665E0,1.916685939E0,-1.240172625E0,1.053711493E-2
2.083891831E0,2.264868975E0,-7.490514517E-1,-7.131642103E-2
2.093605269E0,2.597169876E0,-4.020902216E-1,-2.374668717E-1
2.103317821E0,2.967343330E0,-1.760767251E-1,-4.133908749E-1
2.113031258E0,3.302087545E0,-1.527118147E-4,-5.282301903E-1
2.122745477E0,3.452356100E0,1.490467340E-1,-5.819846988E-1
2.132458810E0,3.374167442E0,3.200839758E-1,-5.905365944E-1
2.142171415E0,3.175031424E0,5.399889946E-1,-5.086830258E-1
2.151884852E0,2.983225346E0,7.831062078E-1,-2.777827978E-1
2.161599071E0,2.817074776E0,8.893936276E-1,5.818320066E-2
2.171312404E0,2.580066204E0,8.722898960E-1,3.784198761E-1
2.181025008E0,2.161024809E0,8.771766424E-1,6.080984473E-1
2.190738498E0,1.573389769E0,9.052756429E-1,7.388197780E-1
2.200452665E0,8.854231238E-1,7.928797603E-1,7.925743461E-1
2.210166102E0,8.887827396E-2,5.778614879E-1,7.522584200E-1
2.219878654E0,-7.992936373E-1,4.202629030E-1,5.873296261E-1
2.229592092E0,-1.639819503E0,3.872771561E-1,3.271087110E-1
2.239306258E0,-2.309308052E0,4.092676640E-1,4.596625641E-2
2.249019696E0,-2.808981180E0,3.701734245E-1,-1.934858710E-1
2.258732248E0,-3.202366829E0,2.492256761E-1,-3.730749488E-1
2.268445685E0,-3.533446074E0,6.093201414E-2,-4.928010404E-1
2.278159904E0,-3.874298811E0,-3.092414141E-1,-5.062396526E-1
2.287873238E0,-4.282497406E0,-9.347490072E-1,-3.950654566E-1
2.297585842E0,-4.663666248E0,-1.678761005E0,-2.350234836E-1
2.307299331E0,-4.784614086E0,-2.265174389E0,-8.231166750E-2
2.317013498E0,-4.479190350E0,-2.448428631E0,3.130592033E-2
2.326726831E0,-3.973256111E0,-1.971967697E0,2.072299272E-1
2.336439435E0,-3.658058882E0,-7.954758406E-1,4.834856093E-1
2.346152925E0,-3.642176867E0,2.345653474E-1,7.229377031E-1
2.355867092E0,-3.656837225E0,5.619794726E-1,8.255600929E-1
2.365580529E0,-3.590865612E0,6.670452356E-1,7.461498976E-1
2.375293081E0,-3.658058882E0,7.598940134E-1,6.569662094E-1
2.385006519E0,-3.677605867E0,3.750602305E-1,5.787777901E-1
2.394720685E0,-3.334309816E0,-6.281036735E-1,5.189147592E-1
2.404434123E0,-2.969022989E0,-1.118003249E0,5.250232220E-1
2.414146675E0,-2.590297699E0,-8.052493930E-1,5.506787896E-1
2.423860113E0,-2.072299242E0,-1.369825006E-1,5.836645365E-1
2.433574331E0,-1.417471051E0,5.998520255E-1,5.958815217E-1
2.443287665E0,-7.809682488E-1,1.207034230E0,5.030327439E-1
2.453000269E0,-2.959555089E-1,1.467255116E0,3.417690396E-1
2.462713758E0,8.032641560E-2,1.426939249E0,1.962346882E-1
2.472427925E0,4.346178174E-1,1.264453769E0,4.596625641E-2
2.482141258E0,8.072346449E-1,1.099525094E0,-9.819369763E-2
2.491853915E0,1.176186442E0,9.688037634E-1,-2.081461996E-1
2.501567352E0,1.524522066E0,8.295305967E-1,-2.802261710E-1
2.511281519E0,1.818950415E0,6.303943992E-1,-3.461976945E-1
2.520994956E0,2.035190344E0,4.031592011E-1,-4.243861437E-1
2.530707508E0,2.172020197E0,2.235700935E-1,-4.989095032E-1
2.540420946E0,2.234326601E0,1.195733473E-1,-5.404471159E-1
2.550135113E0,2.229439735E0,8.780929446E-2,-5.355603099E-1
2.559848550E0,2.214779377E0,1.061347127E-1,-4.891359508E-1
2.569561102E0,2.277085781E0,1.343863904E-1,-4.292729199E-1
2.579274540E0,2.416358948E0,3.103103936E-1,-3.425326049E-1
2.588988758E0,2.485995531E0,6.927008033E-1,-2.057028115E-1
2.598702092E0,2.420024157E0,1.125180602E0,-2.244863659E-2
2.608414696E0,2.203784227E0,1.315765023E0,1.522536725E-1
2.618128185E0,1.635696292E0,1.286444306E0,2.487675399E-1
2.627842352E0,6.484143734E-1,1.161831498E0,1.693574041E-1
2.637555685E0,-3.142809272E-1,3.042019308E-1,-1.006370857E-1
2.647268290E0,-5.598415136E-1,-7.685985565E-1,-4.549284875E-1
2.656981779E0,-2.018850148E-1,-5.975613594E-1,-7.175928354E-1
2.666695946E0,1.194206402E-1,4.312581718E-1,-7.359182239E-1
2.676409279E0,1.426328421E-1,4.764608741E-1,-6.833853722E-1
2.686121935E0,8.521319181E-2,-5.499152541E-1,-6.455128193E-1
2.695835373E0,5.589252338E-2,-1.098456025E0,-4.622586668E-1
2.705549540E0,1.719534993E-1,-1.293927193E0,5.696150661E-2
2.715262977E0,7.461498976E-1,-3.006895781E-1,5.653391480E-1
2.724975529E0,1.168856263E0,3.970507085E-1,7.999044657E-1
2.734688967E0,1.406017661E0,-2.567085624E-1,5.238015056E-1
2.744403133E0,1.384027123E0,-1.361120462E0,-7.009471953E-2
2.754116571E0,1.033248186E0,-1.921878219E0,-6.186355352E-1
2.763829123E0,1.003927469E0,-1.923099875E0,-8.324320912E-1
2.773542560E0,1.381583810E0,-1.398992896E0,-6.699467301E-1
2.783256779E0,1.883700252E0,-7.551599145E-1,-3.107685447E-1
2.792970113E0,2.379708290E0,-3.202366829E-1,-1.079672500E-1
2.802682717E0,2.749881744E0,1.328592747E-2,-1.311794519E-1
2.812396154E0,2.984447002E0,2.064663768E-1,-1.983726472E-1
2.822110373E0,3.126163483E0,2.846548259E-1,-2.496838123E-1
2.831823706E0,3.254441500E0,3.274141252E-1,-2.961082160E-1
2.841536310E0,3.365615606E0,4.031592011E-1,-3.071034551E-1
2.851249748E0,3.341181755E0,5.668662786E-1,-2.435753495E-1
2.860963967E0,3.172587872E0,7.501204610E-1,-5.909947306E-2
2.870677300E0,2.903815269E0,7.452336550E-1,2.121167034E-1
2.880389904E0,2.605721712E0,3.310792148E-1,5.897729993E-1
2.890103394E0,2.092609882E0,6.215370819E-2,9.721634388E-1
2.899817560E0,1.377918720E0,2.550287358E-2,1.139535546E0
2.909530894E0,6.068767309E-1,-9.926267900E-3,1.123653531E0
2.919243498E0,-2.141019702E-1,-1.711899489E-1,9.990406632E-1
2.928956988E0,-1.123042703E0,-3.800997138E-1,8.157865405E-1
2.938671154E0,-2.042978764E0,-4.778352678E-1,6.410841942E-1
2.948384488E0,-2.812646151E0,-4.411844313E-1,4.529432356E-1
2.958097092E0,-3.344083309E0,-3.251234591E-1,2.023431510E-1
2.967810581E0,-3.650728703E0,-2.383831441E-1,-4.443913698E-2
2.977524748E0,-3.804662228E0,-2.835858464E-1,-2.081461996E-1
2.987238081E0,-3.923166513E0,-4.937172830E-1,-2.582356930E-1
2.996950685E0,-4.090538502E0,-8.284615874E-1,-1.714953631E-1
3.006664175E0,-4.260507107E0,-1.204743505E0,-2.244863659E-2
3.016378342E0,-4.222634315E0,-1.364785433E0,9.483403713E-2
3.026091779E0,-3.827874422E0,-1.058140159E0,1.937913001E-1
3.035804331E0,-3.318427801E0,-2.554868758E-1,3.271087110E-1
3.045517769E0,-3.077754021E0,7.525638342E-1,4.676035643E-1
3.055231935E0,-3.121734858E0,1.164274931E0,5.787777901E-1
3.064945373E0,-3.251234531E0,8.942803741E-1,6.533011198E-1
3.074657925E0,-3.284220219E0,5.864133835E-1,6.276455522E-1
3.084371363E0,-3.218248844E0,4.715740979E-1,5.152496696E-1
3.094085529E0,-3.154720783E0,3.237490356E-1,3.979669809E-1
3.103798967E0,-3.078975677E0,-5.635065958E-2,3.185568452E-1
3.113511519E0,-2.965358019E0,-4.851654470E-1,2.402156889E-1
3.123224956E0,-2.730792761E0,-6.415423155E-1,1.754658818E-1
3.132939175E0,-2.376501322E0,-3.837648034E-1,1.766875684E-1
3.142652508E0,-1.951351523E0,5.360184610E-2,2.157817930E-1
3.152365113E0,-1.512763262E0,4.581354558E-1,2.341072112E-1
3.162078550E0,-1.112047434E0,7.550072074E-1,1.791309565E-1
3.171792769E0,-7.455390692E-1,9.028322697E-1,9.361234307E-2
3.181506102E0,-3.717005551E-1,9.138274789E-1,2.275406010E-2
3.191218706E0,3.023693897E-2,8.991671801E-1,-2.000524849E-2
3.200932144E0,4.553866386E-1,9.064973593E-1,-7.009471953E-2
3.210646363E0,8.903098702E-1,9.162709117E-1,-1.336228400E-1
3.220359696E0,1.304617047E0,9.602518678E-1,-1.592784226E-1
3.230072300E0,1.684563994E0,9.993461370E-1,-1.458397806E-1
3.239785738E0,2.024195194E0,9.846857786E-1,-1.397313178E-1
3.249499956E0,2.256317139E0,9.064973593E-1,-1.556133330E-1
3.259213290E0,2.371156454E0,7.574505806E-1,-1.800472289E-1
3.268925894E0,2.384594917E0,5.583143830E-1,-1.653869003E-1
3.278639331E0,2.312515020E0,3.616215885E-1,-1.152974218E-1
3.288353550E0,2.231883287E0,1.539335102E-1,-3.466558084E-2
3.298066883E0,2.236769915E0,-4.413371533E-2,7.406523079E-2
3.307779488E0,2.263647318E0,2.061609551E-2,2.267770469E-1
3.317492925E0,2.229439735E0,3.506263196E-1,4.077405334E-1
3.327207144E0,2.178128719E0,6.487197876E-1,4.834856093E-1
3.336920477E0,2.070619583E0,8.319739699E-1,3.930802047E-1
3.346633081E0,1.826280594E0,1.089751482E0,2.426590770E-1
3.356346571E0,1.150530815E0,1.298661232E0,4.840964451E-2
3.366060738E0,2.586938143E-1,4.190412164E-1,-2.509055138E-1
3.375774071E0,-4.672981426E-2,-4.179722369E-1,-5.942016840E-1
3.385486675E0,7.666133344E-2,-1.443126649E-1,-8.373188972E-1
3.395200165E0,3.649812341E-1,4.825693369E-1,-8.825215697E-1
3.404914331E0,6.997255087E-1,-2.005106062E-1,-8.153283596E-1
3.414627665E0,9.135220647E-1,-1.660435557E0,-6.907155514E-1
3.424340269E0,9.428427219E-1,-2.775842667E0,-3.791834414E-1
3.434053758E0,8.170081973E-1,-2.278613091E0,3.252761811E-2
3.443767925E0,1.161526084E0,-1.307365894E0,4.773771465E-1
3.453481258E0,1.498866439E0,-1.049588323E0,7.828007340E-1
3.463193863E0,1.654021621E0,-1.374559045E0,6.520794630E-1
3.472907352E0,1.555064440E0,-1.896222591E0,3.173351586E-1
3.482621519E0,1.263079405E0,-2.405669212E0,5.650337320E-3
3.492334852E0,1.049130201E0,-2.642678022E0,-2.118112892E-1
3.502047508E0,1.126096964E0,-2.347027779E0,-3.046600819E-1
3.511760946E0,1.449998736E0,-1.473516345E0,-2.753393948E-1
3.521475113E0,1.822615504E0,-5.694623590E-1,-2.069245130E-1
3.531188446E0,2.183015347E0,-1.003316641E-1,-2.166980654E-1
3.540901102E0,2.542193651E0,1.012479365E-1,-3.425326049E-1
3.550614540E0,2.768207073E0,3.029802442E-1,-4.500417113E-1
3.560328706E0,2.881824732E0,4.642439187E-1,-4.695888162E-1
3.570042040E0,2.967343330E0,6.230642200E-1,-4.610369802E-1
3.579754696E0,3.003994226E0,7.904363275E-1,-4.182776511E-1
3.589468133E0,2.933135748E0,9.309312105E-1,-2.325800955E-1
3.599182300E0,2.710787535E0,9.993461370E-1,8.994726092E-2
3.608895633E0,2.367491245E0,8.893936276E-1,3.319954872E-1
3.618608238E0,1.792073131E0,8.429692388E-1,4.566083252E-1
3.628321727E0,1.029583097E0,7.366818190E-1,5.225798488E-1
3.638035894E0,1.866138428E-1,4.618005157E-1,6.129852533E-1
3.647749227E0,-6.746807694E-1,1.722589284E-1,6.862868667E-1
3.657461883E0,-1.495659471E0,-1.725643501E-2,6.667397618E-1
3.667175321E0,-2.207907438E0,-7.101099193E-2,5.250232220E-1
3.676889488E0,-2.721019030E0,-1.969982497E-2,2.782409191E-1
3.686602821E0,-3.052098274E0,1.134648770E-1,5.818320066E-2
3.696315425E0,-3.320871115E0,2.076880634E-1,-7.009471953E-2
3.706028915E0,-3.611634493E0,9.636115283E-2,-1.666085869E-1
3.715743081E0,-3.918279648E0,-2.151709497E-1,-2.777827978E-1
3.725456415E0,-4.212861061E0,-7.698202729E-1,-3.608580232E-1
3.735169019E0,-4.330143452E0,-1.517497301E0,-4.194993675E-1
3.744882508E0,-4.217747688E0,-2.002510071E0,-3.645231128E-1
3.754596675E0,-3.914614677E0,-1.896222591E0,-9.452861547E-2
3.764310008E0,-3.621407986E0,-1.043479800E0,3.100049794E-1
3.774022613E0,-3.523672342E0,3.283303976E-2,6.838434935E-1
3.783736102E0,-3.480913162E0,6.279509664E-1,9.220739603E-1
3.793450269E0,-3.355078459E0,8.344173431E-1,8.915315866E-1
3.803163602E0,-3.287885427E0,8.893936276E-1,6.435275674E-1
3.812876206E0,-3.257343054E0,6.865923405E-1,4.700469673E-1
3.822589696E0,-3.144947052E0,2.003578991E-1,4.773771465E-1
3.832303863E0,-3.008117437E0,-2.554868758E-1,5.799994469E-1
3.842017196E0,-2.920155287E0,-3.752129376E-1,6.960604787E-1
3.851729800E0,-2.778438807E0,-2.151709497E-1,7.937960029E-1
3.861443290E0,-2.462019920E0,1.000262350E-1,8.255600929E-1
3.871157456E0,-2.016101360E0,5.118899941E-1,7.498149872E-1
3.880870790E0,-1.543305635E0,8.722898960E-1,5.347967744E-1
3.890583394E0,-1.102273822E0,1.016449809E0,2.672456801E-1
3.900296883E0,-6.575770974E-1,1.004232883E0,1.420219894E-2
3.910011050E0,-1.896680743E-1,9.553651214E-1,-1.788255423E-1
3.919724383E0,2.892361879E-1,9.443698525E-1,-3.058817685E-1
3.929436988E0,7.595885396E-1,9.907942414E-1,-3.730749488E-1
3.939150425E0,1.192068458E0,1.056765795E0,-3.608580232E-1
3.948864644E0,1.591715217E0,1.061652541E0,-2.936648130E-1
3.958577977E0,1.927681208E0,9.700254202E-1,-2.154763639E-1
3.968290581E0,2.124374151E0,8.258655071E-1,-1.629435122E-1
3.978004019E0,2.190345526E0,6.022953987E-1,-1.458397806E-1
3.987718238E0,2.152472973E0,3.408527672E-1,-1.348445266E-1
3.997431571E0,2.106048584E0,1.453816444E-1,-1.214058921E-1
4.007144175E0,2.263647318E0,1.097997949E-1,-1.165191159E-1
4.016857613E0,2.668028116E0,3.298575282E-1,-1.372879148E-1
4.026571779E0,3.074852467E0,6.548282504E-1,-1.788255423E-1
4.036285217E0,3.215347290E0,9.284878373E-1,-2.118112892E-1
4.045997769E0,3.007659197E0,1.132510781E0,-1.531699449E-1
4.055711206E0,2.361382723E0,1.164274931E0,-2.855710872E-2
4.065425373E0,1.160304427E0,8.405258060E-1,3.985778242E-2
4.075138810E0,-7.635590620E-3,-4.291202128E-2,-1.433963925E-1
4.084851363E0,-4.034646153E-1,-1.065470338E0,-4.488200247E-1
4.094564800E0,-2.473931387E-2,-1.394106150E0,-5.819846988E-1
4.104278967E0,5.726693273E-1,-6.671979427E-1,-6.613948941E-1
4.113992300E0,1.179851532E0,-4.521796703E-1,-7.921161652E-1
4.123704904E0,1.124875188E0,-8.761076927E-1,-7.334748507E-1
4.133418394E0,9.123004079E-1,-1.738623977E0,-4.366030693E-1
4.143132560E0,1.078450799E0,-1.629893184E0,-6.398624927E-2
4.152845894E0,1.540404081E0,-5.267030597E-1,3.955236077E-1
4.162558498E0,2.038855553E0,1.084253844E-2,9.025267959E-1
4.172271935E0,2.302741528E0,-7.711946964E-2,1.110214949E0
4.181986154E0,2.225774765E0,-5.181511641E-1,9.196305275E-1
4.191699488E0,1.734653473E0,-1.216960430E0,5.653391480E-1
4.201412092E0,1.352263093E0,-1.953642249E0,2.438807636E-1
4.211125529E0,1.413347840E0,-2.041604280E0,-7.788302377E-3
4.220839748E0,1.798181653E0,-1.285375357E0,-2.093679011E-1
4.230553081E0,2.294189692E0,-2.921377122E-1,-3.645231128E-1
4.240265685E0,2.737664700E0,3.616215885E-1,-5.233433843E-1
4.249979123E0,3.022319555E0,5.998520255E-1,-7.041541934E-1
4.259693290E0,3.139602184E0,6.230642200E-1,-8.409839869E-1
4.269406623E0,3.137158871E0,6.340594292E-1,-8.483141065E-1
4.279119279E0,3.041866541E0,7.366818190E-1,-7.383615971E-1
4.288832717E0,2.891598225E0,8.319739699E-1,-6.051968932E-1
4.298546883E0,2.769428730E0,7.366818190E-1,-4.414898455E-1
4.308260217E0,2.638707399E0,4.446968138E-1,-1.934858710E-1
4.317972821E0,2.378486633E0,1.563768983E-1,1.009425074E-1
4.327686258E0,1.866596460E0,8.658760041E-2,4.040754735E-1
4.337400477E0,1.170077920E0,2.794626169E-2,6.410841942E-1
4.347113810E0,3.857500553E-1,-1.320957243E-1,8.108997345E-1
4.356826415E0,-4.584408700E-1,-2.970244884E-1,9.000834227E-1
4.366539852E0,-1.335617542E0,-3.043546379E-1,8.683193922E-1
4.376254019E0,-2.148044348E0,-1.809635013E-1,7.217160463E-1
4.385967456E0,-2.821197987E0,-1.603474095E-2,5.103628635E-1
4.395680008E0,-3.336753130E0,1.134648770E-1,2.855710983E-1
4.405393446E0,-3.689822912E0,1.417165697E-1,3.985778242E-2
4.415107613E0,-3.942713737E0,-6.261184346E-3,-2.191414535E-1
4.424820946E0,-4.146889210E0,-5.804576278E-1,-4.329380095E-1
4.434533550E0,-4.264172077E0,-1.466186166E0,-5.209000111E-1
4.444247040E0,-4.275167465E0,-2.186985970E0,-4.463766217E-1
4.453961206E0,-4.030675411E0,-2.332367659E0,-2.997733057E-1
4.463674540E0,-3.760681152E0,-1.606680989E0,-3.344388679E-2
4.473387144E0,-3.738690615E0,-1.430909634E-1,4.627167881E-1
4.483100581E0,-3.957373857E0,1.035996914E0,9.953756332E-1
4.492814748E0,-4.079543591E0,1.183822036E0,1.444959164E0
4.502528185E0,-3.946378708E0,1.111742020E0,1.601336122E0
4.512240738E0,-3.709369898E0,1.191152096E0,1.424190402E0
4.521954175E0,-3.472361326E0,9.138274789E-1,1.071120620E0
4.531668342E0,-3.226800680E0,2.480039895E-1,7.412631512E-1
4.541381675E0,-3.000787258E0,-2.542651594E-1,4.969242513E-1
4.551094279E0,-2.790655613E0,-2.029540092E-1,3.552076817E-1
4.560807717E0,-2.452246428E0,1.637070626E-1,3.112266660E-1
4.570521935E0,-1.962346792E0,5.534276366E-1,3.539859951E-1
4.580235269E0,-1.437018156E0,9.223793745E-1,4.419479966E-1
4.589947873E0,-9.984298348E-1,1.192373872E0,4.260659516E-1
4.599661310E0,-6.563553810E-1,1.226581335E0,3.173351586E-1
4.609375477E0,-3.582619131E-1,1.077534556E0,1.705790907E-1
4.619088915E0,-6.139015034E-2,8.820634484E-1,3.741439432E-2
4.628801415E0,2.440334857E-1,6.914790869E-1,-6.520794332E-2
4.638514904E0,5.641174316E-1,5.167768002E-1,-1.372879148E-1
4.648229071E0,8.805363178E-1,3.726168275E-1,-1.947075576E-1
4.657942404E0,1.188403368E0,2.724378705E-1,-2.423536479E-1
4.667655008E0,1.440225124E0,2.467822880E-1,-2.753393948E-1
4.677368446E0,1.589271903E0,3.139754832E-1,-2.826695740E-1
4.687082613E0,1.639361382E0,3.567348123E-1,-2.557922900E-1
4.696796050E0,1.623479247E0,3.090887070E-1,-2.081461996E-1
4.706508602E0,1.690672517E0,1.502684206E-1,-1.592784226E-1
4.716222040E0,2.003426313E0,9.880454093E-2,-1.482831687E-1
4.725936206E0,2.445679665E0,4.092676640E-1,-1.446180940E-1
4.735649540E0,2.777980566E0,1.004232883E0,-8.964183182E-2
4.745362144E0,2.872051001E0,1.709150672E0,-1.023169141E-2
4.755075581E0,2.666806459E0,2.234479189E0,7.162184268E-2
4.764789748E0,1.842162609E0,2.434837103E0,5.451811850E-2
4.774503185E0,4.590517282E-1,1.607749939E0,-1.971509457E-1
4.784215738E0,-2.861819267E-1,-1.064401343E-1,-6.418477297E-1
4.793929175E0,-7.116370648E-2,-9.897252917E-1,-1.057223916E0
4.803643342E0,4.834856093E-1,-2.713688910E-1,-1.231926203E0
4.813356675E0,1.045465112E0,2.528907657E-1,-1.415180445E0
4.823069279E0,1.165191174E0,-7.637118101E-1,-1.664406061E0
4.832782717E0,1.792836636E-1,-1.447860718E0,-1.387081385E0
4.842496883E0,4.978405312E-2,-1.824142575E0,-7.603521347E-1
4.852210321E0,8.768712282E-1,-1.403879762E0,-2.855710872E-2
4.861922873E0,1.635696292E0,-6.415423155E-1,7.889092565E-1
4.871636310E0,1.926459551E0,-5.535803437E-1,1.363105655E0
4.881350477E0,2.019308329E0,-1.258498073E0,1.314237833E0
4.891063810E0,1.966775417E0,-2.078255177E0,9.587247968E-1
4.900776415E0,1.788408041E0,-2.524173498E0,5.262449384E-1
4.910489852E0,1.700446010E0,-2.524173498E0,1.498102844E-1
4.920204019E0,1.800624967E0,-1.975632787E0,-1.690519750E-1
4.929917352E0,2.093831778E0,-1.092347622E0,-3.914003670E-1
4.939629956E0,2.467670202E0,-3.642176688E-1,-4.903576374E-1
4.949343394E0,2.806079626E0,8.780929446E-2,-5.416688323E-1
4.959057613E0,3.151819229E0,4.605788291E-1,-5.563291311E-1
4.968770946E0,3.485341787E0,8.747332692E-1,-4.940227270E-1
4.978483550E0,3.707690239E0,1.255901933E0,-3.657447994E-1
4.988196988E0,3.817642689E0,1.461146593E0,-2.435753495E-1
4.997911154E0,3.745562792E0,1.585759521E0,-1.837123185E-1
5.007624488E0,3.459686279E0,1.662726283E0,-1.690519750E-1
5.017337092E0,3.071187258E0,1.539335132E0,-4.810422286E-2
5.027050529E0,2.710787535E0,1.189930439E0,2.194468826E-1
5.036764748E0,2.367491245E0,7.550072074E-1,5.079194903E-1
5.046478081E0,1.916685939E0,3.384093940E-1,7.058340311E-1
5.056190685E0,1.203216434E0,8.047912270E-2,7.595885396E-1
5.065904123E0,1.682884246E-1,3.894151375E-2,7.278245091E-1
5.075618290E0,-1.011868477E0,1.049130186E-1,6.533011198E-1
5.085331623E0,-2.080851078E0,1.330119967E-1,4.810422063E-1
5.095044227E0,-2.907938480E0,5.726693198E-2,2.389939874E-1
5.104757665E0,-3.468696117E0,-9.177979827E-2,2.886253223E-2
5.114471831E0,-3.815657377E0,-2.188360244E-1,-9.697200358E-2
5.124185165E0,-4.035562515E0,-3.067980409E-1,-1.690519750E-1
5.133897769E0,-4.181096554E0,-3.666610718E-1,-2.179197669E-1
5.143611206E0,-4.272723675E0,-5.340332389E-1,-2.252499312E-1
5.153325425E0,-4.352134228E0,-9.775083065E-1,-1.702736765E-1
5.163038758E0,-4.353355885E0,-1.687312841E0,-1.128540337E-1
5.172751363E0,-4.280054092E0,-2.157665253E0,-7.864658535E-2
5.182464800E0,-4.247068405E0,-2.110019207E0,8.506047726E-2
5.192178967E0,-4.320369720E0,-1.697086453E0,4.187358022E-1
5.201892300E0,-4.470638275E0,-1.045923233E0,7.449282408E-1
5.211604904E0,-4.509732723E0,-4.326325655E-1,9.403993487E-1
5.221318342E0,-4.322813511E0,2.150182426E-1,8.780929446E-1
5.231032508E0,-4.106420517E0,8.466343284E-1,6.129852533E-1
5.240745842E0,-3.881628990E0,8.722898960E-1,3.613161445E-1
5.250458446E0,-3.605525970E0,1.905843467E-1,1.840177327E-1
5.260171883E0,-3.344083309E0,-4.973823726E-1,1.033858955E-1
5.269886102E0,-3.021555901E0,-7.001836896E-1,1.815743446E-1
5.279599435E0,-2.615953445E0,-3.006895781E-1,3.759764731E-1
5.289312040E0,-2.121167183E0,4.165978432E-1,5.824428797E-1
5.299025477E0,-1.579956412E0,1.122737288E0,6.826218367E-1
5.308739644E0,-1.088835239E0,1.502684236E0,6.154286265E-1
5.318452977E0,-6.697940230E-1,1.607749939E0,4.810422063E-1
5.328165581E0,-2.385358512E-1,1.596754789E0,3.173351586E-1
5.337879019E0,2.403683960E-1,1.508792758E0,1.339282542E-1
5.347593185E0,7.412631512E-1,1.334090471E0,-3.344388679E-2
5.357306519E0,1.226428628E0,1.152057886E0,-1.519482583E-1
5.367019123E0,1.643026471E0,1.018893242E0,-2.276933193E-1
5.376732560E0,1.957001925E0,8.979454637E-1,-2.741177082E-1
5.386446727E0,2.152472973E0,7.366818190E-1,-3.352024257E-1
5.396160060E0,2.225774765E0,5.387672782E-1,-4.072824121E-1
5.405872665E0,2.184237003E0,3.200839758E-1,-4.280512035E-1
5.415586102E0,2.101161957E0,1.453816444E-1,-4.060607255E-1
5.425300269E0,2.080393076E0,4.504998401E-2,-3.559712470E-1
5.435013706E0,2.247765303E0,1.293469071E-1,-2.838912606E-1
5.444726206E0,2.577622652E0,4.654656053E-1,-2.008160353E-1
5.454439644E0,2.901371717E0,6.914790869E-1,-4.566083103E-2
5.464153863E0,2.995442152E0,8.417475224E-1,1.241547018E-1
5.473867196E0,2.681466818E0,8.832851648E-1,2.475458533E-1
5.483579800E0,1.540404081E0,4.801259339E-1,3.356605768E-1
5.493293238E0,5.344913527E-2,-2.432699203E-1,1.559187621E-1
5.503007404E0,-4.840964675E-1,-8.394568563E-1,-2.655658424E-1
5.512720738E0,-1.408002973E-1,-1.293927193E0,-5.502206683E-1
5.522433342E0,3.332171738E-1,-1.582247138E0,-7.701256871E-1
5.532146779E0,6.997255087E-1,-2.389787197E0,-1.025459886E0
5.541860946E0,6.606312990E-1,-2.218750000E0,-1.008356094E0
5.551574279E0,7.889092565E-1,-5.719057322E-1,-5.502206683E-1
5.561286883E0,1.645469785E0,6.426113248E-1,1.351499557E-1
5.571000321E0,2.494547606E0,1.477028728E0,7.204943299E-1
5.580714488E0,2.854947329E0,1.505127668E0,1.001484036E0
5.590427821E0,2.795084238E0,5.485408306E-1,9.232956171E-1
5.600140425E0,2.567849159E0,-6.036698222E-1,6.374191046E-1
5.609853863E0,2.278307676E0,-1.340351582E0,2.609844804E-1
5.619568029E0,2.081614733E0,-1.625006437E0,-6.566607859E-3
5.629281363E0,2.088944912E0,-1.384332657E0,-1.580567211E-1
5.638993967E0,2.256317139E0,-7.844805717E-1,-3.303156495E-1
5.648707404E0,2.520203114E0,-2.493783981E-1,-5.306735635E-1
5.658421571E0,2.790197611E0,1.159082651E-1,-7.359182239E-1
5.668134904E0,3.001550674E0,4.740174711E-1,-8.580876589E-1
5.677847508E0,3.150597334E0,8.502993584E-1,-8.251019120E-1
5.687560946E0,3.216568947E0,1.178935170E0,-6.931589246E-1
5.697275113E0,3.170144558E0,1.314543247E0,-5.502206683E-1
5.706988446E0,2.992998838E0,1.225359559E0,-3.840702176E-1
5.716701050E0,2.736443043E0,8.319739699E-1,-1.067455560E-1
5.726414488E0,2.432240963E0,2.125748396E-1,2.072299272E-1
5.736128654E0,2.088944912E0,-4.790569544E-1,4.944808483E-1
5.745842092E0,1.625922680E0,-9.274188280E-1,7.510367036E-1
5.755554592E0,9.367342591E-1,-1.010494113E0,9.232956171E-1
5.765268029E0,4.978405312E-2,-9.457442760E-1,1.041800022E0
5.774982196E0,-8.872556686E-1,-8.492304087E-1,1.110214949E0
5.784695633E0,-1.768097401E0,-6.879667044E-1,1.100441337E0
5.794408133E0,-2.541429996E0,-4.753918648E-1,9.782719016E-1
5.804121571E0,-3.157164097E0,-2.444916219E-1,7.534800768E-1
5.813835790E0,-3.611634493E0,-3.069507517E-2,4.969242513E-1
5.823549123E0,-3.924388170E0,1.343863904E-1,2.365505993E-1
5.833261675E0,-4.061217785E0,2.223484069E-1,-5.665608495E-2
5.842975113E0,-4.038005829E0,1.159082651E-1,-3.486410677E-1
5.852689331E0,-3.957373857E0,-4.265241027E-1,-5.526640415E-1
5.862402665E0,-3.755794287E0,-1.213295341E0,-6.980457306E-1
5.872115217E0,-3.362408638E0,-1.755727768E0,-7.676823139E-1
5.881828654E0,-3.221913815E0,-1.640888453E0,-5.954233408E-1
5.891542873E0,-3.593308926E0,-8.993198872E-1,-1.531699449E-1
5.901256206E0,-4.084430218E0,4.016320780E-2,5.726693273E-1
5.910968810E0,-4.192091942E0,5.497625470E-1,1.262926698E0
5.920682144E0,-4.001355171E0,8.380824327E-1,1.525591016E0
5.930396415E0,-3.841312885E0,9.675820470E-1,1.422968745E0
5.940109748E0,-3.670275688E0,8.050966859E-1,1.151752472E0
5.949822352E0,-3.443040609E0,3.921639323E-1,8.463288546E-1
5.959535790E0,-3.209697008E0,7.925742865E-2,5.909947157E-1
5.969249956E0,-2.888391256E0,9.513945878E-2,4.199574888E-1
5.978963290E0,-2.400935173E0,3.982724249E-1,3.381039500E-1
5.988675894E0,-1.843842506E0,8.331956863E-1,3.466558158E-1
5.998389331E0,-1.340504289E0,1.178935170E0,3.038965166E-1
6.008103498E0,-9.458969831E-1,1.198482275E0,1.864611208E-1
6.017816831E0,-6.306998134E-1,9.407047629E-1,8.261708915E-2
6.027529383E0,-3.582619131E-1,6.511631608E-1,-2.977880463E-2
6.037242821E0,-6.994201243E-2,4.459185004E-1,-1.360662282E-1
6.046957040E0,2.696890533E-1,2.773246467E-1,-2.557922900E-1
6.056670373E0,6.410841942E-1,1.281252056E-1,-4.085040987E-1
6.066382925E0,1.022252917E0,2.672456764E-2,-5.746545792E-1
6.076096363E0,1.399909258E0,-2.947338112E-2,-6.870504618E-1
6.085810581E0,1.722436547E0,-4.169032723E-2,-7.200362086E-1
6.095523915E0,1.935011387E0,-5.039489828E-3,-6.894938350E-1
6.105236467E0,2.029081821E0,5.848862603E-2,-6.088619828E-1
6.114949904E0,2.059624195E0,1.134648770E-1,-5.221216679E-1
6.124664071E0,2.143921137E0,2.199050188E-1,-4.500417113E-1
6.134377404E0,2.305184841E0,4.874561131E-1,-3.633013964E-1
6.144090008E0,2.460340023E0,6.988092661E-1,-2.020377368E-1
6.153803446E0,2.517759800E0,7.513421178E-1,-6.765133142E-2
6.163517613E0,2.303963184E0,9.455915689E-1,1.314848661E-1
6.173230946E0,1.799403310E0,1.302326322E0,4.749337435E-1
6.182943550E0,9.819369912E-1,1.513679504E0,8.011261821E-1
6.192656988E0,-4.840964675E-1,2.260134816E-1,9.452861547E-1
6.202371154E0,-1.338060975E0,-2.182099104E0,7.156075835E-1
6.212084488E0,-9.006943107E-1,-2.503404856E0,2.341072112E-1
6.221797092E0,-1.908897758E-1,-8.797727823E-1,-7.986827940E-2
6.231510529E0,8.096780181E-1,3.286358118E-1,-3.755183518E-1
6.241224696E0,2.048629045E0,9.113841057E-1,-8.751913905E-1
6.250938029E0,2.173241854E0,1.028666735E0,-1.125638843E0
6.260650633E0,1.399909258E0,-5.022691488E-1,-8.629744649E-1
6.270364071E0,7.046123147E-1,-7.832589149E-1,-4.879142344E-1
6.280078238E0,6.655181050E-1,-4.753918648E-1,-2.977880463E-2
6.289791571E0,1.152974248E0,-4.692834020E-1,5.360184908E-1
6.299504175E0,1.607597232E0,-1.091125965E0,8.646543026E-1
6.309217613E0,1.585606813E0,-1.681204319E0,7.644753456E-1
6.318931779E0,1.137092113E0,-2.184542418E0,3.955236077E-1
6.328645113E0,9.000834227E-1,-2.626796007E0,-1.634016447E-2
6.338357717E0,1.074785709E0,-2.547385693E0,-2.997733057E-1
6.348071154E0,1.547734261E0,-1.760614514E0,-4.866925478E-1
6.357785321E0,2.157359838E0,-1.005607247E0,-5.807630420E-1
6.367498654E0,2.715674162E0,-6.109999418E-1,-6.455128193E-1
6.377211258E0,3.154262543E0,-3.691044450E-1,-7.762341499E-1
6.386924592E0,3.410818338E0,-1.308740228E-1,-9.216157794E-1
6.396638863E0,3.462129593E0,8.170082420E-2,-9.814788103E-1
6.406352196E0,3.300865889E0,2.431172132E-1,-9.387195110E-1
6.416064748E0,2.935579300E0,3.457395434E-1,-7.847860456E-1
6.425778185E0,2.518981457E0,3.371876776E-1,-5.050179958E-1
6.435492352E0,2.151251316E0,1.637070626E-1,-9.941539168E-2
6.445205685E0,1.812842011E0,-1.235438585E-1,3.112266660E-1
6.454918290E0,1.387692213E0,-3.263451457E-1,5.934380889E-1
6.464631727E0,8.133431077E-1,-3.067980409E-1,7.253811359E-1
6.474345894E0,1.145338640E-1,-1.858502775E-1,7.608102560E-1
6.484059227E0,-6.685723066E-1,-6.245913357E-2,7.595885396E-1
6.493771831E0,-1.455343604E0,2.916795574E-2,7.180509567E-1
6.503485269E0,-2.171256542E0,1.244601309E-1,6.068767309E-1
6.513199435E0,-2.751561403E0,2.443388999E-1,4.224008918E-1
6.522912769E0,-3.164494276E0,3.445178568E-1,1.498102844E-1
6.532625373E0,-3.419828415E0,3.200839758E-1,-1.372879148E-1
6.542338810E0,-3.632403135E0,-5.879404768E-2,-3.559712470E-1
6.552052977E0,-3.848643064E0,-9.359707236E-1,-4.243861437E-1
6.561766310E0,-4.122302532E0,-1.858350039E0,-3.278722763E-1
6.571478863E0,-4.332586765E0,-2.437433243E0,-1.165191159E-1
6.581192300E0,-4.291049480E0,-2.474084139E0,1.400367320E-1
6.590906519E0,-4.084430218E0,-1.750840902E0,4.712686539E-1
6.600619800E0,-3.910949469E0,-1.736333370E-1,8.585458398E-1
6.610332404E0,-3.980586052E0,1.111742020E0,1.251931429E0
6.620045842E0,-4.030675411E0,1.348750710E0,1.659977436E0
6.629760008E0,-3.953708887E0,1.275449038E0,1.849340081E0
6.639473342E0,-3.860860109E0,1.281557560E0,1.708845258E0
6.649185946E0,-3.752129316E0,9.358180165E-1,1.396091461E0
6.658899383E0,-3.532224178E0,2.663294077E-1,1.117545009E0
6.668613550E0,-3.241461039E0,-6.978929788E-2,9.147437811E-1
6.678326883E0,-2.925042152E0,1.453816444E-1,7.644753456E-1
6.688039488E0,-2.520661116E0,5.668662786E-1,6.667397618E-1
6.697752925E0,-2.030761719E0,9.504783154E-1,6.190937161E-1
6.707467092E0,-1.549414039E0,1.264453769E0,6.105418205E-1
6.717180425E0,-1.143811464E0,1.391510010E0,5.140279531E-1
6.726892977E0,-8.115105629E-1,1.254680276E0,3.319954872E-1
6.736606467E0,-4.633276463E-1,1.003011227E0,1.388150454E-1
6.746320633E0,-2.596100792E-2,8.258655071E-1,-4.077405483E-2
6.756033967E0,4.944808483E-1,7.537854910E-1,-1.690519750E-1
6.765746519E0,1.045465112E0,7.256865501E-1,-2.570139766E-1
6.775459956E0,1.570946455E0,7.330167294E-1,-3.046600819E-1
6.785174123E0,2.013199806E0,7.892146707E-1,-3.242071867E-1
6.794887456E0,2.306406498E0,8.307522535E-1,-3.180987239E-1
6.804600060E0,2.415137291E0,7.867712975E-1,-3.009949923E-1
6.814313498E0,2.416358948E0,6.633801460E-1,-2.728960216E-1
6.824027665E0,2.391925097E0,5.302154422E-1,-2.191414535E-1
6.833740998E0,2.368712902E0,4.459185004E-1,-1.678302884E-1
6.843453602E0,2.413915634E0,4.263713956E-1,-1.678302884E-1
6.853167040E0,2.627712250E0,5.375455618E-1,-2.044811249E-1
6.862881206E0,2.951461315E0,6.829272509E-1,-1.641651988E-1
6.872594540E0,3.110281467E0,8.405258060E-1,-2.611372061E-2
6.882307092E0,2.946574450E0,1.070204377E0,2.011214644E-1
6.892020529E0,2.479887247E0,1.214364409E0,4.004103839E-1
6.901734696E0,1.666238666E0,1.132510781E0,4.260659516E-1
6.911448029E0,6.520794630E-1,3.457395434E-1,1.571404636E-1
6.921160633E0,-1.496575773E-2,-6.843016148E-1,-3.400892019E-1
6.930874071E0,1.435491070E-2,-1.308587551E0,-7.737907767E-1
6.940588238E0,5.030327439E-1,-1.087460876E0,-1.031568289E0
6.950301571E0,1.091889501E0,-6.427640319E-1,-1.238034725E0
6.960014175E0,1.126096964E0,-1.078908920E0,-1.170841455E0
6.969727613E0,6.361974478E-1,-2.151556730E0,-8.128849864E-1
6.979441779E0,3.576510847E-1,-2.011061907E0,-3.742966652E-1
6.989155113E0,7.107207775E-1,-1.104564548E0,1.754658818E-1
6.998867665E0,1.410904408E0,-5.144860744E-1,7.437065244E-1
7.008581102E0,1.954558492E0,-5.291464329E-1,8.768712282E-1
7.018295321E0,2.000983000E0,-8.260182142E-1,6.471926570E-1
7.028008602E0,1.669903636E0,-1.311030984E0,3.283303976E-1
7.037721206E0,1.377918720E0,-1.727628708E0,2.031067200E-2
7.047434644E0,1.272853017E0,-1.697086453E0,-1.531699449E-1
7.057148810E0,1.348598003E0,-1.280488610E0,-1.934858710E-1
7.066862144E0,1.621035933E0,-7.844805717E-1,-2.301367074E-1
7.076574748E0,2.027860165E0,-2.786990702E-1,-3.730749488E-1
7.086288185E0,2.490882397E0,1.966928244E-1,-5.819846988E-1
7.096002352E0,2.939244270E0,5.289937258E-1,-7.029324770E-1
7.105715685E0,3.205573797E0,7.317950130E-1,-7.371399403E-1
7.115428238E0,3.204351902E0,8.698465228E-1,-7.786775231E-1
7.125141675E0,3.028428078E0,8.661814332E-1,-8.116632700E-1
7.134855842E0,2.817074776E0,7.525638342E-1,-7.518002391E-1
7.144569175E0,2.613051891E0,6.487197876E-1,-4.940227270E-1
7.154281779E0,2.390703440E0,5.228852630E-1,-1.091889441E-1
7.163995217E0,2.030303478E0,3.884988427E-1,2.170034945E-1
7.173709383E0,1.424343109E0,2.675510943E-1,4.590517282E-1
7.183422717E0,5.726693273E-1,7.437065244E-2,6.642963886E-1
7.193135321E0,-4.120164812E-1,-1.284306347E-1,8.609892130E-1
7.202848654E0,-1.391815424E0,-1.907370538E-1,9.856020808E-1
7.212562925E0,-2.239671469E0,-9.788827598E-2,9.587247968E-1
7.222276206E0,-2.871287584E0,6.093201414E-2,7.718055248E-1
7.231988810E0,-3.298880577E0,1.649287641E-1,5.115845799E-1
7.241702248E0,-3.590865612E0,1.527118087E-1,2.414373755E-1
7.251416415E0,-3.786336660E0,1.068982761E-3,-2.244863659E-2
7.261129748E0,-3.915836334E0,-3.165715933E-1,-2.166980654E-1
7.270842352E0,-4.084430218E0,-8.113578558E-1,-2.887780368E-1
7.280555790E0,-4.248290062E0,-1.458855987E0,-2.594573796E-1
7.290269956E0,-4.176209927E0,-1.916991353E0,-2.069245130E-1
7.299983290E0,-3.879185438E0,-1.803373814E0,-7.742489129E-2
7.309695842E0,-3.721586943E0,-1.012937427E0,2.451024652E-1
7.319409279E0,-3.909727812E0,-1.114796288E-2,7.119424939E-1
7.329123446E0,-4.194535255E0,4.544703662E-1,1.218945742E0
7.338836779E0,-4.193313599E0,5.961869359E-1,1.498713732E0
7.348549383E0,-3.968369246E0,9.431481957E-1,1.424190402E0
7.358262821E0,-3.810770512E0,1.115407109E0,1.194511771E0
7.367976988E0,-3.678827524E0,8.038749695E-1,9.856020808E-1
7.377690321E0,-3.491908312E0,3.457395434E-1,7.876875401E-1
7.387402925E0,-3.219470501E0,8.414421231E-2,6.484143734E-1
7.397116363E0,-2.870065928E0,1.979145110E-1,5.995466113E-1
7.406830529E0,-2.415595531E0,5.216635466E-1,6.471926570E-1
7.416543810E0,-1.881714940E0,9.162709117E-1,7.644753456E-1
7.426256415E0,-1.377155185E0,1.225359559E0,8.096780181E-1
7.435969852E0,-9.324583411E-1,1.254680276E0,6.911736727E-1
7.445684019E0,-4.999784827E-1,1.048213840E0,5.225798488E-1
7.455397352E0,-1.252236869E-2,8.160919547E-1,3.442124426E-1
7.465109956E0,5.555655956E-1,7.244648337E-1,1.583621502E-1
7.474823394E0,1.138313890E0,7.904363275E-1,-2.244863659E-2
7.484537560E0,1.665016890E0,9.419264793E-1,-1.983726472E-1
7.494250894E0,2.109713793E0,1.056765795E0,-3.681881726E-1
7.503963446E0,2.413915634E0,1.020114899E0,-5.160132051E-1
7.513676883E0,2.514094591E0,8.515210748E-1,-6.259657145E-1
7.523391050E0,2.473778725E0,6.108472347E-1,-6.723901033E-1
7.533104383E0,2.391925097E0,3.872771561E-1,-6.491779089E-1
7.542816988E0,2.354052544E0,2.382304370E-1,-5.844281316E-1
7.552530425E0,2.440793037E0,2.211267054E-1,-5.257867575E-1
7.562244592E0,2.709565639E0,4.532486796E-1,-4.537068009E-1
7.571957873E0,3.090734482E0,6.303943992E-1,-3.144336343E-1
7.581670477E0,3.305752754E0,8.515210748E-1,-1.214058921E-1
7.591383915E0,3.123720169E0,1.274227381E0,4.596625641E-2
7.601098081E0,2.564184189E0,1.580872655E0,1.608055383E-1
7.610811415E0,1.402352571E0,1.384179831E0,2.255553454E-1
7.620524019E0,-3.817795217E-2,1.869192570E-1,6.184828654E-2
7.630237456E0,-2.690782249E-1,-1.005607247E0,-3.071034551E-1
7.639951623E0,2.782409191E-1,-8.809944391E-1,-5.954233408E-1
7.649664956E0,7.766922712E-1,2.260134816E-1,-8.067765236E-1
7.659377508E0,1.342489600E0,3.029802442E-1,-1.104869962E0
7.669090946E0,1.261857748E0,-8.309049606E-1,-1.311336398E0
7.678805113E0,4.150707126E-1,-1.720298648E0,-1.126860499E0
7.688518446E0,4.651601911E-1,-1.930430055E0,-9.118422270E-1
7.698231050E0,9.684983492E-1,-6.281036735E-1,-4.793623984E-1
7.707944488E0,1.737096906E0,4.117110670E-1,2.402156889E-1
7.717658654E0,2.393146753E0,-1.516428292E-1,7.889092565E-1
7.727371988E0,2.352830887E0,-1.504058719E0,7.986828089E-1
7.737084540E0,1.701667786E0,-2.345806122E0,5.054761171E-1
7.746797977E0,1.222763538E0,-2.785616159E0,1.498102844E-1
7.756512144E0,1.234980464E0,-2.700097561E0,-9.208522737E-2
7.766225477E0,1.574611545E0,-2.002510071E0,-1.006370857E-1
7.775938081E0,2.128039122E0,-9.860602021E-1,-5.054761097E-2
7.785651519E0,2.692461967E0,-8.689302206E-2,-6.642963737E-2
7.795365685E0,3.123720169E0,5.143333673E-1,-1.299577504E-1
7.805079019E0,3.497558594E0,9.211576581E-1,-2.631224692E-1
7.814791571E0,3.796873808E0,1.126402378E0,-4.317162931E-1
7.824505008E0,3.875062227E0,1.120293856E0,-5.978667736E-1
7.834219175E0,3.640496969E0,1.054322362E0,-7.676823139E-1
7.843932508E0,3.179918051E0,9.394831061E-1,-8.837432861E-1
7.853645113E0,2.686353445E0,6.817055345E-1,-7.970029712E-1
7.863358550E0,2.261203766E0,3.506263196E-1,-3.156553209E-1
7.873072717E0,1.842162609E0,-7.467607409E-2,3.820849657E-1
7.882786050E0,1.373031974E0,-5.218162537E-1,8.756495714E-1
7.892498602E0,6.154286265E-1,-5.267030597E-1,1.102884769E0
7.902212040E0,-4.046863019E-1,-5.268557742E-2,1.140757203E0
7.911926206E0,-1.389372110E0,5.155550838E-1,1.062568784E0
7.921639540E0,-2.159039736E0,9.028322697E-1,8.634325862E-1
7.931352144E0,-2.684368372E0,1.125180602E0,5.421269536E-1
7.941065581E0,-3.050876617E0,1.133732557E0,1.864611208E-1
7.950779748E0,-3.348970175E0,8.991671801E-1,-1.116323397E-1
7.960493029E0,-3.645841837E0,5.021164417E-1,-3.046600819E-1
7.970205633E0,-3.978142738E0,4.734066315E-3,-3.523061574E-1
7.979919071E0,-4.286162376E0,-6.952968836E-1,-3.217637837E-1
7.989633238E0,-4.410775185E0,-1.468629479E0,-2.973299026E-1
7.999346571E0,-4.349690437E0,-1.893779159E0,-1.849340051E-1
8.009059175E0,-4.205530643E0,-1.722741961E0,1.033858955E-1
8.018772508E0,-4.099090576E0,-1.202300072E0,5.360184908E-1
8.028486779E0,-4.168879986E0,-6.623111367E-1,1.024696231E0
8.038200060E0,-4.259285450E0,-1.699682474E-1,1.332563281E0
8.047912665E0,-4.271502018E0,4.043808877E-1,1.261705041E0
8.057626102E0,-4.243402958E0,8.197570443E-1,1.050351858E0
8.067340269E0,-4.135741234E0,7.635591030E-1,9.184088707E-1
8.077053602E0,-3.968369246E0,2.137965411E-1,8.157865405E-1
8.086766154E0,-3.736247301E0,-2.860292196E-1,6.594096422E-1
8.096479592E0,-3.391729355E0,-4.008685052E-1,4.883723855E-1
8.106193758E0,-2.936037302E0,-9.177979827E-2,4.272876680E-1
8.115907092E0,-2.367949486E0,5.143333673E-1,5.176930428E-1
8.125619696E0,-1.753437042E0,1.101968408E0,5.983248949E-1
8.135333133E0,-1.223221660E0,1.452594757E0,5.738909841E-1
8.145047300E0,-7.821899056E-1,1.562547326E0,5.030327439E-1
8.154760633E0,-3.631486893E-1,1.491688967E0,4.150707126E-1
8.164473185E0,8.887827396E-2,1.342642307E0,3.112266660E-1
8.174186623E0,5.567872524E-1,1.216807723E0,2.035648525E-1
8.183900790E0,9.880454540E-1,1.143506050E0,9.361234307E-2
8.193614123E0,1.354706526E0,1.076312900E0,-1.267508045E-2
8.203326727E0,1.665016890E0,9.859074950E-1,-1.152974218E-1
8.213040060E0,1.915464282E0,8.979454637E-1,-2.130329758E-1
8.222754331E0,2.087723255E0,8.185353279E-1,-3.034383655E-1
8.232467613E0,2.165911674E0,7.256865501E-1,-3.400892019E-1
8.242180217E0,2.170798540E0,5.839699507E-1,-3.083251417E-1
8.251893654E0,2.191567183E0,3.775036037E-1,-2.533488870E-1
8.261607821E0,2.346722364E0,2.467822880E-1,-2.154763639E-1
8.271321154E0,2.613051891E0,3.591781855E-1,-1.983726472E-1
8.281033706E0,2.824404955E0,6.230642200E-1,-2.105895877E-1
8.290747144E0,2.880603075E0,8.747332692E-1,-2.020377368E-1
8.300461310E0,2.600834846E0,1.384179831E0,-7.620319724E-2
8.310174644E0,1.507418275E0,1.859419107E0,4.107947648E-2
8.319887248E0,1.133121699E-1,1.194817185E0,-1.079672500E-1
8.329600685E0,-1.420219839E-1,3.771981969E-2,-4.940227270E-1
8.339314852E0,4.346178174E-1,-4.705050886E-1,-8.312104344E-1
8.349028185E0,9.465078115E-1,7.559234649E-2,-1.139077425E0
8.358740738E0,1.285069942E0,-3.544441164E-1,-1.533684731E0
8.368454175E0,9.929322004E-1,-1.607902646E0,-1.770693541E0
8.378168342E0,2.293731421E-1,-1.667765737E0,-1.245364904E0
8.387881675E0,3.124483824E-1,-1.881562233E0,-5.257867575E-1
8.397594279E0,1.071120620E0,-8.492304087E-1,2.365505993E-1
8.407307717E0,1.840940952E0,1.244601309E-1,1.046686769E0
8.417021883E0,2.411472321E0,-5.193728805E-1,1.442515850E0
8.426735165E0,2.679023266E0,-1.785048366E0,1.205507040E0
8.436447769E0,2.455453157E0,-2.427659750E0,6.972821355E-1
8.446161206E0,2.103605270E0,-2.758738995E0,2.279987335E-1
8.455875373E0,1.954558492E0,-2.719644785E0,-1.287360638E-1
8.465588706E0,2.024195194E0,-2.174768925E0,-3.694098890E-1
8.475301258E0,2.242878437E0,-1.353790283E0,-5.465555787E-1
8.485014696E0,2.595948219E0,-5.853443742E-1,-6.894938350E-1
8.494728863E0,2.960013151E0,7.314895838E-2,-8.141067028E-1
8.504442196E0,3.216568947E0,6.878139973E-1,-8.458707333E-1
8.514154800E0,3.344846964E0,1.163053155E0,-7.640172243E-1
8.523868238E0,3.336295128E0,1.345085621E0,-6.296308041E-1
8.533582404E0,3.188469887E0,1.324316859E0,-4.769189954E-1
8.543295685E0,2.928249121E0,1.262010455E0,-3.339807391E-1
8.553008290E0,2.670471430E0,1.154501319E0,-1.763821393E-1
8.562721727E0,2.427354336E0,9.712471366E-1,6.429167092E-2
8.572435894E0,2.115822077E0,7.452336550E-1,3.417690396E-1
8.582149227E0,1.597823739E0,4.520269632E-1,5.470137000E-1
8.591861779E0,7.327113152E-1,1.832541823E-1,6.801784039E-1
8.601575217E0,-4.413371384E-1,9.636115283E-2,7.608102560E-1
8.611289383E0,-1.620272398E0,2.638860047E-1,7.473716140E-1
8.621002717E0,-2.512109280E0,5.106683373E-1,6.178719997E-1
8.630715321E0,-3.086305857E0,6.474980712E-1,4.126273096E-1
8.640428758E0,-3.494351864E0,5.399889946E-1,2.170034945E-1
8.650142925E0,-3.804662228E0,2.186833173E-1,6.184828654E-2
8.659856206E0,-4.034340858E0,-2.200577259E-1,-5.176930502E-2
8.669568810E0,-4.211638927E0,-8.223531246E-1,-1.165191159E-1
8.679282248E0,-4.354577541E0,-1.676317573E0,-1.568350345E-1
8.688996415E0,-4.410775185E0,-2.454536915E0,-1.617218107E-1
8.698709748E0,-4.210417271E0,-2.785616159E0,-1.653869003E-1
8.708422300E0,-4.053887844E0,-2.366575003E0,-9.330692142E-2
8.718135738E0,-4.217747688E0,-1.317139387E0,2.475458533E-1
8.727849904E0,-4.441317558E0,-4.534013867E-1,7.828007340E-1
8.737563238E0,-4.454756260E0,-1.174353883E-1,1.293469071E0
8.747275842E0,-4.247068405E0,2.687727809E-1,1.557355046E0
8.756989279E0,-4.011128426E0,8.747332692E-1,1.563463569E0
8.766703394E0,-3.782671690E0,1.106855273E0,1.438850760E0
8.776416727E0,-3.496795177E0,7.721109390E-1,1.248266339E0
8.786129331E0,-3.226800680E0,4.569137394E-1,1.023474574E0
8.795842769E0,-2.956806183E0,4.691306949E-1,8.292251825E-1
8.805556935E0,-2.568307400E0,7.085828185E-1,7.058340311E-1
8.815270269E0,-2.047865391E0,1.071426034E0,6.814001203E-1
8.824982821E0,-1.506654739E0,1.467255116E0,6.752916574E-1
8.834696258E0,-1.008203387E0,1.672499776E0,5.494571328E-1
8.844410425E0,-5.488462448E-1,1.612636805E0,3.637595475E-1
8.854123758E0,-1.139230132E-1,1.435491085E0,1.730224788E-1
8.863836363E0,3.014531136E-1,1.255901933E0,1.985253533E-3
8.873549800E0,6.985038519E-1,1.099525094E0,-1.324011385E-1
8.883263967E0,1.080894232E0,9.541434050E-1,-2.289150059E-1
8.892977248E0,1.441446781E0,8.148702383E-1,-3.058817685E-1
8.902689852E0,1.759087443E0,6.682668924E-1,-3.669664860E-1
8.912403290E0,1.980214119E0,5.192201734E-1,-4.097257853E-1
8.922117456E0,2.075506210E0,3.494046330E-1,-4.170559645E-1
8.931830790E0,2.076727867E0,1.134648770E-1,-3.596363366E-1
8.941543342E0,2.087723255E0,-1.333174109E-1,-2.728960216E-1
8.951256779E0,2.189123869E0,-2.347180545E-1,-2.032594234E-1
8.960970946E0,2.437127829E0,1.328592747E-2,-2.338017821E-1
8.970684279E0,2.804857969E0,4.947862923E-1,-3.413109183E-1
8.980396883E0,3.144489050E0,8.344173431E-1,-3.718532622E-1
8.990110217E0,3.187248230E0,1.132510781E0,-2.252499312E-1
8.999824435E0,2.738886356E0,1.226581335E0,3.130592033E-2
9.009537769E0,1.514748454E0,6.316160560E-1,2.206685692E-1
9.019250373E0,2.538070381E-1,-3.666610718E-1,1.046075895E-1
9.028963810E0,5.100574717E-2,-9.933903813E-1,-2.496838123E-1
9.038677977E0,5.360184908E-1,-1.030041218E0,-5.331169367E-1
9.048391310E0,1.050351858E0,-3.813214004E-1,-7.579087615E-1
9.058103863E0,1.529408813E0,-1.211004704E-1,-1.066997409E0
9.067817300E0,1.688229084E0,-9.970554113E-1,-1.402963400E0
9.077531467E0,6.459710002E-1,-1.364785433E0,-1.137855768E0
9.087244800E0,4.480564594E-1,-1.853463292E0,-9.057337642E-1
9.096957404E0,9.245173335E-1,-1.401436329E0,-5.404471159E-1
9.106670842E0,1.602710485E0,-2.457133085E-1,9.972081333E-2
9.116384956E0,2.185458899E0,-1.882936656E-1,5.861079693E-1
9.126098290E0,2.683910131E0,-1.144880533E0,7.473716140E-1
9.135810894E0,2.726669550E0,-1.791156888E0,6.972821355E-1
9.145524331E0,2.288081169E0,-2.219971657E0,4.602734149E-1
9.155238498E0,1.833610773E0,-2.432546616E0,1.791309565E-1
9.164951831E0,1.707776189E0,-2.311598778E0,-4.123218823E-3
9.174664435E0,1.982657433E0,-1.704416513E0,-1.666085869E-1
9.184377769E0,2.445679665E0,-7.429429889E-1,-3.718532622E-1
9.194091988E0,2.903815269E0,4.993676394E-2,-5.832064152E-1
9.203805321E0,3.253219843E0,7.061394453E-1,-7.090409398E-1
9.213517925E0,3.480454922E0,1.243685007E0,-7.408050299E-1
9.223231363E0,3.521992683E0,1.511236072E0,-6.992673874E-1
9.232945529E0,3.306974411E0,1.467255116E0,-6.467345357E-1
9.242658863E0,2.918475389E0,1.149614573E0,-6.137487888E-1
9.252371415E0,2.531198263E0,5.509842038E-1,-5.563291311E-1
9.262084852E0,2.186680555E0,-1.589729935E-1,-3.425326049E-1
9.271799019E0,1.843384266E0,-6.268820167E-1,8.261708915E-2
9.281512352E0,1.469545841E0,-8.638907075E-1,5.225798488E-1
9.291224956E0,9.990406632E-1,-8.394568563E-1,7.962393761E-1
9.300938394E0,1.963873953E-1,-4.448495209E-1,9.819369912E-1
9.310652560E0,-8.444963098E-1,-3.313846514E-2,1.128540277E0
9.320365894E0,-1.880493283E0,1.930277348E-1,1.188403368E0
9.330078498E0,-2.766221762E0,2.589992285E-1,1.080894232E0
9.339791831E0,-3.391729355E0,2.602209449E-1,7.779139876E-1
9.349506050E0,-3.711813450E0,1.171299592E-1,3.943018913E-1
9.359219383E0,-3.831539392E0,-1.589729935E-1,5.940489471E-2
9.368931988E0,-3.898732662E0,-4.094203711E-1,-1.458397806E-1
9.378645425E0,-4.033119202E0,-6.219952106E-1,-1.861557066E-1
9.388359592E0,-4.206752300E0,-1.050809979E0,-1.336228400E-1
9.398072925E0,-4.205530643E0,-1.684869409E0,-7.620319724E-2
9.407785529E0,-4.017237186E0,-1.869345307E0,6.872031838E-3
9.417498967E0,-3.826652765E0,-1.304922462E0,2.745758295E-1
9.427213133E0,-3.854751587E0,-3.324536085E-1,7.693621516E-1
9.436926467E0,-4.044114113E0,3.469612300E-1,1.347223639E0
9.446639071E0,-4.121080875E0,6.328377724E-1,1.619661450E0
9.456352404E0,-4.095425606E0,1.070204377E0,1.507265568E0
9.466066675E0,-4.030675411E0,1.424495816E0,1.287360549E0
9.475779956E0,-3.888959169E0,1.199704051E0,1.096776247E0
9.485492560E0,-3.720365286E0,6.487197876E-1,9.196305275E-1
9.495205998E0,-3.531002522E0,3.628432751E-1,7.302678823E-1
9.504920165E0,-3.221913815E0,5.363239050E-1,5.763344169E-1
9.514633498E0,-2.760113239E0,9.321529269E-1,5.457920432E-1
9.524346102E0,-2.242114782E0,1.303548098E0,6.142069101E-1
9.534059540E0,-1.771762490E0,1.434269309E0,5.665608048E-1
9.543773706E0,-1.377155185E0,1.241241574E0,4.065188468E-1
9.553487040E0,-9.947647452E-1,9.284878373E-1,2.377723008E-1
9.563199644E0,-5.500679612E-1,7.366818190E-1,1.070509851E-1
9.572913081E0,-4.184303805E-2,7.281299233E-1,5.650337320E-3
9.582627248E0,4.944808483E-1,8.478559852E-1,-1.043021679E-1
9.592340581E0,1.028361320E0,1.015228152E0,-2.276933193E-1
9.602053185E0,1.513526797E0,1.176491857E0,-3.071034551E-1
9.611766623E0,1.926459551E0,1.242463350E0,-3.413109183E-1
9.621480790E0,2.229439735E0,1.152057886E0,-3.315373361E-1
9.631194123E0,2.398033619E0,9.236010313E-1,-2.716743052E-1
9.640906727E0,2.454231501E0,6.193991303E-1,-1.702736765E-1
9.650620165E0,2.428575993E0,2.724378705E-1,-4.810422286E-2
9.660334331E0,2.332062006E0,-9.910997003E-2,6.673506647E-2
9.670047665E0,2.266090631E0,-3.617742956E-1,1.400367320E-1
9.679760269E0,2.389481783E0,-2.762556672E-1,1.620272398E-1
9.689473602E0,2.573957682E0,9.269607067E-2,1.437018216E-1
9.699187873E0,2.637485743E0,4.117110670E-1,1.094943732E-1
9.708901206E0,2.506764412E0,7.012526393E-1,8.994726092E-2
9.718613810E0,2.051072359E0,9.199360013E-1,5.940489471E-2
9.728327248E0,1.052795291E0,8.258655071E-1,-9.086353332E-2
9.738041415E0,1.377460510E-1,4.764608741E-1,-4.744756222E-1
9.747754748E0,3.756710514E-2,-1.137702987E-1,-8.141067028E-1
9.757467352E0,4.211791754E-1,1.575985998E-1,-9.985825419E-1
9.767180790E0,7.082774043E-1,1.255901933E0,-1.246586561E0
9.776894956E0,1.090667725E0,8.112051487E-1,-1.374864459E0
9.786608290E0,1.291178346E0,-1.838802934E0,-1.186723471E0
9.796320894E0,1.068677306E0,-3.927900553E0,-6.467345357E-1
9.806034331E0,8.548807502E-1,-2.676885366E0,-6.566607859E-3
9.815748498E0,1.285069942E0,-1.061805248E0,6.129852533E-1
9.825461831E0,1.832389116E0,-7.478297353E-1,1.172521353E0
9.835174435E0,2.310071707E0,-1.287818789E0,1.255596519E0
9.844887873E0,2.488439083E0,-2.029387236E0,8.512156606E-1
9.854602040E0,2.098718405E0,-2.402004242E0,2.243336588E-1
9.864315373E0,1.517191887E0,-2.306711912E0,-2.313583940E-1
9.874027977E0,1.377918720E0,-1.886449099E0,-4.341596961E-1
9.883741415E0,1.700446010E0,-9.481876493E-1,-5.954233408E-1
9.893455581E0,2.261203766E0,6.826218218E-2,-7.970029712E-1
9.903168915E0,2.832956791E0,6.096255779E-1,-9.900307059E-1
9.912881519E0,3.182361603E0,6.511631608E-1,-1.097539783E0
9.922594956E0,3.171366215E0,4.984513521E-1,-1.104869962E0
9.932309123E0,2.895263195E0,3.909422457E-1,-1.070662498E0
9.942022456E0,2.550745487E0,2.883199155E-1,-9.753703475E-1
9.951735060E0,2.231883287E0,1.893626451E-1,-7.481352091E-1
9.961448498E0,1.961888671E0,6.215370819E-2,-3.889569938E-1
9.971162717E0,1.730988383E0,-1.357607991E-1,3.252761811E-2
9.980876050E0,1.456107140E0,-3.275668323E-1,4.052971601E-1
9.990588654E0,1.023474574E0,-3.862081766E-1,6.752916574E-1
1.000030209E1,3.662029207E-1,-3.263451457E-1,8.915315866E-1
1.001001626E1,-4.547757804E-1,-1.663031727E-1,1.068677306E0
1.001972959E1,-1.296523333E0,5.955760833E-3,1.154195905E0
1.002944220E1,-2.042978764E0,1.466033459E-1,1.126096964E0
1.003915563E1,-2.625726938E0,2.260134816E-1,9.868237376E-1
1.004886980E1,-3.021555901E0,1.220167428E-1,8.084563613E-1
1.005858313E1,-3.291550398E0,-1.369825006E-1,6.447492838E-1
1.006829574E1,-3.516342163E0,-4.191939235E-1,4.993676245E-1
1.007800918E1,-3.747242451E0,-8.076927662E-1,4.077405334E-1
1.008772339E1,-3.890180826E0,-1.490620017E0,3.955236077E-1
1.009743673E1,-3.851086617E0,-2.141783237E0,4.395045936E-1
1.010714933E1,-3.611634493E0,-2.283499718E0,5.079194903E-1
1.011686277E1,-3.521229029E0,-1.502836943E0,5.885513425E-1
1.012657694E1,-3.874298811E0,4.993676394E-2,7.388197780E-1
1.013629027E1,-4.335030079E0,8.674030900E-1,1.034469843E0
1.014600287E1,-4.451091290E0,3.970507085E-1,1.333784938E0
1.015571631E1,-4.170101643E0,1.808107942E-1,1.341115117E0
1.016543048E1,-3.794888496E0,6.780404449E-1,1.206728816E0
1.017514392E1,-3.515120506E0,1.018893242E0,1.128540277E0
1.018485647E1,-3.293993950E0,8.270871639E-1,1.089446068E0
1.019456990E1,-3.085084200E0,4.556920528E-1,9.599464536E-1
1.020428407E1,-2.857848883E0,3.078670204E-1,7.815790772E-1
1.021399740E1,-2.552425385E0,4.544703662E-1,6.850652099E-1
1.022371001E1,-2.143157721E0,7.550072074E-1,7.131641507E-1
1.023342345E1,-1.669140100E0,1.110520363E0,7.534800768E-1
1.024313761E1,-1.225664973E0,1.288887739E0,6.557445526E-1
1.025285095E1,-8.225058317E-1,1.216807723E0,4.700469673E-1
1.026256355E1,-4.193466306E-1,1.046992183E0,2.646495700E-1
1.027227704E1,3.359660041E-3,8.771766424E-1,6.306997687E-2
1.028199121E1,4.614951015E-1,7.806627750E-1,-1.128540337E-1
1.029170454E1,9.513946176E-1,7.745543122E-1,-2.606790662E-1
1.030141714E1,1.425564766E0,8.222004175E-1,-3.474193811E-1
1.031113058E1,1.837275863E0,8.722898960E-1,-3.742966652E-1
1.032084475E1,2.156138182E0,8.857285380E-1,-3.950654566E-1
1.033055808E1,2.344279051E0,8.307522535E-1,-3.962871730E-1
1.034027068E1,2.409028769E0,6.878139973E-1,-3.791834414E-1
1.034998412E1,2.372378111E0,4.813476503E-1,-3.474193811E-1
1.035969834E1,2.257538795E0,2.663294077E-1,-3.009949923E-1
1.036941168E1,2.164690018E0,8.414421231E-2,-2.753393948E-1
1.037912428E1,2.257538795E0,2.061609551E-2,-2.765611112E-1
1.038883772E1,2.565405846E0,8.047912270E-2,-2.985515893E-1
1.039855188E1,2.892819881E0,1.856975704E-1,-2.948864996E-1
1.040826532E1,3.016211033E0,5.900784731E-1,-2.276933193E-1
1.041797782E1,2.876937866E0,1.099525094E0,-8.231166750E-2
1.042769131E1,2.233104944E0,1.452594757E0,9.116895497E-2
1.043740548E1,9.623898268E-1,1.403727055E0,1.908897609E-2
1.044711881E1,-2.748812549E-3,4.740174711E-1,-2.838912606E-1
1.045683142E1,-1.029277667E-1,-7.160657048E-1,-6.956022978E-1
1.046654485E1,3.075616062E-1,-1.070357084E0,-1.027903199E0
1.047625902E1,8.047912717E-1,-3.959817290E-1,-1.311336398E0
1.048597235E1,1.325385809E0,-6.490252167E-2,-1.549566746E0
1.049568501E1,9.391776323E-1,-1.139993668E0,-1.335770249E0
1.050539845E1,2.367033064E-1,-3.091039896E0,-8.409839869E-1
1.051511261E1,1.902789176E-1,-2.929776192E0,-5.172349215E-1
1.052482595E1,7.424848676E-1,-1.508945465E0,-1.116323397E-1
1.053453855E1,1.309503794E0,-6.268820167E-1,5.384618640E-1
1.054425199E1,1.822615504E0,-6.745280623E-1,1.047908425E0
1.055396621E1,2.163468361E0,-1.133885264E0,1.129762053E0
1.056367954E1,2.021751642E0,-1.626228094E0,9.049702287E-1
1.057339214E1,1.522078633E0,-2.090471983E0,6.154286265E-1
1.058310558E1,1.233758807E0,-2.348249674E0,3.466558158E-1
1.059281975E1,1.393800735E0,-1.868123651E0,7.040014863E-2
1.060253308E1,1.891030431E0,-8.480086923E-1,-2.228065431E-1
1.061224569E1,2.544636965E0,4.627167806E-2,-5.538857579E-1
1.062195912E1,3.170144558E0,6.389462352E-1,-8.641961813E-1
1.063167334E1,3.546426535E0,9.944593310E-1,-1.070662498E0
1.064138668E1,3.576968908E0,1.155722976E0,-1.190388560E0
1.065109928E1,3.332629919E0,1.144727707E0,-1.264912009E0
1.066081272E1,2.951461315E0,9.846857786E-1,-1.241699815E0
1.067052688E1,2.503099442E0,7.965448499E-1,-1.021794796E0
1.068024032E1,2.084058046E0,5.705313683E-1,-5.868715048E-1
1.068995287E1,1.669903636E0,3.872771561E-1,-3.100049868E-2
1.069966631E1,1.160304427E0,3.726168275E-1,4.016320705E-1
1.070938048E1,4.859289825E-1,4.593571424E-1,6.129852533E-1
1.071909381E1,-3.460449576E-1,4.764608741E-1,6.899519563E-1
1.072880642E1,-1.239103675E0,4.288147688E-1,7.192726731E-1
1.073851985E1,-2.025874853E0,3.090887070E-1,6.997255087E-1
1.074823407E1,-2.636722088E0,1.429382563E-1,6.019899845E-1
1.075794740E1,-3.107074499E0,3.527642787E-2,4.602734149E-1
1.076766001E1,-3.476026297E0,-6.612421572E-2,3.234436214E-1
1.077737345E1,-3.797332048E0,-2.774773538E-1,2.292204350E-1
1.078708761E1,-4.097868919E0,-5.853443742E-1,1.705790907E-1
1.079680095E1,-4.386341572E0,-9.017632604E-1,1.705790907E-1
1.080651355E1,-4.638010502E0,-1.253611326E0,2.133384049E-1
1.081622699E1,-4.625793457E0,-1.664100647E0,1.986780763E-1
1.082594121E1,-4.238516331E0,-1.813147426E0,1.351499557E-1
1.083565454E1,-3.799775362E0,-1.513832211E0,1.290414780E-1
1.084536714E1,-3.775341511E0,-9.689564705E-1,2.341072112E-1
1.085508058E1,-4.083208561E0,-6.378772259E-1,4.932591617E-1
1.086479475E1,-4.161549568E0,-6.488724947E-1,7.192726731E-1
1.087450818E1,-3.967147589E0,-3.422271907E-1,7.950177193E-1
1.088422074E1,-3.777784824E0,3.371876776E-1,8.231166601E-1
1.089393418E1,-3.546884537E0,5.949652195E-1,9.208522439E-1
1.090364834E1,-3.252456188E0,2.846548259E-1,1.021031141E0
1.091336168E1,-2.965358019E0,8.780929446E-2,1.016144395E0
1.092307428E1,-2.596406221E0,4.288147688E-1,9.575030804E-1
1.093278772E1,-2.074742794E0,1.046992183E0,9.575030804E-1
1.094250194E1,-1.495659471E0,1.717702508E0,1.066233873E0
1.095221527E1,-9.458969831E-1,2.295563936E0,1.073564053E0
1.096192787E1,-4.572191834E-1,2.462936163E0,8.561024070E-1
1.097164131E1,-2.229592577E-2,2.238144398E0,6.093201637E-1
1.098135548E1,3.833066523E-1,1.874079347E0,3.991886973E-1
1.099106892E1,7.644753456E-1,1.588202834E0,2.279987335E-1
1.100078142E1,1.127318621E0,1.420830727E0,6.673506647E-2
1.101049490E1,1.459772229E0,1.296217918E0,-7.986827940E-2
1.102020907E1,1.749313831E0,1.142284393E0,-2.203631550E-1
1.102992240E1,1.967997193E0,9.309312105E-1,-3.547495604E-1
1.103963501E1,2.081614733E0,6.755970716E-1,-4.610369802E-1
1.104934845E1,2.101161957E0,3.909422457E-1,-5.355603099E-1
1.105906266E1,2.096275091E0,1.085781008E-1,-5.746545792E-1
1.106877600E1,2.163468361E0,-6.245913357E-2,-5.819846988E-1
1.107848860E1,2.393146753E0,9.513945878E-2,-5.709894896E-1
1.108820204E1,2.853725672E0,6.267293096E-1,-5.722111464E-1
1.109791621E1,3.402266502E0,1.034775257E0,-4.818057716E-1
1.110762954E1,3.735789061E0,1.291331053E0,-2.790044844E-1
1.111734214E1,3.576968908E0,1.744579792E0,-2.901524538E-3
1.112705563E1,2.953904629E0,1.995027184E0,3.283303976E-1
1.113676980E1,1.645469785E0,1.359745979E0,5.482354164E-1
1.114648313E1,1.817270666E-1,-6.123743951E-2,3.930802047E-1
1.115619574E1,-3.423798978E-1,-1.182752967E0,-4.199574888E-2
1.116590918E1,-7.116370648E-2,-1.352568507E0,-3.877353072E-1
1.117562334E1,4.761554301E-1,-3.067980409E-1,-6.064186096E-1
1.118533678E1,1.113879919E0,6.462764144E-1,-9.130639434E-1
1.119504933E1,1.148087382E0,7.647807598E-1,-1.130525589E0
1.120476277E1,6.068767309E-1,-7.026270628E-1,-1.003469348E0
1.121447694E1,7.021689415E-1,-1.728850484E0,-8.360971808E-1
1.122419027E1,1.178629756E0,-6.781931520E-1,-5.343386531E-1
1.123390287E1,1.603932142E0,1.649287641E-1,1.620272398E-1
1.124361631E1,2.002204657E0,-7.026270628E-1,6.985038519E-1
1.125333053E1,2.179350376E0,-1.936538577E0,7.571451664E-1
1.126304386E1,1.969218850E0,-2.537612200E0,5.372401476E-1
1.127275647E1,1.629587770E0,-2.851587772E0,3.148917556E-1
1.128246990E1,1.464658976E0,-2.647564650E0,1.375933439E-1
1.129218407E1,1.638139606E0,-1.901109338E0,-2.489202656E-2
1.130189751E1,2.060845852E0,-9.213103652E-1,-1.849340051E-1
1.131161006E1,2.577622652E0,-7.956285775E-2,-3.474193811E-1
1.132132350E1,3.098064661E0,6.071822047E-1,-5.135698318E-1
1.133103766E1,3.513440609E0,1.059209108E0,-6.418477297E-1
1.134075100E1,3.708911896E0,1.254680276E0,-7.078192830E-1
1.135046360E1,3.649048805E0,1.301104665E0,-7.224795818E-1
1.136017704E1,3.372945786E0,1.231468081E0,-6.943806410E-1
1.136989126E1,2.999107361E0,1.032331824E0,-5.636593103E-1
1.137960459E1,2.659476280E0,6.340594292E-1,-2.472404242E-1
1.138931720E1,2.324732065E0,8.536590636E-2,1.449235082E-1
1.139903063E1,1.788408041E0,-3.874298632E-1,5.335750580E-1
1.140874480E1,9.721634388E-1,-5.706840754E-1,8.487722874E-1
1.141845813E1,1.801999472E-2,-4.265241027E-1,1.097997904E0
1.142817074E1,-9.104678631E-1,-5.757235363E-2,1.284917235E0
1.143788423E1,-1.720451355E0,3.457395434E-1,1.352110386E0
1.144759839E1,-2.352067471E0,6.609367132E-1,1.222610831E0
1.145731173E1,-2.788212299E0,8.454126120E-1,8.744278550E-1
1.146702433E1,-3.085084200E0,8.331956863E-1,4.443913698E-1
1.147673777E1,-3.370960712E0,6.377245188E-1,1.278197914E-1
1.148645194E1,-3.710591793E0,3.884988427E-1,-3.955236077E-2
1.149616537E1,-4.090538502E0,5.115845799E-2,-9.697200358E-2
1.150587792E1,-4.419327259E0,-5.303681493E-1,-7.009471953E-2
1.151559136E1,-4.537831783E0,-1.306144118E0,-2.733541466E-2
1.152530553E1,-4.455977917E0,-1.756949425E0,3.863608837E-2
1.153501886E1,-4.365572453E0,-1.614011168E0,2.880144715E-1
1.154473147E1,-4.304487705E0,-1.384332657E0,7.180509567E-1
1.155444490E1,-4.363129139E0,-1.507723689E0,1.115101695E0
1.156415912E1,-4.515841007E0,-1.703194857E0,1.155417562E0
1.157387246E1,-4.592807770E0,-1.130220175E0,8.585458398E-1
1.158358506E1,-4.520727634E0,2.672456764E-2,6.142069101E-1
1.159329850E1,-4.261728764E0,6.047387719E-1,5.958815217E-1
1.160301267E1,-3.836426258E0,3.897205591E-1,5.885513425E-1
1.161272600E1,-3.396616220E0,7.192726433E-2,4.553866386E-1
1.162243860E1,-2.986126900E0,-5.039489828E-3,3.038965166E-1
1.163215209E1,-2.509665966E0,1.146865711E-1,2.757975459E-1
1.164186626E1,-1.935469508E0,4.984513521E-1,4.211791754E-1
1.165157959E1,-1.339282632E0,1.065317631E0,5.873296261E-1
1.166129220E1,-8.163973689E-1,1.507570982E0,5.836645365E-1
1.167100563E1,-3.582619131E-1,1.714037418E0,4.883723855E-1
1.168071985E1,1.120904684E-1,1.803221107E0,3.588727713E-1
1.169043319E1,5.836645365E-1,1.834985137E0,2.231119573E-1
1.170014579E1,1.028361320E0,1.845980406E0,8.872556686E-2
1.170985923E1,1.462215662E0,1.861862421E0,-4.932591692E-2
1.171957339E1,1.862931371E0,1.820324779E0,-1.800472289E-1
1.172928673E1,2.203784227E0,1.627297044E0,-2.753393948E-1
1.173899933E1,2.439571142E0,1.294996142E0,-3.461976945E-1
1.174871277E1,2.531198263E0,8.759549856E-1,-3.865135908E-1
1.175842699E1,2.489660740E0,4.520269632E-1,-3.498627543E-1
1.176814032E1,2.358939409E0,8.170082420E-2,-2.570139766E-1
1.177785293E1,2.234326601E0,-2.237228155E-1,-1.507265568E-1
1.178756636E1,2.264868975E0,-3.874298632E-1,-9.330692142E-2
1.179728053E1,2.549523830E0,-3.862081766E-1,-1.140757278E-1
1.180699386E1,2.962456465E0,-2.591519356E-1,-1.592784226E-1
1.181670647E1,3.200686932E0,3.823903799E-1,-1.262926757E-1
1.182641996E1,3.067522287E0,1.429382563E0,-4.199574888E-2
1.183613412E1,2.431019306E0,1.831320047E0,7.162184268E-2
1.184584746E1,1.082115889E0,8.331956863E-1,3.741439432E-2
1.185556006E1,8.032641560E-2,-5.157077909E-1,-3.388675153E-1
1.186527350E1,-2.962609194E-2,-1.232842445E0,-7.811209559E-1
1.187498766E1,2.183778882E-1,-1.009272337E0,-1.117086887E0
1.188470110E1,6.545228362E-1,-7.808154821E-1,-1.379751205E0
1.189441365E1,1.022252917E0,-1.256054640E0,-1.350430608E0
1.190412709E1,7.742488980E-1,-2.219971657E0,-9.326110482E-1
1.191384126E1,5.763344169E-1,-2.322593927E0,-4.243861437E-1
1.192355459E1,1.072342396E0,-1.050809979E0,3.863608837E-2
1.193326720E1,1.635696292E0,-8.078455180E-2,6.325323582E-1
1.194298063E1,1.991209388E0,-5.474718809E-1,1.002705812E0
1.195269485E1,2.178128719E0,-1.550483108E0,8.988617659E-1
1.196240819E1,2.020529985E0,-2.122236013E0,5.323534012E-1
1.197212079E1,1.699224353E0,-2.268839359E0,1.546970755E-1
1.198183423E1,1.546512604E0,-1.997623205E0,-6.765133142E-2
1.199154839E1,1.708997965E0,-1.194969893E0,-1.824906170E-1
1.200126173E1,2.123152256E0,-1.174353883E-1,-3.437542915E-1
1.201097433E1,2.642372608E0,6.853706241E-1,-5.587725043E-1
1.202068777E1,3.030871391E0,1.057987452E0,-7.627955079E-1
1.203040199E1,3.144489050E0,1.144727707E0,-9.106205702E-1
1.204011532E1,2.999107361E0,1.060430884E0,-1.004691005E0
1.204982792E1,2.715674162E0,8.759549856E-1,-1.023016453E0
1.205954136E1,2.448123217E0,6.413896084E-1,-8.971819282E-1
1.206925553E1,2.250208616E0,3.750602305E-1,-5.978667736E-1
1.207896886E1,2.021751642E0,1.159082651E-1,-1.421747059E-1
1.208868147E1,1.673568726E0,-2.774773538E-1,2.597627938E-1
1.209839496E1,1.113879919E0,-6.952968836E-1,5.616740584E-1
1.210810912E1,2.342599183E-1,-7.221741676E-1,8.145648241E-1
1.211782246E1,-7.211052179E-1,-5.108210444E-1,1.038134933E0
1.212753506E1,-1.587286592E0,-2.347180545E-1,1.210393786E0
1.213724850E1,-2.300756216E0,4.749337584E-2,1.255596519E0
1.214696266E1,-2.811424494E0,2.370087355E-1,1.144422293E0
1.215667610E1,-3.165715933E0,2.528907657E-1,9.330691695E-1
1.216638865E1,-3.444262266E0,8.292251825E-2,7.094991207E-1
1.217610209E1,-3.693487883E0,-2.298312783E-1,5.164713860E-1
1.218581626E1,-3.923166513E0,-6.122216582E-1,3.429907262E-1
1.219552959E1,-4.081986904E0,-1.005607247E0,2.255553454E-1
1.220524220E1,-4.056331158E0,-1.429535270E0,1.168245375E-1
1.221495563E1,-3.854751587E0,-1.598129153E0,-2.000524849E-2
1.222466985E1,-3.640954971E0,-1.249946237E0,-5.299099907E-2
1.223438318E1,-3.614077806E0,-6.586460471E-1,1.033858955E-1
1.224409579E1,-3.888959169E0,-3.568875194E-1,4.834856093E-1
1.225380923E1,-4.196978569E0,-5.071559548E-1,9.391776323E-1
1.226352339E1,-4.366794109E0,-4.509579837E-1,1.146865726E0
1.227323673E1,-4.414440632E0,1.441599578E-1,1.217723966E0
1.228294933E1,-4.138337612E0,7.965448499E-1,1.308129430E0
1.229266277E1,-3.716700077E0,8.283088803E-1,1.415638566E0
1.230237699E1,-3.291550398E0,6.022953987E-1,1.366770744E0
1.231209032E1,-2.876174212E0,6.291726828E-1,1.137092113E0
1.232180292E1,-2.430255890E0,8.857285380E-1,9.013051391E-1
1.233151636E1,-1.959903479E0,1.188708782E0,8.145648241E-1
1.234123053E1,-1.473669052E0,1.528339863E0,8.218950033E-1
1.235094386E1,-1.005759954E0,1.760461807E0,7.571451664E-1
1.236065647E1,-5.561764240E-1,1.717702508E0,6.080984473E-1
1.237036990E1,-1.029277667E-1,1.451373100E0,4.211791754E-1
1.238008412E1,3.539859951E-1,1.155722976E0,2.316638231E-1
1.238979746E1,8.072346449E-1,1.011563063E0,5.451811850E-2
1.239951006E1,1.259414315E0,1.018893242E0,-9.086353332E-2
1.240922350E1,1.688229084E0,1.088529825E0,-2.020377368E-1
1.241893767E1,2.065732718E0,1.142284393E0,-3.034383655E-1
1.242865100E1,2.352830887E0,1.087308168E0,-3.681881726E-1
1.243836360E1,2.494547606E0,8.796200752E-1,-3.645231128E-1
1.244807704E1,2.504321098E0,5.216635466E-1,-3.107685447E-1
1.245779126E1,2.456675053E0,7.437065244E-2,-2.252499312E-1
1.246750459E1,2.454231501E0,-3.422271907E-1,-1.629435122E-1
1.247721720E1,2.616716862E0,-4.961606860E-1,-1.898207814E-1
1.248693063E1,2.944131136E0,-2.200577259E-1,-2.985515893E-1
1.249664480E1,3.300865889E0,2.137965411E-1,-3.742966652E-1
1.250635813E1,3.460907936E0,7.207997441E-1,-3.327590525E-1
1.251607074E1,3.198243618E0,1.161831498E0,-2.362451702E-1
1.252578418E1,2.394368649E0,9.590302110E-1,-1.971509457E-1
1.253549839E1,1.376697063E0,4.740174711E-1,-3.865135908E-1
1.254521173E1,8.280034661E-1,1.281252056E-1,-7.273663878E-1
1.255492433E1,7.828007340E-1,-3.336753249E-1,-9.778137207E-1
1.256463777E1,7.498149872E-1,-3.116848171E-1,-1.110978484E0
1.257435194E1,5.702258945E-1,-3.287885487E-1,-1.197718740E0
1.258406527E1,3.576510847E-1,-1.560256600E0,-1.113421798E0
1.259377787E1,5.250232220E-1,-3.186331987E0,-9.081771374E-1
1.260349131E1,5.091412067E-1,-3.799622774E0,-3.840702176E-1
1.261320553E1,7.913526297E-1,-2.409334183E0,1.901262105E-1
1.262291886E1,1.592936993E0,-8.211314082E-1,7.241594195E-1
1.263263147E1,2.180572033E0,-5.242596865E-1,1.161526084E0
1.264234490E1,2.476222038E0,-1.080130696E0,1.170077920E0
1.265205907E1,2.462783337E0,-1.526049137E0,8.316685557E-1
1.266177240E1,2.096275091E0,-1.689756274E0,3.527642787E-1
1.267148501E1,1.639361382E0,-1.791156888E0,-7.375980914E-2
1.268119850E1,1.500088215E0,-1.551704764E0,-3.633013964E-1
1.269091266E1,1.707776189E0,-6.671979427E-1,-5.282301903E-1
1.270062600E1,2.095053434E0,3.665083647E-1,-7.114843726E-1
1.271033860E1,2.592283010E0,1.005454540E0,-8.837432861E-1
1.272005204E1,3.017432690E0,1.196038961E0,-9.570449591E-1
1.272976621E1,3.104172945E0,1.126402378E0,-9.448279738E-1
1.273947954E1,2.813409805E0,9.700254202E-1,-8.703046441E-1
1.274919214E1,2.393146753E0,7.672241330E-1,-7.212579250E-1
1.275890558E1,2.084058046E0,5.192201734E-1,-5.367820263E-1
1.276861980E1,1.894695520E0,2.333436459E-1,-3.071034551E-1
1.277833313E1,1.680898905E0,1.206423342E-2,-2.000524849E-2
1.278804574E1,1.335159421E0,-1.638597846E-1,2.672456801E-1
1.279775918E1,7.669187188E-1,-2.493783981E-1,4.908157587E-1
1.280747334E1,-1.374406368E-2,-3.067980409E-1,6.154286265E-1
1.281718678E1,-9.581139088E-1,-3.837648034E-1,7.302678823E-1
1.282689928E1,-1.948908210E0,-4.277457893E-1,8.377770185E-1
1.283661277E1,-2.816311359E0,-3.422271907E-1,8.609892130E-1
1.284632694E1,-3.436932087E0,-1.553079188E-1,7.473716140E-1
1.285604027E1,-3.799775362E0,7.177455351E-3,5.543438792E-1
1.286575287E1,-3.972034216E0,5.360184610E-2,3.381039500E-1
1.287546631E1,-4.046557903E0,-5.268557742E-2,1.546970755E-1
1.288518048E1,-4.110085964E0,-2.359397560E-1,2.397575416E-2
1.289489392E1,-4.170101643E0,-4.924955964E-1,-6.520794332E-2
1.290460647E1,-4.125967979E0,-7.881456614E-1,-1.397313178E-1
1.291431990E1,-3.958595753E0,-8.846595287E-1,-1.311794519E-1
1.292403407E1,-3.761902809E0,-8.980981708E-1,3.374931216E-2
1.293374740E1,-3.780228376E0,-9.921686649E-1,2.929012477E-1
1.294346001E1,-4.072213173E0,-8.748859763E-1,6.203153729E-1
1.295317345E1,-4.321591854E0,-6.490252167E-2,9.660549164E-1
1.296288761E1,-4.319148064E0,1.035996914E0,1.182294846E0
1.297260105E1,-4.056331158E0,1.695711970E0,1.317902923E0
1.298231360E1,-3.620186329E0,1.528339863E0,1.308129430E0
1.299202704E1,-3.130286694E0,8.356390595E-1,1.165191174E0
1.300174121E1,-2.746674776E0,3.958290219E-1,9.794935584E-1
1.301145454E1,-2.433920860E0,4.178195298E-1,8.316685557E-1
1.302116714E1,-2.097954988E0,6.401679516E-1,8.072346449E-1
1.303088063E1,-1.670361876E0,9.602518678E-1,8.280034661E-1
1.304059480E1,-1.185349107E0,1.310878277E0,7.510367036E-1
1.305030813E1,-7.467607856E-1,1.469698548E0,5.836645365E-1
1.306002074E1,-3.582619131E-1,1.387844920E0,4.248442650E-1
1.306973418E1,6.322269142E-2,1.219251156E0,2.672456801E-1
1.307944834E1,5.531222224E-1,1.101968408E0,1.033858955E-1
1.308916178E1,1.061347127E0,1.094638348E0,-4.932591692E-2
1.309887433E1,1.525743723E0,1.148392797E0,-1.421747059E-1
1.310858777E1,1.914242625E0,1.152057886E0,-2.057028115E-1
1.311830194E1,2.226996422E0,1.053100705E0,-2.667875290E-1
1.312801527E1,2.432240963E0,8.368607163E-1,-3.144336343E-1
1.313772787E1,2.509207726E0,5.656445622E-1,-3.119902313E-1
1.314744131E1,2.495769262E0,2.858765125E-1,-2.643441558E-1
1.315715553E1,2.473778725E0,3.038965166E-2,-2.008160353E-1
1.316686886E1,2.613051891E0,-8.689302206E-2,-1.837123185E-1
1.317658147E1,2.930692434E0,2.794626169E-2,-2.411319613E-1
1.318629490E1,3.223899126E0,1.588202864E-1,-2.875563502E-1
1.319600907E1,3.348511934E0,5.668662786E-1,-2.545706034E-1
1.320572251E1,3.137158871E0,1.406170368E0,-2.289150059E-1
1.321543506E1,2.371156454E0,1.729919434E0,-1.714953631E-1
1.322514850E1,1.096776247E0,8.881719112E-1,-2.509055138E-1
1.323486267E1,5.677825212E-1,-1.064401343E-1,-5.538857579E-1
1.324457600E1,7.742488980E-1,-4.008685052E-1,-8.483141065E-1
1.325428860E1,9.917105436E-1,3.371876776E-1,-1.052337170E0
1.326400204E1,1.033248186E0,4.996730685E-1,-1.334548593E0
1.327371626E1,6.129852533E-1,-1.127776742E0,-1.336991906E0
1.328342959E1,3.063398898E-1,-2.497296333E0,-1.038898468E0
1.329314220E1,5.421269536E-1,-3.098370075E0,-7.078192830E-1
1.330285563E1,9.929322004E-1,-2.160108566E0,-1.079672500E-1
1.331256985E1,1.800624967E0,-8.199097514E-1,6.557445526E-1
1.332228319E1,2.372378111E0,-6.122216582E-1,1.220167398E0
1.333199579E1,2.523868084E0,-1.401436329E0,1.295912504E0
1.334170923E1,2.354052544E0,-2.282278061E0,1.071120620E0
1.335142339E1,1.989987612E0,-2.731861591E0,6.679614782E-1
1.336113673E1,1.611262321E0,-2.452093601E0,1.730224788E-1
1.337084938E1,1.410904408E0,-1.723963618E0,-2.008160353E-1
1.338056282E1,1.526965380E0,-7.588250041E-1,-3.645231128E-1
1.339027699E1,1.871483326E0,-1.114796288E-2,-4.194993675E-1
1.339999032E1,2.340614080E0,4.080459774E-1,-5.587725043E-1
1.340970293E1,2.792640924E0,7.049177289E-1,-7.542436719E-1
1.341941636E1,3.079739094E0,9.394831061E-1,-9.155073166E-1
1.342913058E1,3.144489050E0,1.115407109E0,-1.008356094E0
1.343884392E1,2.975895166E0,1.211920977E0,-9.301676750E-1
1.344855652E1,2.598391533E0,1.106855273E0,-6.161921620E-1
1.345826996E1,2.081614733E0,7.635591030E-1,-1.324011385E-1
1.346798418E1,1.548955917E0,2.052446753E-1,3.796415627E-1
1.347769751E1,1.135870457E0,-3.923166394E-1,7.363763452E-1
1.348741011E1,7.253811359E-1,-7.270609736E-1,9.147437811E-1
1.349712355E1,1.450762302E-1,-7.857022882E-1,1.022252917E0
1.350683772E1,-6.245913506E-1,-6.733064055E-1,1.104106426E0
1.351655115E1,-1.456565261E0,-4.656183124E-1,1.116323352E0
1.352626371E1,-2.194468737E0,-2.225011140E-1,1.017366052E0
1.353597714E1,-2.741787910E0,2.290677279E-3,8.218950033E-1
1.354569131E1,-3.088749170E0,1.966928244E-1,5.567872524E-1
1.355540464E1,-3.284220219E0,3.518480062E-1,2.733541429E-1
1.356511725E1,-3.394172907E0,4.398100376E-1,6.673506647E-2
1.357483074E1,-3.457700968E0,3.726168275E-1,-2.977880463E-2
1.358454490E1,-3.531002522E0,1.183516532E-1,-1.145338640E-2
1.359425824E1,-3.571318388E0,-4.094203711E-1,3.619270027E-2
1.360397084E1,-3.480913162E0,-1.012937427E0,1.420219894E-2
1.361368428E1,-3.396616220E0,-1.193748236E0,-1.145338640E-2
1.362339850E1,-3.515120506E0,-8.162446618E-1,1.119377613E-1
1.363311183E1,-3.848643064E0,-2.933593988E-1,4.199574888E-1
1.364282444E1,-4.083208561E0,-1.125486046E-1,8.463288546E-1
1.365253787E1,-3.897511005E0,1.979145110E-1,1.030804753E0
1.366225209E1,-3.719143629E0,8.368607163E-1,9.770501852E-1
1.367196543E1,-3.628738165E0,1.131289124E0,9.367342591E-1
1.368167803E1,-3.428380251E0,6.462764144E-1,8.170081973E-1
1.369139147E1,-3.208475113E0,8.047912270E-2,5.995466113E-1
1.370110569E1,-2.967801332E0,-3.817795310E-3,4.578300118E-1
1.371081902E1,-2.613509893E0,2.626643181E-1,4.566083252E-1
1.372053162E1,-2.178586721E0,6.022953987E-1,5.653391480E-1
1.373024506E1,-1.732668281E0,9.394831061E-1,6.484143734E-1
1.373995923E1,-1.298966646E0,1.193595529E0,5.665608048E-1
1.374967266E1,-8.725953102E-1,1.230246425E0,4.395045936E-1
1.375938522E1,-4.401154518E-1,1.131289124E0,3.185568452E-1
1.376909865E1,3.145863488E-2,1.066539288E0,1.766875684E-1
1.377881282E1,5.238015056E-1,1.065317631E0,3.619270027E-2
1.378852626E1,1.008814216E0,1.086086392E0,-1.116323397E-1
1.379823881E1,1.448776960E0,1.087308168E0,-2.570139766E-1
1.380795225E1,1.828724027E0,1.040883780E0,-3.620797098E-1
1.381766642E1,2.143921137E0,9.260444641E-1,-4.011739492E-1
1.382737975E1,2.367491245E0,7.427902818E-1,-3.938437700E-1
1.383709240E1,2.455453157E0,5.289937258E-1,-3.669664860E-1
1.384680584E1,2.406585455E0,3.066453338E-1,-3.254288733E-1
1.385652001E1,2.324732065E0,9.269607067E-2,-2.680092454E-1
1.386623334E1,2.345500708E0,-1.027750522E-1,-2.203631550E-1
1.387594595E1,2.555632114E0,-2.078407854E-1,-2.350234836E-1
1.388565944E1,2.813409805E0,-2.225011140E-1,-2.509055138E-1
1.389537360E1,2.852504015E0,-9.788827598E-2,-2.252499312E-1
1.390508694E1,2.677801609E0,3.078670204E-1,-1.849340051E-1
1.391479954E1,2.299076319E0,9.333745837E-1,-1.666085869E-1
1.392451303E1,1.550177574E0,1.459924936E0,-1.727170646E-1
1.393422720E1,2.281514555E-1,1.103190184E0,-3.400892019E-1
1.394394053E1,-6.673506498E-1,-3.752129376E-1,-7.237012982E-1
1.395365313E1,-6.099309921E-1,-1.238950968E0,-1.038898468E0
1.396336657E1,-1.921114624E-1,-3.055763543E-1,-1.130525589E0
1.397308079E1,4.566083252E-1,8.075400591E-1,-1.130525589E0
1.398279412E1,1.118766785E0,-4.902049154E-2,-1.062110662E0
1.399250673E1,1.130983710E0,-3.115473747E0,-7.273663878E-1
1.400222016E1,6.985038519E-1,-4.190565109E0,-3.132119179E-1
1.401193438E1,8.683193922E-1,-2.086807013E0,3.497100621E-2
1.402164772E1,1.460993886E0,-3.935383558E-1,6.667397618E-1
1.403136032E1,1.897138834E0,-3.764346242E-1,1.255596519E0
1.404107376E1,2.202562571E0,-1.006829023E0,1.181073189E0
1.405078798E1,2.167133331E0,-1.552926421E0,6.227588058E-1
1.406050131E1,1.710219622E0,-1.957307339E0,4.840964451E-2
1.407021392E1,1.261857748E0,-2.175990582E0,-3.437542915E-1
1.407992735E1,1.324164152E0,-1.833916187E0,-5.612159371E-1
1.408964157E1,1.756644011E0,-7.612683773E-1,-6.589514613E-1
1.409935490E1,2.308849812E0,2.785463631E-1,-6.858287454E-1
1.410906751E1,2.885489702E0,8.014315963E-1,-6.821636558E-1
1.411878095E1,3.304530859E0,9.138274789E-1,-7.090409398E-1
1.412849511E1,3.390049458E0,7.684458494E-1,-7.847860456E-1
1.413820855E1,3.208017111E0,5.485408306E-1,-9.118422270E-1
1.414792110E1,2.905036926E0,3.567348123E-1,-1.015686274E0
1.415763454E1,2.594726562E0,1.747023165E-1,-9.106205702E-1
1.416734871E1,2.347944260E0,-1.603474095E-2,-5.086830258E-1
1.417706214E1,2.126817465E0,-2.225011140E-1,4.474456236E-2
1.418677470E1,1.756644011E0,-3.617742956E-1,5.311316848E-1
1.419648813E1,1.072342396E0,-3.678827584E-1,8.878664970E-1
1.420620230E1,1.108687744E-1,-2.664821148E-1,1.132205367E0
1.421591574E1,-9.031376839E-1,-1.968455315E-1,1.276365399E0
1.422562829E1,-1.821851969E0,-2.273878902E-1,1.284917235E0
1.423534173E1,-2.538986683E0,-1.663031727E-1,1.124875188E0
1.424505589E1,-2.973909855E0,1.695101149E-2,8.475505710E-1
1.425476933E1,-3.143725395E0,1.869192570E-1,5.457920432E-1
1.426448188E1,-3.169380903E0,3.127537966E-1,2.536543310E-1
1.427419532E1,-3.185262918E0,3.958290219E-1,-3.466558084E-2
1.428390949E1,-3.285441875E0,2.687727809E-1,-2.289150059E-1
1.429362293E1,-3.438153744E0,-3.373403847E-1,-2.631224692E-1
1.430333548E1,-3.582313776E0,-1.154654026E0,-2.057028115E-1
1.431304892E1,-3.744799137E0,-1.611567736E0,-1.409530044E-1
1.432276308E1,-4.096647263E0,-1.599350810E0,2.519745007E-2
1.433247642E1,-4.717420578E0,-1.493063450E0,4.187358022E-1
1.434218907E1,-5.285508633E0,-1.452747464E0,1.003927469E0
1.435190251E1,-5.101032734E0,-5.853443742E-1,1.532921195E0
1.436161668E1,-4.504845619E0,6.927008033E-1,1.675859451E0
1.437133011E1,-3.985472918E0,1.566212416E0,1.536586285E0
1.438104266E1,-3.621407986E0,1.553995371E0,1.297134161E0
1.439075610E1,-3.312319279E0,1.039662004E0,9.599464536E-1
1.440047027E1,-3.074088812E0,6.682668924E-1,6.227588058E-1
1.441018360E1,-2.845631838E0,7.366818190E-1,4.175141156E-1
1.441989621E1,-2.460798264E0,1.084864736E0,4.004103839E-1
1.442960970E1,-1.937912941E0,1.492910743E0,5.616740584E-1
1.443932386E1,-1.408919215E0,1.860640764E0,7.437065244E-1
1.444903720E1,-9.862129092E-1,1.937607527E0,7.461498976E-1
1.445874980E1,-6.478035450E-1,1.621188641E0,6.520794630E-1
1.446846329E1,-3.118375242E-1,1.086086392E0,5.152496696E-1
1.447817746E1,8.643488586E-2,6.438329816E-1,3.405473530E-1
1.448789079E1,5.641174316E-1,4.556920528E-1,1.681357026E-1
1.449760339E1,1.072342396E0,4.703523815E-1,2.153236605E-2
1.450731688E1,1.536738992E0,5.876350403E-1,-1.006370857E-1
1.451703105E1,1.911799192E0,6.511631608E-1,-2.179197669E-1
1.452674438E1,2.184237003E0,5.473191738E-1,-3.217637837E-1
1.453645699E1,2.314958334E0,3.090887070E-1,-3.779617548E-1
1.454617048E1,2.328397036E0,3.161134571E-2,-3.877353072E-1
1.455588464E1,2.299076319E0,-1.858502775E-1,-3.828485310E-1
1.456559798E1,2.366269588E0,-2.188360244E-1,-4.023956358E-1
1.457531058E1,2.626490593E0,1.159082651E-1,-4.720322192E-1
1.458502407E1,2.967343330E0,6.682668924E-1,-5.734328628E-1
1.459473824E1,3.215347290E0,8.918370008E-1,-5.514423847E-1
1.460445157E1,3.189691782E0,9.944593310E-1,-4.207210541E-1
1.461416418E1,2.817074776E0,1.226581335E0,-2.716743052E-1
1.462387761E1,2.069397688E0,1.147171140E0,-1.653869003E-1
1.463359183E1,9.538379908E-1,4.556920528E-1,-2.154763639E-1
1.464330517E1,1.768402755E-1,-4.094203711E-1,-5.209000111E-1
1.465301777E1,2.464768738E-1,-6.989619732E-1,-8.214368224E-1
1.466273121E1,6.667397618E-1,2.333436459E-1,-9.497147799E-1
1.467244543E1,9.782719016E-1,1.221694469E0,-1.128082156E0
1.468215876E1,6.972821355E-1,-2.458660305E-2,-1.241699815E0
1.469187136E1,1.157555580E-1,-2.937106371E0,-9.949174523E-1
1.470158480E1,2.037175596E-1,-3.864372492E0,-9.228374958E-1
1.471129902E1,7.864658237E-1,-1.899887681E0,-5.648810267E-1
1.472101235E1,1.688229084E0,1.869192570E-1,3.796415627E-1
1.473072496E1,2.229439735E0,3.188622594E-1,1.284917235E0
1.474043839E1,2.471335411E0,-6.122216582E-1,1.264148355E0
1.475015261E1,2.378486633E0,-1.366007209E0,6.752916574E-1
1.475986595E1,1.988765955E0,-1.953642249E0,1.253764033E-1
1.476957855E1,1.561172843E0,-2.383678675E0,-2.692309320E-1
1.477929199E1,1.451220393E0,-2.216306686E0,-4.903576374E-1
1.478900621E1,1.707776189E0,-1.229177356E0,-6.186355352E-1
1.479871954E1,2.158581495E0,-1.481304597E-2,-7.188144922E-1
1.480843214E1,2.624047041E0,7.256865501E-1,-7.420266867E-1
1.481814558E1,2.964899778E0,1.009119630E0,-6.931589246E-1
1.482785980E1,3.110281467E0,1.023779988E0,-6.406260729E-1
1.483757313E1,3.008880854E0,8.527427912E-1,-6.247440577E-1
1.484728574E1,2.776758909E0,5.913001299E-1,-6.357392669E-1
1.485699918E1,2.523868084E0,2.919849753E-1,-5.209000111E-1
1.486671339E1,2.195232391E0,1.817270555E-2,-5.421269313E-2
1.487642673E1,1.803068399E0,-3.165715933E-1,5.812211633E-1
1.488613933E1,1.381583810E0,-5.657972693E-1,1.067455530E0
1.489585277E1,8.377770185E-1,-6.366555691E-1,1.353332043E0
1.490556699E1,8.399149776E-2,-5.645755529E-1,1.480388284E0
1.491528032E1,-7.968502641E-1,-4.558447599E-1,1.499935389E0
1.492499293E1,-1.660588264E0,-2.420482337E-1,1.393648028E0
1.493470636E1,-2.398491859E0,1.110214889E-1,1.150530815E0
1.494442058E1,-2.970244884E0,4.532486796E-1,8.316685557E-1
1.495413392E1,-3.377068996E0,6.010736823E-1,4.981459379E-1
1.496384652E1,-3.671497345E0,5.607577562E-1,1.852394342E-1
1.497355996E1,-3.897511005E0,4.398100376E-1,-6.887302548E-2
1.498327418E1,-4.084430218E0,2.357870489E-1,-2.032594234E-1
1.499298751E1,-4.203087330E0,-2.310529798E-1,-2.118112892E-1
1.500270011E1,-4.261728764E0,-8.736643195E-1,-1.666085869E-1
1.501241355E1,-4.209195614E0,-1.268271565E0,-1.189625040E-1
1.502212777E1,-4.024567127E0,-1.248724461E0,-1.104106456E-1
1.503184110E1,-3.985472918E0,-9.408574700E-1,-1.634016447E-2
1.504155371E1,-4.270280361E0,-1.491994411E-1,4.077405334E-1
1.505126714E1,-4.725972652E0,9.553651214E-1,1.084559321E0
1.506098136E1,-4.608689785E0,1.480693698E0,1.554911733E0
1.507069470E1,-4.028232098E0,1.638292313E0,1.578123927E0
1.508040730E1,-3.491908312E0,1.323095202E0,1.297134161E0
1.509012074E1,-3.093636036E0,6.426113248E-1,9.159654379E-1
