"Time (s)","Acceleration x (m/s^2)","Acceleration y (m/s^2)","Acceleration z (m/s^2)"
5.398594700E-2,6.412764788E-1,-9.430113792E0,1.097109199E0
6.369912500E-2,4.088735580E-1,-9.300901413E0,8.650053740E-1
7.341308300E-2,1.624128371E-1,-9.116654396E0,3.598206937E-1
8.312620800E-2,1.432702541E-1,-8.948857307E0,-9.272187948E-2
9.283860400E-2,3.323032558E-1,-8.860322952E0,-9.990034252E-2
1.025518330E-1,4.953143001E-1,-8.984749794E0,2.042872310E-1
1.122658430E-1,5.886343718E-1,-9.260223389E0,9.080761671E-1
1.219789680E-1,8.638089895E-1,-9.564111710E0,1.511366606E0
1.316913640E-1,1.407278776E0,-9.734301567E0,1.597508192E0
1.414045410E-1,1.859821439E0,-9.746265411E0,1.367797256E0
1.511185520E-1,1.955534339E0,-9.832406998E0,1.441974759E0
1.608316770E-1,1.866999865E0,-1.004776096E1,1.839183331E0
1.705440720E-1,1.692323804E0,-1.022752190E1,2.241476536E0
1.802572500E-1,1.301994562E0,-1.028255749E1,1.798505306E0
1.899712600E-1,9.595218897E-1,-1.040698433E1,4.770690203E-1
1.996844370E-1,8.207381964E-1,-1.092891788E1,-5.213362575E-1
2.093967810E-1,9.978070259E-1,-1.174756241E1,-1.095912814E0
2.191100620E-1,1.297209024E0,-1.272921848E1,-8.132606149E-1
2.288240200E-1,1.776072621E0,-1.361516094E1,-1.142572835E-1
2.385371450E-1,2.209472656E0,-1.419452286E1,-1.740778536E-1
2.482495410E-1,1.967498422E0,-1.447926903E1,-6.146563292E-1
2.579627180E-1,1.179960608E0,-1.442901993E1,-1.000199914E0
2.676767290E-1,2.796611488E-1,-1.427827168E1,-1.045663476E0
2.773898540E-1,-7.354938388E-1,-1.383051491E1,-1.823629975E0
2.871022500E-1,-1.649851203E0,-1.314586830E1,-3.343969584E0
2.968154270E-1,-2.006680965E0,-1.260479164E1,-4.016652107E0
3.065294890E-1,-2.293819666E0,-1.217139149E1,-3.796512127E0
3.162426140E-1,-2.519043922E0,-1.167099285E1,-3.195614576E0
3.259550100E-1,-2.698505640E0,-1.112752247E1,-1.826022744E0
3.356681870E-1,-2.373081923E0,-1.091216850E1,-4.304089844E-1
3.453821970E-1,-1.329213023E0,-1.116820049E1,6.996015310E-1
3.550953220E-1,-5.102694035E-1,-1.148435211E1,1.391725421E0
3.648077180E-1,-7.477570791E-3,-1.138146114E1,1.485045552E0
3.745208950E-1,-9.601201117E-2,-1.115145111E1,1.185643673E0
3.842349060E-1,-1.031904742E-1,-1.120170021E1,6.278168559E-1
3.939480830E-1,-2.877369225E-1,-1.121366405E1,3.478565812E-1
4.036604270E-1,-5.940182209E-1,-1.115384388E1,-8.554340899E-2
4.133736040E-1,-4.935196638E-1,-1.117537880E1,-7.917252183E-1
4.230876660E-1,-1.968096644E-1,-1.116102219E1,-1.198804140E0
4.328007910E-1,2.676970363E-1,-1.138385391E1,-1.110269666E0
4.425131870E-1,5.407779217E-1,-1.152981567E1,-7.510471940E-1
4.522263640E-1,8.350951076E-1,-1.194885921E1,-1.645065546E-1
4.619403750E-1,8.757730722E-1,-1.200628662E1,8.913264275E-1
4.716535000E-1,4.995017126E-2,-1.146520996E1,9.439685345E-1
4.813658950E-1,-8.024929166E-1,-1.075663471E1,5.982056609E-4
4.910790720E-1,-1.137488008E0,-9.913763046E0,-8.371888399E-1
5.007930830E-1,-8.312067389E-1,-9.377471924E0,-1.138983607E0
5.105062600E-1,-1.585244983E-1,-8.987142563E0,-1.261017561E0
5.202186040E-1,2.892324328E-1,-8.664112091E0,-1.442872047E0
5.299318850E-1,4.184448719E-1,-8.213961601E0,-1.227517962E0
5.396458430E-1,5.264210105E-1,-7.830811024E0,-9.185447693E-1
5.493589680E-1,5.910272002E-1,-7.660920620E0,-8.778668046E-1
5.590713640E-1,5.527420044E-1,-7.292127132E0,-6.840481758E-1
5.687845410E-1,4.905286431E-1,-6.952346325E0,-1.956132501E-1
5.784985520E-1,1.887338907E-1,-6.645765781E0,-3.290131316E-2
5.882116770E-1,-4.001995921E-1,-6.241079807E0,-4.375874400E-1
5.979240720E-1,-1.077667475E0,-5.913262844E0,-6.314060688E-1
6.076372500E-1,-1.554138303E0,-5.760122299E0,-7.319046259E-1
6.173512600E-1,-1.851147413E0,-5.717051506E0,-1.000199914E0
6.270644370E-1,-2.078465462E0,-5.786443233E0,-9.978070259E-1
6.367768330E-1,-2.090429783E0,-5.898906231E0,-6.481558084E-1
6.464900100E-1,-1.913360834E0,-6.092724800E0,-4.926223755E-1
6.562040200E-1,-1.805384636E0,-6.279664040E0,-7.175477147E-1
6.659171450E-1,-1.647458434E0,-6.358626842E0,-7.366902828E-1
6.756295410E-1,-1.472782373E0,-6.437590122E0,-8.324031830E-1
6.853427180E-1,-1.237986565E0,-6.612266064E0,-1.430907965E0
6.950567290E-1,-9.101698995E-1,-6.882954121E0,-1.904985905E0
7.047699060E-1,-6.203392744E-1,-7.172485828E0,-2.618346214E0
7.144823020E-1,-4.576273263E-1,-7.378567696E0,-3.430111170E0
7.241954790E-1,-5.006981492E-1,-7.572386265E0,-4.109972000E0
7.339094890E-1,-5.246263742E-1,-7.840382576E0,-4.971986294E0
7.436226140E-1,-3.762713671E-1,-8.199604988E0,-6.734001160E0
7.533350100E-1,-1.369891018E-1,-8.776574135E0,-8.608478546E0
7.630481870E-1,-2.781656384E-1,-9.504291534E0,-1.003310490E1
7.727622500E-1,-6.849454641E-1,-1.026341438E1,-1.069382381E1
7.824753750E-1,-8.288139701E-1,-1.086909771E1,-9.843772888E0
7.921877700E-1,-7.115656137E-1,-1.141496086E1,-7.942974567E0
8.019009470E-1,-3.643072546E-1,-1.186271763E1,-6.513562202E0
8.116149580E-1,2.030908167E-1,-1.212832069E1,-5.788238049E0
8.213280830E-1,5.623133183E-1,-1.210917854E1,-5.180161953E0
8.310404790E-1,4.426721931E-1,-1.167817116E1,-5.580062389E0
8.407536560E-1,-2.614158690E-1,-1.085713387E1,-6.039783478E0
8.504677180E-1,-7.761718631E-1,-1.013150978E1,-5.271089077E0
8.601808430E-1,-5.605186820E-1,-1.017458057E1,-6.212066650E0
8.698932390E-1,-6.996015310E-1,-1.109641552E1,-6.030212402E0
8.796064160E-1,-1.458425403E0,-1.176191998E1,-1.598704576E0
8.893204270E-1,-9.269196987E-1,-1.232453251E1,-9.032905847E-2
8.990335520E-1,5.910272002E-1,-1.231735325E1,-1.792523265E0
9.087459470E-1,9.044869542E-1,-1.141496086E1,-4.311268330E0
9.184592290E-1,1.166501082E-2,-1.032802105E1,-6.245566368E0
9.281731870E-1,-2.485544443E0,-9.487542152E0,-4.591228485E0
9.378863120E-1,-4.740779877E0,-8.762217522E0,-1.016949654E0
9.475987080E-1,-4.570590496E0,-8.499007225E0,1.195214868E0
9.573118850E-1,-3.105584621E0,-8.640183449E0,2.107478619E0
9.670259470E-1,-1.508674622E0,-8.759824753E0,1.211964726E0
9.767390720E-1,-6.418746710E-1,-8.812466621E0,-4.639084935E-1
9.864514680E-1,-9.317052960E-1,-8.843573570E0,-5.811567903E-1
9.961646450E-1,-1.575673699E0,-8.901000977E0,3.885345757E-1
1.005878708E0,-1.680957913E0,-8.920144081E0,9.942178130E-1
1.015591833E0,-1.752742529E0,-8.989535332E0,6.469594240E-1
1.025304229E0,-1.494317770E0,-9.209974289E0,-1.501496136E-1
1.035017406E0,-7.905287743E-1,-9.739087105E0,-4.136592150E-1
1.044731468E0,3.059822023E-1,-1.026580715E1,9.152546525E-2
1.054444593E0,1.608574986E0,-1.071326542E1,4.196412563E-1
1.064156989E0,2.360220432E0,-1.070369434E1,2.425723970E-1
1.073870166E0,2.441576481E0,-1.044766140E1,-1.645065546E-1
1.083584177E0,2.113460541E0,-1.002861881E1,-4.639084935E-1
1.093297354E0,1.692323804E0,-9.645767212E0,-8.539385796E-1
1.103009750E0,1.333101273E0,-9.365508080E0,-9.882357717E-1
1.112722927E0,9.643075466E-1,-9.209974289E0,-6.098706722E-1
1.122436937E0,1.019641519E0,-9.339186668E0,-2.769692242E-1
1.132150114E0,1.072283626E0,-9.466006279E0,-5.204389244E-2
1.141862510E0,1.062712312E0,-9.497113228E0,-1.860419661E-1
1.151575687E0,1.017248750E0,-9.341579437E0,-7.749754190E-1
1.161289697E0,1.053141117E0,-9.324830055E0,-1.112662554E0
1.171002875E0,9.427721500E-1,-9.341579437E0,-8.970093727E-1
1.180715270E0,5.335994363E-1,-9.116654396E0,-6.864410043E-1
1.190428447E0,5.473581702E-2,-8.814859390E0,-6.146563292E-1
1.200142510E0,-3.212364316E-1,-8.644968987E0,-6.457630396E-1
1.209855635E0,-4.408775866E-1,-8.566005707E0,-7.295117974E-1
1.219568031E0,-1.513460279E-1,-8.781359673E0,-9.690931439E-1
1.229281312E0,4.112663865E-1,-9.020642281E0,-1.167697430E0
1.238995270E0,1.117747307E0,-9.396614075E0,-1.050449133E0
1.248708395E0,1.589432478E0,-9.863513947E0,-7.031907439E-1
1.258420791E0,1.754537225E0,-1.022752190E1,-5.835496187E-1
1.268134072E0,1.852642894E0,-1.040698433E1,-6.457630396E-1
1.277848031E0,1.914856315E0,-1.039501953E1,-8.395816684E-1
1.287561156E0,1.826321840E0,-1.028016472E1,-7.295117974E-1
1.297273604E0,1.587039590E0,-9.980762482E0,-5.739783049E-1
1.306986781E0,1.354636669E0,-9.652945518E0,-3.897309899E-1
1.316700791E0,1.036391258E0,-9.394221306E0,-2.554338276E-1
1.326413968E0,7.298108935E-1,-9.195617676E0,-1.214357466E-1
1.336126364E0,2.557329237E-1,-8.984749794E0,-1.549352705E-1
1.345839541E0,-2.231307179E-1,-8.855537415E0,-4.351946115E-1
1.355553604E0,-4.791627228E-1,-8.893822670E0,-7.941179872E-1
1.365266729E0,-3.427718580E-1,-9.027820587E0,-8.706883192E-1
1.374979177E0,-8.404789865E-2,-9.286544800E0,-5.691927075E-1
1.384692354E0,2.653042078E-1,-9.600004196E0,-3.290131316E-2
1.394406364E0,7.202396393E-1,-9.739087105E0,3.502494097E-1
1.404119541E0,1.065105200E0,-9.806086540E0,4.986044168E-1
1.413831937E0,1.354636669E0,-9.719944954E0,3.646063507E-1
1.423545114E0,1.376172066E0,-9.492327690E0,1.016949583E-2
1.433259177E0,1.282852054E0,-9.233902931E0,-3.777668774E-1
1.442972302E0,1.084247708E0,-9.090332985E0,-2.841476798E-1
1.452684750E0,1.053141117E0,-9.123832703E0,2.114657015E-1
1.462397927E0,1.096211910E0,-9.329615593E0,8.099704385E-1
1.472111989E0,1.033998489E0,-9.513862610E0,1.535294771E0
1.481825114E0,8.398807645E-1,-9.597611427E0,2.042872429E0
1.491537510E0,7.585247755E-1,-9.633803368E0,2.078764677E0
1.501250791E0,7.058826685E-1,-9.616754532E0,1.774577141E0
1.510964750E0,6.173482537E-1,-9.636196136E0,1.518545032E0
1.520677927E0,6.843472719E-1,-9.810872078E0,1.001396298E0
1.530390322E0,9.403793216E-1,-1.010040379E1,2.066800594E-1
1.540103500E0,1.187139153E0,-1.051705360E1,-5.548357368E-1
1.549817562E0,1.400100350E0,-1.133839035E1,-9.690931439E-1
1.559530739E0,1.721037745E0,-1.237238884E1,-8.012964725E-1
1.569243135E0,2.180758715E0,-1.338275814E1,-1.022931710E-1
1.578956312E0,2.683550596E0,-1.415145206E1,2.880360186E-1
1.588670375E0,3.265305519E0,-1.432852077E1,-4.567300081E-1
1.598383500E0,3.154936552E0,-1.404108334E1,-1.442872047E0
1.608095947E0,2.223829508E0,-1.372044468E1,-1.979163408E0
1.617809125E0,8.949156404E-1,-1.346172142E1,-1.897807479E0
1.627523187E0,-3.738785386E-1,-1.321047497E1,-1.524527073E0
1.637236312E0,-1.386640668E0,-1.290628719E1,-1.969592094E0
1.646948708E0,-2.147857428E0,-1.237956715E1,-2.529811859E0
1.656661989E0,-2.676970243E0,-1.189621735E1,-2.934497833E0
1.666375947E0,-2.875574589E0,-1.166381359E1,-2.912962437E0
1.676089125E0,-3.000300407E0,-1.137189007E1,-1.955235243E0
1.685801520E0,-2.909074068E0,-1.106052399E1,-1.404586911E0
1.695514802E0,-2.471187592E0,-1.080688477E1,-1.292124271E0
1.705228760E0,-2.016252279E0,-1.063430214E1,-8.587242365E-1
1.714941937E0,-1.616351724E0,-1.054576778E1,-2.841476798E-1
1.724654333E0,-1.032203913E0,-1.080209827E1,3.693920076E-1
1.734367614E0,-1.537388563E-1,-1.130967617E1,9.942178130E-1
1.744081572E0,3.346960545E-1,-1.151545906E1,1.149751306E0
1.753794750E0,8.446664214E-1,-1.178106213E1,1.207179070E0
1.763507145E0,1.263709426E0,-1.200628662E1,1.116251707E0
1.773220427E0,1.433599830E0,-1.225753307E1,1.207179070E0
1.782934385E0,1.517348647E0,-1.245165062E1,1.324726462E0
1.792647562E0,1.311565876E0,-1.235324574E1,1.001396298E0
1.802359958E0,9.403793216E-1,-1.205892849E1,2.449652255E-1
1.812073239E0,4.378865361E-1,-1.180977631E1,-3.897309899E-1
1.821787250E0,-4.815555513E-1,-1.144606686E1,-9.281160831E-1
1.831500375E0,-1.293320656E0,-1.095045376E1,-1.316052437E0
1.841212770E0,-1.788634896E0,-1.044287586E1,-1.363908887E0
1.850926052E0,-1.685743570E0,-9.892228127E0,-1.253839016E0
1.860640062E0,-1.204487085E0,-9.284152031E0,-1.124626637E0
1.870353187E0,-4.552344978E-1,-8.910572052E0,-1.014556766E0
1.880065583E0,4.256233275E-1,-8.558827400E0,-5.261218548E-1
1.889778864E0,8.805587292E-1,-8.003393173E0,-2.243271172E-1
1.899492875E0,1.000499010E0,-7.426424026E0,-1.621137410E-1
1.909206000E0,8.327022791E-1,-6.964310169E0,-7.357929647E-2
1.918918395E0,5.862415433E-1,-6.624230385E0,-6.161518395E-2
1.928631677E0,2.102692872E-1,-6.260521412E0,-1.166501045E-1
1.938345687E0,-2.949153781E-1,-6.011368752E0,-2.745763958E-1
1.948058812E0,-8.934201598E-1,-5.812764645E0,-5.165506005E-1
1.957771260E0,-1.484746456E0,-5.745765209E0,-6.601199508E-1
1.967484437E0,-1.848754644E0,-5.781657696E0,-6.505486369E-1
1.977198500E0,-2.037787676E0,-5.879763603E0,-5.859424472E-1
1.986911625E0,-2.049751759E0,-6.068796635E0,-4.232304990E-1
1.996624072E0,-1.949253201E0,-6.219544411E0,-3.296113312E-1
2.006337250E0,-1.913360834E0,-6.332305908E0,-4.806582630E-1
2.016051312E0,-1.834397674E0,-6.447161674E0,-8.395816684E-1
2.025764489E0,-1.709671736E0,-6.473482609E0,-1.210768223E0
2.035476885E0,-1.513460279E0,-6.499803543E0,-1.814058661E0
2.045190062E0,-1.235593796E0,-6.626623154E0,-2.536990166E0
2.054904125E0,-8.407780528E-1,-6.894918442E0,-3.164208889E0
2.064617302E0,-5.820540786E-1,-7.251449108E0,-3.600001574E0
2.074329697E0,-3.786641955E-1,-7.586743355E0,-4.081258297E0
2.084042979E0,-2.829512656E-1,-7.847560883E0,-4.993521690E0
2.093756937E0,-4.600201547E-1,-8.125427246E0,-6.123532295E0
2.103470114E0,-8.934201598E-1,-8.458029747E0,-7.322934628E0
2.113182510E0,-1.415354609E0,-8.929715157E0,-8.179863930E0
2.122895791E0,-1.731207132E0,-9.611968994E0,-7.981259823E0
2.132609750E0,-1.707278967E0,-1.036869907E1,-7.638787270E0
2.142322927E0,-1.429711580E0,-1.092652512E1,-7.392326355E0
2.152035322E0,-9.245268703E-1,-1.133360481E1,-7.435397148E0
2.161748604E0,-2.255235314E-1,-1.174038410E1,-7.710870743E0
2.171462614E0,4.450650215E-1,-1.186989594E1,-7.588537693E0
2.181175739E0,6.604190469E-1,-1.158485126E1,-7.083353043E0
2.190888187E0,3.251247704E-1,-1.091456127E1,-6.381957054E0
2.200601364E0,-2.039881349E-1,-1.017218781E1,-5.903093338E0
2.210315427E0,-5.557330847E-1,-1.012193871E1,-5.898307800E0
2.220028552E0,-1.255035520E0,-1.116341496E1,-6.082854271E0
2.229741000E0,-2.241177559E0,-1.169013500E1,-2.156531334E0
2.239454177E0,-2.222034931E0,-1.201585770E1,1.495514158E-2
2.249168239E0,-2.877369225E-1,-1.222164059E1,-1.766202211E0
2.258881416E0,1.500598907E0,-1.152742290E1,-4.706083775E0
2.268593812E0,6.939185858E-1,-1.116341496E1,-5.335695267E0
2.278307093E0,-1.661815286E0,-1.068694401E1,-2.857927561E0
2.288021052E0,-3.527020693E0,-9.887442589E0,3.409772366E-2
2.297734229E0,-3.330509901E0,-9.190832138E0,1.082752228E0
2.307446625E0,-2.428116798E0,-8.905786514E0,1.255035520E0
2.317159906E0,-1.295713425E0,-8.711968422E0,7.115656137E-1
2.326873864E0,-7.139584422E-1,-8.520542145E0,-1.004985452E0
2.336587041E0,-1.068096161E0,-8.479565620E0,-1.945663929E0
2.346299437E0,-1.429711580E0,-8.879466057E0,-8.754739761E-1
2.356012718E0,-1.570888042E0,-9.432506561E0,3.888336942E-2
2.365726729E0,-1.525424480E0,-9.880263329E0,3.170489892E-2
2.375439854E0,-7.953144312E-1,-1.033280659E1,-6.337988973E-1
2.385152302E0,3.538386524E-1,-1.096241760E1,-1.079162955E0
2.394865479E0,1.445564032E0,-1.155135155E1,-7.654041648E-1
2.404579541E0,2.250150681E0,-1.169970608E1,-2.793620527E-1
2.414292666E0,2.673680305E0,-1.140060329E1,-1.645065546E-1
2.424005114E0,2.680858612E0,-1.079731274E1,-3.753740489E-1
2.433718291E0,2.252543449E0,-9.916155815E0,-6.672984362E-1
2.443432354E0,1.601396561E0,-9.064012527E0,-9.451649189E-1
2.453145531E0,9.379864931E-1,-8.465208054E0,-1.064806104E0
2.462857927E0,1.193420291E-1,-8.233104706E0,-9.786644578E-1
2.472571208E0,-4.265206456E-1,-8.326424599E0,-5.452644825E-1
2.482285166E0,-7.498508096E-1,-8.616254807E0,-2.093719877E-2
2.491998343E0,-6.900302172E-1,-8.972785950E0,1.704886109E-1
2.501710739E0,-1.968096644E-1,-9.286544800E0,-8.793623000E-2
2.511424020E0,3.705884218E-1,-9.437292099E0,-8.060821295E-1
2.521138031E0,6.628118753E-1,-9.303294182E0,-1.270588875E0
2.530851156E0,8.279166222E-1,-9.193224907E0,-1.036092162E0
2.540563604E0,1.129711390E0,-9.104690552E0,1.680957973E-1
2.550276781E0,1.383350611E0,-8.944071770E0,1.288534999E0
2.559990843E0,1.373779297E0,-8.726325035E0,1.619043589E0
2.569703968E0,1.091426253E0,-8.537292480E0,1.183250785E0
2.579416416E0,6.915257573E-1,-8.441280365E0,3.119642437E-1
2.589129593E0,3.059822023E-1,-8.544470787E0,-4.998008311E-1
2.598843656E0,1.887338907E-1,-8.872286797E0,-8.754739761E-1
2.608556833E0,4.953143001E-1,-9.305686951E0,-9.137591720E-1
2.618269229E0,1.050748229E0,-9.724730492E0,-8.994022012E-1
2.627982510E0,1.424028635E0,-1.003101158E1,-8.180462122E-1
2.637696468E0,1.790429592E0,-1.019641590E1,-7.654041648E-1
2.647409645E0,2.003390789E0,-1.020359421E1,-6.912266612E-1
2.657122041E0,2.067996979E0,-1.010997486E1,-5.428716540E-1
2.666835322E0,1.831107497E0,-9.858728409E0,-3.080759048E-1
2.676549333E0,1.409671664E0,-9.554540634E0,-3.152543902E-1
2.686262458E0,7.178468108E-1,-9.274580956E0,-7.007979155E-1
2.695974906E0,6.879365072E-3,-9.059226990E0,-1.088734269E0
2.705688083E0,-2.733799815E-1,-9.073583603E0,-1.574776411E0
2.715402145E0,-3.427718580E-1,-9.276973724E0,-1.890628934E0
2.725115270E0,-2.518445849E-1,-9.533005714E0,-1.749452472E0
2.734827718E0,4.486542661E-3,-9.731908798E0,-1.296909928E0
2.744540895E0,1.408774406E-1,-9.782157898E0,-8.443672657E-1
2.754254958E0,4.378865361E-1,-9.674481392E0,-5.045864582E-1
2.763968083E0,8.805587292E-1,-9.533005714E0,-4.471587241E-1
2.773680531E0,1.189531922E0,-9.305686951E0,-5.213362575E-1
2.783393708E0,1.412064433E0,-9.174081802E0,-5.380859971E-1
2.793107770E0,1.606182218E0,-9.111868858E0,-6.912266612E-1
2.802820947E0,1.651645780E0,-9.128618240E0,-5.380859971E-1
2.812533343E0,1.400100350E0,-9.200403214E0,2.213360928E-2
2.822246625E0,1.254138112E0,-9.274580956E0,5.895316601E-1
2.831960583E0,1.086640596E0,-9.391828537E0,1.638186216E0
2.841673760E0,9.379864931E-1,-9.463613510E0,2.493022203E0
2.851386156E0,1.215852976E0,-9.556933403E0,2.591127872E0
2.861099437E0,1.548455358E0,-9.712766647E0,2.533699989E0
2.870813395E0,1.922034740E0,-9.841979027E0,2.140978098E0
2.880526572E0,2.314756870E0,-9.753444672E0,1.274178028E0
2.890238968E0,2.659323215E0,-9.774979591E0,1.274178028E-1
2.899952250E0,2.824727058E0,-1.025623608E1,-4.112663865E-1
2.909666260E0,2.676073074E0,-1.125912762E1,1.776670814E-1
2.919379385E0,2.314756870E0,-1.218096256E1,1.348654628E0
2.929091781E0,1.383350611E0,-1.321286774E1,2.191227436E0
2.938805062E0,5.000999570E-1,-1.356251907E1,1.824826360E0
2.948519072E0,-3.260220885E-1,-1.361276817E1,5.536393523E-1
2.958232197E0,-9.197412133E-1,-1.358644676E1,-9.403793216E-1
2.967944645E0,-9.652048349E-1,-1.382094383E1,-1.983949065E0
2.977657822E0,-9.029914737E-1,-1.409851074E1,-2.357528448E0
2.987371885E0,-4.289134443E-1,-1.408893967E1,-3.094816923E0
2.997085010E0,1.863410622E-1,-1.392144203E1,-4.184149265E0
3.006797458E0,3.155534863E-1,-1.359601784E1,-4.801796913E0
3.016510635E0,-4.815555736E-2,-1.301187038E1,-4.974379063E0
3.026224697E0,-6.538388133E-1,-1.244925785E1,-4.569693089E0
3.035937822E0,-1.156630635E0,-1.207089329E1,-3.080460072E0
3.045650270E0,-1.594816327E0,-1.171167088E1,-1.098305583E0
3.055363447E0,-2.183749676E0,-1.143171024E1,4.842474759E-1
3.065077510E0,-2.957229614E0,-1.114905834E1,1.908874273E0
3.074790687E0,-3.038585663E0,-1.098156071E1,2.471486807E0
3.084503083E0,-2.933301449E0,-1.084756279E1,2.184048891E0
3.094216260E0,-2.717648268E0,-1.086670494E1,1.702792406E0
3.103930322E0,-2.245963097E0,-1.085713387E1,1.032503009E0
3.113643500E0,-1.295713425E0,-1.096002483E1,4.052843451E-1
3.123355895E0,-2.231307179E-1,-1.126152039E1,2.377867550E-1
3.133069072E0,6.125625968E-1,-1.168774223E1,9.104689956E-1
3.142783135E0,7.489534616E-1,-1.185284710E1,1.619043589E0
3.152496312E0,6.771687865E-1,-1.178345490E1,1.949552298E0
3.162208708E0,2.389831543E-1,-1.131206894E1,1.889731646E0
3.171921989E0,-7.477570791E-3,-1.064387321E1,1.037288666E0
3.181635947E0,-7.163512707E-1,-9.880263329E0,-5.189434290E-1
3.191349125E0,-1.374676585E0,-9.375079155E0,-1.440479279E0
3.201061520E0,-1.496710539E0,-9.231510162E0,-1.493121386E0
3.210774802E0,-1.101595759E0,-9.039784431E0,-1.287338614E0
3.220488760E0,-5.964110494E-1,-8.769395828E0,-1.289731383E0
3.230201937E0,1.884347759E-2,-8.561220169E0,-1.052842021E0
3.239914333E0,4.426721931E-1,-8.292924881E0,-7.079764009E-1
3.249627510E0,6.269195080E-1,-7.881060600E0,-7.247261405E-1
3.259341572E0,6.963114142E-1,-7.524529934E0,-8.850452900E-1
3.269054750E0,6.317051649E-1,-7.414460182E0,-8.611170650E-1
3.278767145E0,2.653042078E-1,-7.342376232E0,-3.753740489E-1
3.288480322E0,-3.403790295E-1,-7.119843960E0,8.195417374E-2
3.298194385E0,-9.269196987E-1,-6.854240417E0,2.497508675E-1
3.307907562E0,-1.235593796E0,-6.614659309E0,-1.854437590E-2
3.317619958E0,-1.451246977E0,-6.435197353E0,-3.897309899E-1
3.327333135E0,-1.618744493E0,-6.370591164E0,-6.242275834E-1
3.337047197E0,-1.649851203E0,-6.380162239E0,-7.151548862E-1
3.346760375E0,-1.659422517E0,-6.337091446E0,-7.055835724E-1
3.356472770E0,-1.590030670E0,-6.406483650E0,-5.476573110E-1
3.366185947E0,-1.544566989E0,-6.554838657E0,-5.237290859E-1
3.375900010E0,-1.465603828E0,-6.672086716E0,-6.194419861E-1
3.385613187E0,-1.290927768E0,-6.837490559E0,-7.295117974E-1
3.395325583E0,-1.115952611E0,-6.966702938E0,-9.667003751E-1
3.405038760E0,-1.025025368E0,-7.052844524E0,-1.385444283E0
3.414752822E0,-1.087238789E0,-7.270591736E0,-2.225923300E0
3.424465947E0,-1.194915771E0,-7.495816231E0,-3.279363394E0
3.434178395E0,-1.322034478E0,-7.754240990E0,-4.916951656E0
3.443891572E0,-1.501496196E0,-8.001000404E0,-6.846463680E0
3.453605635E0,-1.997109652E0,-8.158926964E0,-8.862417221E0
3.463318760E0,-2.533401012E0,-8.532505989E0,-1.065075302E1
3.473031208E0,-2.935694218E0,-9.363115311E0,-1.171854973E1
3.482744385E0,-3.024228811E0,-1.031127071E1,-1.168265724E1
3.492458447E0,-2.389831543E0,-1.112273693E1,-1.037767220E1
3.502171572E0,-1.216451168E0,-1.172602749E1,-8.318946838E0
3.511883968E0,-2.638086975E-1,-1.189861012E1,-6.805785656E0
3.521597250E0,2.341975123E-1,-1.171884918E1,-5.630311489E0
3.531311260E0,6.197410822E-1,-1.133599758E1,-4.607978344E0
3.541024385E0,1.273280740E0,-1.102463150E1,-4.069293976E0
3.550736781E0,1.981855392E0,-1.080688477E1,-3.937688828E0
3.560450062E0,2.348256350E0,-1.119930744E1,-5.208875656E0
3.570164020E0,1.419242978E0,-1.180977631E1,-4.050151348E0
3.579877197E0,1.045962572E0,-1.192253780E1,-1.747059584E0
3.589589593E0,2.331506491E0,-1.238435268E1,-3.382254839E0
3.599302875E0,3.394518137E0,-1.203978634E1,-5.213661671E0
3.609016833E0,2.659323215E0,-1.163510036E1,-4.861617565E0
3.618730010E0,6.939185858E-1,-1.146520996E1,-3.401397467E0
3.628442406E0,-2.519043922E0,-1.079731274E1,-6.433702111E-1
3.638155687E0,-3.914657831E0,-9.961619377E0,1.305284739E0
3.647869645E0,-3.194119215E0,-9.607182503E0,1.913659930E0
3.657582822E0,-1.980359793E0,-9.339186668E0,1.355833173E0
3.667295218E0,-1.444068432E0,-8.963214874E0,-1.021735311E0
3.677008395E0,-1.503889084E0,-8.896215439E0,-2.477169752E0
3.686722458E0,-1.606780410E0,-9.253045082E0,-1.282552958E0
3.696435635E0,-1.750349760E0,-9.399007797E0,8.362914920E-1
3.706148031E0,-2.430509567E0,-9.042177200E0,1.812862277E0
3.715861208E0,-3.139084101E0,-8.640183449E0,1.245464206E0
3.725575270E0,-2.942872763E0,-8.345566750E0,2.330010980E-1
3.735288447E0,-2.243570328E0,-8.134998322E0,-2.889333367E-1
3.745000843E0,-1.506281853E0,-8.132605553E0,-5.021936297E-1
3.754714020E0,-4.839483798E-1,-8.412566185E0,-7.749754190E-1
3.764428083E0,6.221339107E-1,-8.896215439E0,-6.337988973E-1
3.774141208E0,1.512562990E0,-9.427721024E0,-1.333998591E-1
3.783853656E0,2.096710920E0,-9.774979591E0,-1.136590727E-2
3.793566833E0,2.659323215E0,-9.980762482E0,-1.357926875E-1
3.803280895E0,2.341077805E0,-1.009322548E1,-5.204389244E-2
3.812994072E0,1.823929071E0,-1.020598698E1,2.210369855E-1
3.822706468E0,1.764108539E0,-1.032562828E1,3.382852972E-1
3.832419645E0,1.826321840E0,-1.035912704E1,4.845465720E-2
3.842133708E0,2.067996979E0,-1.034477043E1,-4.423730969E-1
3.851846885E0,2.233400822E0,-1.024187946E1,-6.984050870E-1
3.861559281E0,2.072782516E0,-1.008126068E1,-4.998008311E-1
3.871272458E0,1.697109461E0,-9.997511864E0,-1.794616925E-3
3.880986520E0,1.136889815E0,-9.849157333E0,2.736790776E-1
3.890699697E0,6.077769399E-1,-9.566504478E0,5.563312769E-2
3.900412093E0,5.335994363E-1,-9.365508080E0,-2.291127741E-1
3.910125270E0,8.542376757E-1,-9.327222824E0,-3.849453330E-1
3.919839333E0,1.144068360E0,-9.312865257E0,-4.304089844E-1
3.929552510E0,1.297209024E0,-9.336793900E0,-3.678964674E-1
3.939264906E0,1.359422326E0,-9.399007797E0,-2.410768867E-1
3.948978187E0,1.313958764E0,-9.475577354E0,-2.362912297E-1
3.958692145E0,1.244566917E0,-9.604789734E0,-1.764706671E-1
3.968405322E0,1.294816136E0,-9.399007797E0,-4.423730969E-1
3.978117718E0,1.134497046E0,-9.226723671E0,-6.936194897E-1
3.987831000E0,8.350951076E-1,-9.111868858E0,-6.936194897E-1
3.997544958E0,5.312066078E-1,-9.023035049E0,-7.342974544E-1
4.007258135E0,2.940180898E-1,-8.970393181E0,-9.065806866E-1
4.016970531E0,1.576271951E-1,-8.891429901E0,-1.237089276E0
4.026683812E0,3.705884218E-1,-8.979964256E0,-1.335195065E0
4.036397822E0,8.781659007E-1,-9.169296265E0,-1.244267821E0
4.046110947E0,1.077069283E0,-9.422935486E0,-9.475577474E-1
4.055823395E0,1.211067319E0,-9.770194054E0,-5.476573110E-1
4.065536572E0,1.301994562E0,-1.002144051E1,-4.136592150E-1
4.075250635E0,1.345065475E0,-1.010758209E1,-6.433702111E-1
4.084963812E0,1.349851131E0,-9.980762482E0,-7.558328509E-1
4.094676208E0,1.543669701E0,-9.820443153E0,-8.850452900E-1
4.104389489E0,1.428814173E0,-9.609575272E0,-7.247261405E-1
4.114103447E0,1.256531000E0,-9.444471359E0,-3.897309899E-1
4.123816625E0,1.184746265E0,-9.300901413E0,-4.710869491E-1
4.133529020E0,9.619147182E-1,-9.011071205E0,-8.994022012E-1
4.143242302E0,8.590233326E-1,-8.831609726E0,-1.198804140E0
4.152956312E0,1.122532964E0,-8.968000412E0,-8.946165442E-1
4.162669437E0,1.766501307E0,-9.537791252E0,3.287140131E-1
4.172381885E0,2.357827663E0,-1.004058266E1,1.951945066E0
4.182095062E0,2.841476917E0,-1.015543842E1,2.634198666E0
4.191809125E0,3.135794163E0,-1.001186943E1,2.306082726E0
4.201522302E0,3.183650494E0,-9.782157898E0,1.932802439E0
4.211234697E0,2.941975355E0,-9.710372925E0,1.535294771E0
4.220947979E0,2.367398977E0,-9.861121178E0,9.415757060E-1
4.230661989E0,1.352243900E0,-9.940084457E0,1.734796353E-2
4.240375114E0,-6.729813665E-2,-1.001186943E1,-6.601199508E-1
4.250087562E0,-9.819545746E-1,-1.025862885E1,-1.138983607E0
4.259800843E0,-1.051346421E0,-1.137667561E1,-1.031306505E0
4.269514802E0,-4.671986103E-1,-1.269811153E1,1.256231871E-2
4.279227979E0,6.005984545E-1,-1.384008598E1,3.170489892E-2
4.288940427E0,1.625324726E0,-1.426630783E1,-1.770987868E0
4.298653604E0,1.986641049E0,-1.421845150E1,-2.922533751E0
4.308367666E0,1.857428551E0,-1.412752438E1,-2.558525562E0
4.318080843E0,1.050748229E0,-1.399083424E1,-2.493919373E0
4.327793239E0,1.405783277E-2,-1.357209015E1,-2.963211775E0
4.337506520E0,-8.694919348E-1,-1.313390446E1,-4.270291328E0
4.347220531E0,-1.587637782E0,-1.281057453E1,-5.517848969E0
4.356933656E0,-2.128714800E0,-1.263589859E1,-5.869594097E0
4.366646104E0,-2.219642162E0,-1.257607746E1,-5.201697350E0
4.376359385E0,-2.171785593E0,-1.255693531E1,-4.483551502E0
4.386073343E0,-1.767099500E0,-1.280818176E1,-3.497110367E0
4.395786520E0,-1.058524966E0,-1.304297733E1,-1.869093537E0
4.405498968E0,-4.552344978E-1,-1.314586830E1,-5.955137610E-1
4.415212250E0,3.442673683E-1,-1.341865063E1,7.259225845E-1
4.424926260E0,1.380957723E0,-1.358883953E1,1.776969910E0
4.434639385E0,1.187139153E0,-1.344257832E1,2.567199707E0
4.444351833E0,5.216353536E-1,-1.293260860E1,2.772982359E0
4.454065114E0,-3.284149170E-1,-1.228624725E1,2.093121529E0
4.463779125E0,-1.377069473E0,-1.178584766E1,1.245464206E0
4.473492250E0,-2.059323072E0,-1.182652569E1,5.273182988E-1
4.483204697E0,-2.200499535E0,-1.167577839E1,9.535398483E-1
4.492917979E0,-1.661815286E0,-1.147238827E1,8.985049129E-1
4.502631989E0,-1.027418256E0,-1.113230801E1,-3.702892959E-1
4.512345114E0,-8.910273314E-1,-1.042851925E1,-1.988734722E0
4.522057562E0,-4.767699242E-1,-9.918548584E0,-3.085245609E0
4.531770843E0,-6.729813665E-2,-9.633803368E0,-3.125923634E0
4.541484854E0,-1.513460279E-1,-9.188439369E0,-2.762214661E0
4.551197979E0,-5.294119939E-2,-8.652147293E0,-2.199602127E0
4.560910427E0,-2.901297435E-2,-8.127820015E0,-1.586740494E0
4.570623708E0,-6.011966988E-2,-7.689634800E0,-8.706883192E-1
4.580337718E0,-1.609173268E-1,-7.129415035E0,-4.304089844E-1
4.590050895E0,-3.523431420E-1,-6.621837616E0,-4.663013220E-1
4.599763291E0,-6.203392744E-1,-6.071189404E0,-7.390831113E-1
4.609476572E0,-5.988038778E-1,-5.666502953E0,-8.395816684E-1
4.619190583E0,-4.336991012E-1,-5.400899887E0,-1.026520967E0
4.628903760E0,-3.643072546E-1,-5.283651352E0,-1.313659668E0
4.638616208E0,-2.614158690E-1,-4.981856823E0,-1.512562990E0
4.648329489E0,-1.752742529E-1,-5.000999451E0,-1.550848126E0
4.658043500E0,-3.140579760E-1,-5.115854740E0,-1.335195065E0
4.667756625E0,-6.514459848E-1,-5.226223946E0,-1.435693622E0
4.677469072E0,-1.120738268E0,-5.195116997E0,-1.718345761E0
4.687182354E0,-1.546959877E0,-5.132903576E0,-1.962413669E0
4.696896364E0,-1.738385677E0,-5.166403294E0,-2.142174482E0
4.706609541E0,-1.762313843E0,-5.211866856E0,-2.477169752E0
4.716321989E0,-1.733600020E0,-5.276473045E0,-3.293720484E0
4.726035270E0,-1.747956991E0,-5.398507118E0,-4.193720818E0
4.735749281E0,-1.815255046E0,-5.616253853E0,-5.158626556E0
4.745462458E0,-2.004287958E0,-5.863013744E0,-6.090032578E0
4.755174854E0,-2.210070848E0,-6.205187321E0,-6.779464722E0
4.764888135E0,-2.373081923E0,-6.705586433E0,-7.354041100E0
4.774602145E0,-2.375474691E0,-7.330412388E0,-7.995616913E0
4.784315322E0,-2.171785593E0,-7.866703510E0,-8.764012337E0
4.794027770E0,-1.590030670E0,-8.486743927E0,-8.934201241E0
4.803741052E0,-1.017846942E0,-9.181260109E0,-8.146365166E0
4.813455062E0,-2.973082066E-1,-9.832406998E0,-6.762714863E0
4.823168239E0,3.586242795E-1,-1.032562828E1,-5.668596745E0
4.832880687E0,8.925228715E-1,-1.050987530E1,-5.357230663E0
4.842593968E0,1.390529037E0,-1.057448101E1,-5.513063431E0
4.852307979E0,1.582253933E0,-1.055294609E1,-6.276672840E0
4.862021156E0,1.685145378E0,-1.039501953E1,-7.102495670E0
4.871733604E0,1.862214208E0,-1.029212856E1,-7.782655716E0
4.881446885E0,1.912463546E0,-1.038544846E1,-8.843274117E0
4.891160895E0,1.397707582E0,-1.103659534E1,-1.039681435E1
4.900874072E0,-6.227321029E-1,-1.156092262E1,-7.411468983E0
4.910586520E0,-1.724028707E0,-1.216421318E1,-4.131507397E0
4.920299802E0,-1.092024446E0,-1.279860973E1,-3.858725548E0
4.930013812E0,1.528415531E-1,-1.256411362E1,-4.708476543E0
4.939726989E0,7.728816867E-1,-1.183370399E1,-6.492026806E0
4.949439437E0,-2.327020019E-1,-1.049791145E1,-8.038687706E0
4.959152718E0,-3.395116329E0,-9.159725189E0,-5.682953835E0
4.968866729E0,-4.994419098E0,-8.190033913E0,-2.036591291E0
4.978579906E0,-4.216452599E0,-7.759026527E0,-5.667998791E-1
4.988292354E0,-2.997907639E0,-7.876275063E0,-9.041878581E-1
4.998005635E0,-2.162214279E0,-8.113463402E0,-1.445264935E0
5.007719697E0,-2.078465462E0,-8.331210136E0,-1.859522343E0
5.017432875E0,-2.327319145E0,-8.335995674E0,-1.529312730E0
5.027145270E0,-2.260320187E0,-8.479565620E0,-9.499505758E-1
5.036858604E0,-1.802991867E0,-8.597112656E0,-8.467600942E-1
5.046572614E0,-9.819545746E-1,-8.810073853E0,-1.119840980E0
5.056285791E0,1.073779166E-1,-9.300901413E0,-6.864410043E-1
5.065998239E0,1.148854017E0,-1.001665497E1,3.526422381E-1
5.075711520E0,2.336292267E0,-1.054098225E1,1.056431174E0
5.085425531E0,3.552444220E0,-1.078534889E1,1.099501967E0
5.095138708E0,4.538885593E0,-1.082602692E1,6.182455420E-1
5.104851156E0,4.706383228E0,-1.059840965E1,-3.768695518E-2
5.114564437E0,3.655335665E0,-1.012433147E1,-7.366902828E-1
5.124278500E0,1.807179332E0,-9.556933403E0,-1.232303619E0
5.133991677E0,1.959123611E-1,-9.138189316E0,-1.203589797E0
5.143704125E0,-7.642077208E-1,-9.162117958E0,-8.563314080E-1
5.153417406E0,-1.317248821E0,-9.317651749E0,-7.845467329E-1
5.163131416E0,-1.300499082E0,-9.544969559E0,-9.858429432E-1
5.172844593E0,-7.259225845E-1,-9.755837440E0,-1.174875975E0
5.182557093E0,1.097707376E-1,-9.880263329E0,-1.421336651E0
5.192270375E0,7.776673436E-1,-9.942477226E0,-1.641775489E0
5.201984385E0,1.385743380E0,-9.966405869E0,-1.660917997E0
5.211697562E0,1.649253011E0,-9.882657051E0,-1.485942841E0
5.221410010E0,1.709073544E0,-9.676874161E0,-1.313659668E0
5.231123343E0,1.649253011E0,-9.559326172E0,-1.057627559E0
5.240837354E0,1.582253933E0,-9.468399048E0,-9.690931439E-1
5.250550531E0,1.404886007E0,-9.351150513E0,-9.978070259E-1
5.260262979E0,1.158425212E0,-9.229117393E0,-1.071984529E0
5.269976260E0,1.067497969E0,-9.080761909E0,-1.289731383E0
5.279690322E0,8.111668825E-1,-8.972785950E0,-1.538884044E0
5.289403500E0,6.245267391E-1,-8.869894028E0,-1.541276932E0
5.299115947E0,4.618147612E-1,-8.778966904E0,-1.409372568E0
5.308829229E0,5.599204898E-1,-8.860322952E0,-1.112662554E0
5.318543291E0,9.571290612E-1,-9.027820587E0,-9.499505758E-1
5.328256468E0,1.201496124E0,-9.198010445E0,-9.667003751E-1
5.337968916E0,1.273280740E0,-9.308079720E0,-9.281160831E-1
5.347682250E0,1.299601793E0,-9.399007797E0,-8.802596331E-1
5.357396260E0,1.234995604E0,-9.420542717E0,-1.019342422E0
5.367109437E0,1.074676514E0,-9.334401131E0,-1.342373490E0
5.376821885E0,7.872386575E-1,-9.248259544E0,-1.454836130E0
5.386535218E0,4.618147612E-1,-9.257830620E0,-1.275374413E0
5.396249229E0,3.346960545E-1,-9.346364975E0,-1.000199914E0
5.405962406E0,4.304089844E-1,-9.549755096E0,-7.127620578E-1
5.415674906E0,6.005984545E-1,-9.681659698E0,-5.045864582E-1
5.425388187E0,1.160818100E0,-9.703194618E0,-6.194419861E-1
5.435102197E0,1.778465390E0,-9.655338287E0,-9.690931439E-1
5.444815479E0,2.247757673E0,-9.604789734E0,-1.253839016E0
5.454527875E0,2.345863581E0,-9.573683739E0,-1.380658627E0
5.464241156E0,2.161616087E0,-9.497113228E0,-1.083948612E0
5.473955218E0,1.570289850E0,-9.298508644E0,-5.476573110E-1
5.483668395E0,7.704889178E-1,-9.087940216E0,2.569293380E-1
5.493380843E0,1.408774406E-1,-9.023035049E0,1.085145116E0
5.503094177E0,-2.135594189E-1,-9.061619759E0,1.688435435E0
5.512808187E0,-3.284149170E-1,-9.104690552E0,1.755434513E0
5.522521468E0,-1.079761237E-1,-9.092725754E0,1.281356573E0
5.532233864E0,3.346960545E-1,-9.080761909E0,6.613163352E-1
5.541947145E0,8.638089895E-1,-9.394221306E0,2.976073027E-1
5.551661208E0,1.575075507E0,-9.961619377E0,6.421737671E-1
5.561374385E0,2.295614243E0,-1.047876835E1,1.097109199E0
5.571086833E0,2.733799934E0,-1.081645584E1,1.305284739E0
5.580800166E0,2.570788860E0,-1.099352455E1,1.022931695E0
5.590514177E0,2.360220432E0,-1.142453194E1,4.316053987E-1
5.600227458E0,2.429612398E0,-1.209242821E1,2.904288471E-1
5.609939854E0,1.756929994E0,-1.285843086E1,3.382852972E-1
5.619653187E0,9.332008362E-1,-1.353111267E1,3.813561201E-1
5.629367197E0,2.916252613E-1,-1.385204983E1,-5.237290859E-1
5.639080479E0,3.346960545E-1,-1.400519085E1,-2.228316069E0
5.648792875E0,3.251247704E-1,-1.412513161E1,-3.430111170E0
5.658506156E0,6.412764788E-1,-1.415145206E1,-3.913760424E0
5.668220218E0,1.117747307E0,-1.416580868E1,-3.109174013E0
5.677933500E0,1.301994562E0,-1.408654690E1,-1.546062589E0
5.687645895E0,1.256531000E0,-1.378505135E1,-1.296909928E0
5.697359229E0,1.060319543E0,-1.319611740E1,-2.257030010E0
5.707073239E0,4.160520434E-1,-1.246361542E1,-3.034996510E0
5.716786520E0,-2.422732860E-1,-1.173081303E1,-2.982354403E0
5.726498916E0,-9.508479238E-1,-1.113470078E1,-2.304886341E0
5.736212197E0,-1.511067510E0,-1.051944637E1,-1.351944804E0
5.745926260E0,-2.131107569E0,-1.008604622E1,-3.152543902E-1
5.755639541E0,-2.586043119E0,-9.796515465E0,8.721838593E-1
5.765351937E0,-2.535793781E0,-9.827621460E0,1.501795292E0
5.775065270E0,-2.281855583E0,-1.012672424E1,2.045265198E0
5.784779281E0,-1.482353687E0,-1.043330479E1,2.155334949E0
5.794492562E0,-3.451646566E-1,-1.061276627E1,1.109073281E0
5.804204958E0,6.795616150E-1,-1.063190937E1,3.933202326E-1
5.813918291E0,1.105783105E0,-1.088106155E1,-3.050848842E-2
5.823632354E0,1.563111424E0,-1.112512970E1,-2.626122832E-1
5.833345531E0,1.630110383E0,-1.138385391E1,-2.530409992E-1
5.843058031E0,1.524527073E0,-1.188185978E1,-1.022931710E-1
5.852771312E0,9.499505758E-1,-1.196800137E1,2.114657015E-1
5.862485375E0,-7.477570791E-3,-1.192014503E1,1.441675574E-1
5.872198656E0,-7.689933777E-1,-1.157049370E1,-2.841476798E-1
5.881911052E0,-9.628120065E-1,-1.104377365E1,-5.691927075E-1
5.891624385E0,-8.048857450E-1,-1.053380394E1,-8.443672657E-1
5.901338395E0,-3.355933726E-1,-9.968798637E0,-9.906286001E-1
5.911051677E0,3.705884218E-1,-9.444471359E0,-1.122233868E0
5.920764072E0,1.165603757E0,-8.927322388E0,-1.172483087E0
5.930477406E0,1.563111424E0,-8.379066467E0,-1.179661512E0
5.940191468E0,1.390529037E0,-7.787740231E0,-1.251446247E0
5.949904750E0,6.867401004E-1,-7.227520943E0,-1.112662554E0
5.959617145E0,-2.901297510E-1,-6.729514599E0,-9.329017401E-1
5.969330479E0,-1.087238789E0,-6.404090881E0,-8.946165442E-1
5.979044489E0,-1.824826360E0,-6.071189404E0,-9.352945685E-1
5.988757770E0,-2.100000858E0,-5.872584820E0,-9.714859724E-1
5.998470218E0,-1.872682810E0,-5.901299000E0,-9.427721500E-1
6.008183500E0,-1.549352646E0,-5.973083496E0,-9.113663435E-1
6.017897562E0,-1.237986565E0,-6.052046776E0,-8.156534433E-1
6.027610843E0,-9.771689177E-1,-6.066403389E0,-6.696912646E-1
6.037323291E0,-9.556335211E-1,-6.037689686E0,-6.361917257E-1
6.047036572E0,-1.065703392E0,-5.989833355E0,-7.031907439E-1
6.056750635E0,-1.159023523E0,-5.953940868E0,-8.539385796E-1
6.066463916E0,-1.278963685E0,-5.989833355E0,-1.009771109E0
6.076176312E0,-1.369890928E0,-6.162116528E0,-1.351944804E0
6.085889645E0,-1.372283816E0,-6.439982891E0,-1.596311808E0
6.095603708E0,-1.209272742E0,-6.729514599E0,-2.019841433E0
6.105316989E0,-9.699904919E-1,-7.052844524E0,-2.788535595E0
6.115029385E0,-9.317052960E-1,-7.277770042E0,-3.566502094E0
6.124742718E0,-9.795617461E-1,-7.529315472E0,-4.263112545E0
6.134456781E0,-1.029811025E0,-7.816454411E0,-5.204090118E0
6.144170062E0,-9.867402315E-1,-8.161319733E0,-6.552146435E0
6.153882458E0,-8.192426562E-1,-8.685647011E0,-8.893523216E0
6.163595791E0,-5.078766346E-1,-9.138189316E0,-1.093071270E1
6.173309854E0,1.169492081E-1,-9.822835922E0,-1.197697449E1
6.183023135E0,4.977070987E-1,-1.077577782E1,-1.133061314E1
6.192735531E0,7.417750359E-1,-1.163270760E1,-9.374779701E0
6.202448864E0,1.029212832E0,-1.245404339E1,-7.488039494E0
6.212162927E0,1.177567840E0,-1.308604813E1,-6.302993774E0
6.221876208E0,8.709874153E-1,-1.300229931E1,-6.087639809E0
6.231588656E0,5.072783828E-1,-1.234846020E1,-6.432206154E0
6.241301937E0,2.341975123E-1,-1.157288647E1,-6.604788780E0
6.251016000E0,1.719841212E-1,-1.116341496E1,-6.537490368E0
6.260729281E0,1.863410622E-1,-1.143410301E1,-6.884748936E0
6.270441729E0,-1.872383654E-1,-1.188185978E1,-3.530609846E0
6.280155062E0,-2.691925503E-3,-1.188664532E1,-5.548357368E-1
6.289869125E0,1.132104158E0,-1.185284710E1,-1.378265858E0
6.299582406E0,1.821536183E0,-1.093609715E1,-1.864308000E0
6.309294802E0,3.203391433E-1,-9.944869995E0,-2.048555374E0
6.319008135E0,-2.245963097E0,-8.929715157E0,-2.771785975E0
6.328722197E0,-5.173880577E0,-8.146963120E0,-2.115853310E0
6.338435479E0,-6.481259346E0,-7.948358536E0,-7.582256794E-1
6.348147927E0,-5.547460079E0,-8.343173981E0,4.220340848E-1
6.357861260E0,-3.117548704E0,-8.999106407E0,9.511470199E-1
6.367575322E0,-7.235297561E-1,-9.636196136E0,1.752742529E-1
6.377288604E0,6.460621357E-1,-9.954441071E0,-9.209375978E-1
6.387001000E0,5.335994363E-1,-1.007408237E1,-8.874381185E-1
6.396714333E0,1.145563871E-1,-1.006929684E1,3.598206937E-1
6.406428395E0,-3.164508045E-1,-1.011954594E1,1.382154226E0
6.416141677E0,-6.299105883E-1,-1.006451130E1,1.202393413E0
6.425854125E0,-5.174478889E-1,-9.992726326E0,8.721838593E-1
6.435567458E0,-8.883354068E-2,-9.868299484E0,7.764709592E-1
6.445281520E0,4.809573591E-1,-9.662516594E0,7.477570772E-1
6.454994802E0,1.029212832E0,-9.439684868E0,6.876373887E-1
6.464707250E0,1.471885085E0,-9.133403778E0,4.651049078E-1
6.474420583E0,1.570289850E0,-8.936893463E0,-5.922235921E-2
6.484134645E0,1.368993640E0,-8.831609726E0,-6.314060688E-1
6.493847927E0,1.297209024E0,-8.834002495E0,-1.050449133E0
6.503560375E0,1.371386528E0,-8.939286232E0,-1.117448211E0
6.513273708E0,1.371386528E0,-9.135796547E0,-9.379864931E-1
6.522987770E0,1.340279818E0,-9.387042999E0,-5.955137610E-1
6.532701052E0,1.402493119E0,-9.595218658E0,-3.702892959E-1
6.542413447E0,1.455135226E0,-9.794121742E0,-5.117649436E-1
6.552126833E0,1.206281662E0,-9.825228691E0,-7.462615371E-1
6.561840895E0,7.441678643E-1,-9.734301567E0,-8.252246976E-1
6.571554177E0,3.634099364E-1,-9.660123825E0,-1.002592683E0
6.581266625E0,1.648056656E-1,-9.652945518E0,-1.210768223E0
6.590979958E0,2.054836452E-1,-9.772586823E0,-1.194018483E0
6.600694020E0,5.120640397E-1,-9.839586258E0,-1.203589797E0
6.610407302E0,1.129711390E0,-9.897013664E0,-1.050449133E0
6.620119750E0,1.723430514E0,-9.882657051E0,-7.295117974E-1
6.629833083E0,1.974676847E0,-9.758230209E0,-5.620142221E-1
6.639547145E0,1.855035782E0,-9.645767212E0,-5.500500798E-1
6.649260427E0,1.354636669E0,-9.454042435E0,-4.686941206E-1
6.658972875E0,7.776673436E-1,-9.205188751E0,-4.878367186E-1
6.668686208E0,2.294118702E-1,-8.941679001E0,-5.021936297E-1
6.678400270E0,-8.883354068E-2,-8.714361191E0,-3.921238184E-1
6.688113552E0,-4.049852192E-1,-8.542078018E0,-3.152543902E-1
6.697826000E0,-4.624129832E-1,-8.558827400E0,-1.357926875E-1
6.707539333E0,-2.997010350E-1,-8.764610291E0,1.256231871E-2
6.717253395E0,1.193420291E-1,-9.042177200E0,-7.836493850E-2
6.726966677E0,6.029912829E-1,-9.317651749E0,-1.740778536E-1
6.736679125E0,9.738788009E-1,-9.621838570E0,-2.697907388E-1
6.746392458E0,1.148854017E0,-9.877870560E0,-5.524429083E-1
6.756106572E0,1.220638633E0,-1.000469017E1,-7.845467329E-1
6.765819854E0,1.177567840E0,-1.006929684E1,-8.946165442E-1
6.775532302E0,1.134497046E0,-1.001186943E1,-7.893323898E-1
6.785245635E0,9.451649189E-1,-9.918548584E0,-6.505486369E-1
6.794959697E0,7.800601721E-1,-9.899406433E0,-2.697907388E-1
6.804672979E0,8.255237937E-1,-9.808479309E0,6.999006122E-2
6.814385427E0,9.332008362E-1,-9.636196136E0,5.057829022E-1
6.824098760E0,9.930213690E-1,-9.437292099E0,7.115656137E-1
6.833812875E0,1.014855862E0,-9.116654396E0,2.545365095E-1
6.843526156E0,7.920243144E-1,-8.917751312E0,-3.050848842E-2
6.853238604E0,4.040879309E-1,-8.857930183E0,2.521436810E-1
6.862951937E0,2.222333997E-1,-8.901000977E0,7.788637877E-1
6.872666000E0,3.035893738E-1,-9.061619759E0,1.300499082E0
6.882379333E0,5.623133183E-1,-9.339186668E0,1.518545032E0
6.892091781E0,1.096211910E0,-9.758230209E0,1.688435435E0
6.901805114E0,1.826321840E0,-1.021795082E1,2.160120726E0
6.911519177E0,2.259721994E0,-1.052423191E1,2.428116798E0
6.921232458E0,2.329113722E0,-1.064148045E1,2.066800594E0
6.930944906E0,1.857428551E0,-1.071565819E1,1.068395257E0
6.940658291E0,1.388136268E0,-1.084756279E1,-1.716850251E-1
6.950372354E0,9.260223508E-1,-1.117537880E1,-9.834501147E-1
6.960085635E0,8.135597110E-1,-1.197996521E1,-1.522134304E0
6.969798083E0,1.089033365E0,-1.309083366E1,-1.725524187E0
6.979511416E0,1.500598907E0,-1.411316681E1,-1.155733347E0
6.989225531E0,1.931606054E0,-1.444816208E1,-7.486543655E-1
6.998938812E0,2.276471615E0,-1.415145206E1,-1.155733347E0
7.008651260E0,2.058425665E0,-1.362951756E1,-1.732702732E0
7.018364593E0,1.244566917E0,-1.326550961E1,-2.065604210E0
7.028078708E0,3.299104273E-1,-1.323440266E1,-1.780559182E0
7.037791989E0,-2.662015259E-1,-1.336600780E1,-1.138983607E0
7.047504437E0,-5.198407173E-1,-1.327747345E1,-1.272981644E0
7.057217770E0,-7.139584422E-1,-1.277707481E1,-2.414956331E0
7.066931885E0,-9.173483849E-1,-1.214985561E1,-3.420539856E0
7.076645166E0,-1.264606714E0,-1.135753250E1,-3.571287870E0
7.086357614E0,-1.539781332E0,-1.060798073E1,-2.996711254E0
7.096071000E0,-1.654636860E0,-1.006451130E1,-1.859522343E0
7.105785062E0,-1.702493310E0,-9.717552185E0,-8.563314080E-1
7.115498343E0,-1.487139225E0,-9.913763046E0,2.688934505E-1
7.125210791E0,-1.523031592E0,-1.026819992E1,1.305284739E0
7.134924177E0,-1.625923038E0,-1.054816055E1,2.011765718E0
7.144638239E0,-1.951645970E0,-1.078295612E1,2.246262312E0
7.154351572E0,-2.224427700E0,-1.109880829E1,2.100300074E0
7.164064020E0,-1.836790442E0,-1.142931747E1,1.916052699E0
7.173777354E0,-1.096810102E0,-1.163749313E1,1.731506228E0
7.183491468E0,6.879365072E-3,-1.171406364E1,1.465902925E0
7.193204750E0,1.026820064E0,-1.167577839E1,9.918249846E-1
7.202917197E0,1.749751568E0,-1.151306629E1,4.890331328E-1
7.212630531E0,2.300399780E0,-1.142213917E1,2.186441720E-1
7.222344645E0,2.348256350E0,-1.105813122E1,7.477571070E-2
7.232057927E0,1.733001828E0,-1.052901745E1,-5.955137610E-1
7.241770427E0,8.231309652E-1,-1.008126068E1,-1.390229940E0
7.251483760E0,8.105687052E-2,-9.643374443E0,-1.933699846E0
7.261197822E0,-1.800599098E-1,-9.288937569E0,-2.352742910E0
7.270911156E0,-2.685943544E-1,-9.066405296E0,-2.546561480E0
7.280623604E0,-3.212364316E-1,-8.886644363E0,-2.407777786E0
7.290336937E0,-1.561316848E-1,-8.810073853E0,-2.003091574E0
7.300051052E0,1.743769497E-1,-8.769395828E0,-1.536491275E0
7.309764333E0,4.761717021E-1,-8.776574135E0,-1.213161111E0
7.319476833E0,6.149554253E-1,-8.594719887E0,-8.395816684E-1
7.329190166E0,4.785645306E-1,-8.312067986E0,-7.701897621E-1
7.338904281E0,1.313061416E-1,-7.950751305E0,-9.882357717E-1
7.348617562E0,-2.374876440E-1,-7.634599686E0,-9.786644578E-1
7.358330010E0,-7.019943595E-1,-7.344769001E0,-8.467600942E-1
7.368043395E0,-1.216451168E0,-7.014559746E0,-6.888338327E-1
7.377757458E0,-1.716850281E0,-6.686443806E0,-5.620142221E-1
7.387470791E0,-1.839183331E0,-6.435197353E0,-3.559323549E-1
7.397183239E0,-1.747956991E0,-6.231508255E0,-1.668993831E-1
7.406896572E0,-1.745564103E0,-6.040082455E0,-5.922235921E-2
7.416610687E0,-1.738385677E0,-5.910870075E0,-8.973085321E-3
7.426323968E0,-1.920539260E0,-5.788836002E0,-7.597211748E-2
7.436036468E0,-2.107179403E0,-5.767300606E0,-4.782654345E-1
7.445749802E0,-2.241177559E0,-5.824728489E0,-1.229910851E0
7.455463916E0,-2.272284269E0,-5.906084538E0,-2.106282234E0
7.465177197E0,-2.265105724E0,-6.078367710E0,-2.460419893E0
7.474889697E0,-2.317747831E0,-6.279664040E0,-2.649751902E0
7.484603031E0,-2.351247311E0,-6.495018005E0,-3.353540897E0
7.494317145E0,-2.277069807E0,-6.818347931E0,-4.507479668E0
7.504030427E0,-2.147857428E0,-7.141379356E0,-5.879165173E0
7.513742927E0,-1.903789520E0,-7.589136124E0,-7.679764271E0
7.523456260E0,-1.613958836E0,-8.163712502E0,-9.834201813E0
7.533170375E0,-1.424925923E0,-8.896215439E0,-1.077039337E1
7.542883656E0,-1.372283816E0,-9.880263329E0,-1.039920712E1
7.552596156E0,-1.298106313E0,-1.120170021E1,-9.051449776E0
7.562309489E0,-3.978067636E-1,-1.262393379E1,-7.667500973E0
7.572023604E0,1.096211910E0,-1.378983688E1,-6.755536556E0
7.581736885E0,2.374577284E0,-1.431416416E1,-6.427420616E0
7.591449385E0,2.764906645E0,-1.398126316E1,-6.925426960E0
7.601162718E0,2.142473459E0,-1.292064381E1,-7.645965576E0
7.610876833E0,1.337886930E0,-1.174277687E1,-7.794619560E0
7.620590166E0,8.662018180E-1,-1.098873901E1,-6.678966045E0
7.630302614E0,8.015955687E-1,-1.115862942E1,-6.784250259E0
7.640015947E0,-2.350948304E-1,-1.158963680E1,-4.124329090E0
7.649730062E0,-7.307082415E-1,-1.155374432E1,-6.792625189E-1
7.659443395E0,4.450650215E-1,-1.161835003E1,-7.342974544E-1
7.669155843E0,1.689931035E0,-1.159681511E1,-2.371885538E0
7.678869229E0,2.022533417E0,-1.099591732E1,-4.304089546E0
7.688583343E0,9.475577474E-1,-1.048833942E1,-4.395017147E0
7.698296625E0,-2.150250196E0,-1.004058266E1,-1.342373490E0
7.708009125E0,-4.053740501E0,-9.363115311E0,7.043871880E-1
7.717722458E0,-3.498306751E0,-8.965607643E0,8.243274093E-1
7.727436572E0,-2.133500576E0,-9.032606125E0,7.884350419E-1
7.737149906E0,-1.001097202E0,-9.272188187E0,5.679962635E-1
7.746862354E0,-7.881359458E-1,-9.255437851E0,-3.777668774E-1
7.756575739E0,-1.391426325E0,-9.183652878E0,-3.511467278E-1
7.766289802E0,-1.942074656E0,-9.111868858E0,3.215355575E-1
7.776003135E0,-2.135893345E0,-8.936893463E0,7.354938388E-1
7.785715583E0,-2.162214279E0,-8.747860909E0,7.043871880E-1
7.795428968E0,-2.028216362E0,-8.537292480E0,1.680957973E-1
7.805143083E0,-1.657029629E0,-8.407780647E0,4.127619043E-2
7.814856416E0,-1.118345499E0,-8.326424599E0,4.555336237E-1
7.824568864E0,-2.231307179E-1,-8.513363838E0,8.961120844E-1
7.834282250E0,7.992027402E-1,-8.755039215E0,8.315058947E-1
7.843996312E0,1.905285001E0,-9.073583603E0,2.162513435E-1
7.853709645E0,2.618645191E0,-9.284152031E0,-6.816553473E-1
7.863422145E0,2.762513638E0,-9.544969559E0,-1.275374413E0
7.873135479E0,2.369791746E0,-9.813264847E0,-1.232303619E0
7.882849593E0,1.699502230E0,-1.005733299E1,-7.462615371E-1
7.892562927E0,1.103390336E0,-1.016979504E1,-3.032902777E-1
7.902275375E0,6.269195080E-1,-1.008843899E1,-1.070788130E-1
7.911988760E0,5.288137794E-1,-1.003101158E1,-9.990034252E-2
7.921702875E0,9.284151793E-1,-9.964012146E0,-1.142572835E-1
7.931416208E0,1.392921925E0,-9.851550102E0,-2.147558331E-1
7.941128656E0,1.809572101E0,-9.755837440E0,-5.189434290E-1
7.950842041E0,1.957927108E0,-9.631410599E0,-7.654041648E-1
7.960556156E0,1.883749604E0,-9.542576790E0,-6.864410043E-1
7.970269489E0,1.632503271E0,-9.482755661E0,-5.476573110E-1
7.979981937E0,1.349851131E0,-9.365508080E0,-4.040879309E-1
7.989695322E0,9.762716293E-1,-9.231510162E0,-2.889333367E-1
7.999409437E0,7.848458290E-1,-9.078369141E0,-1.716850251E-1
8.009122718E0,1.203888893E0,-9.157332420E0,-5.443671346E-2
8.018835218E0,1.421635747E0,-9.190832138E0,-6.400800496E-2
8.028548604E0,9.762716293E-1,-9.186046600E0,-1.980060786E-1
8.038262718E0,5.623133183E-1,-9.166903496E0,-5.931209326E-1
8.047976000E0,2.270190418E-1,-9.027820587E0,-1.093519926E0
8.057688500E0,1.001994461E-1,-8.989535332E0,-1.447657704E0
8.067401885E0,1.025922745E-1,-9.116654396E0,-1.445264935E0
8.077116000E0,1.767697781E-1,-9.394221306E0,-1.150947690E0
8.086829281E0,2.485544533E-1,-9.684052467E0,-7.630113363E-1
8.096541781E0,3.155534863E-1,-9.923335075E0,-3.726821244E-1
8.106255166E0,3.251247704E-1,-1.001904774E1,-4.007977992E-2
8.115969281E0,2.988037169E-1,-9.861121178E0,4.845465720E-2
8.125682562E0,2.413759828E-1,-9.679266930E0,-3.529413417E-2
8.135395062E0,7.866404206E-2,-9.451649666E0,-2.315055877E-1
8.145108447E0,-9.840483218E-2,-9.061619759E0,-6.720840335E-1
8.154822562E0,-6.490531564E-2,-8.793324471E0,-9.475577474E-1
8.164535895E0,4.277170449E-2,-8.594719887E0,-9.427721500E-1
8.174248343E0,1.145563871E-1,-8.566005707E0,-6.936194897E-1
8.183961729E0,5.527420044E-1,-8.685647011E0,-2.889333367E-1
8.193675843E0,1.127318621E0,-8.709575653E0,2.018944174E-1
8.203389177E0,1.627717614E0,-8.889037132E0,5.799604058E-1
8.213101677E0,2.000998020E0,-9.142974854E0,1.080359459E0
8.222815010E0,2.185544491E0,-9.568898201E0,1.695613980E0
8.232529125E0,2.226222277E0,-1.012433147E1,2.265404940E0
8.242242458E0,2.324328184E0,-1.063190937E1,2.504986286E0
8.251954958E0,2.460718870E0,-1.082124138E1,2.241476536E0
8.261668343E0,2.525325298E0,-1.082363415E1,1.585544109E0
8.271382458E0,2.405683994E0,-1.071326542E1,1.018146038E0
8.281095791E0,2.079961061E0,-1.067737293E1,8.745766878E-1
8.290808239E0,1.529312730E0,-1.083799076E1,7.426723242E-1
8.300521625E0,8.327022791E-1,-1.108923721E1,2.808575630E-1
8.310235739E0,1.169492081E-1,-1.116820049E1,-2.745763958E-1
8.319949072E0,-2.350948304E-1,-1.146760273E1,-9.571290612E-1
8.329661572E0,-2.087737769E-1,-1.210678482E1,-1.617847204E0
8.339374958E0,-5.294119939E-2,-1.289910889E1,-1.383051515E0
8.349089072E0,3.993022740E-1,-1.345932865E1,-6.218347549E-1
8.358802406E0,1.093819022E0,-1.368455315E1,-8.347960114E-1
8.368514854E0,1.737787485E0,-1.379462242E1,-1.426122308E0
8.378228239E0,1.728216171E0,-1.384247875E1,-1.452443361E0
8.387942354E0,1.033998489E0,-1.398126316E1,-1.696810365E0
8.397655687E0,2.246262282E-1,-1.404108334E1,-1.682453394E0
8.407368187E0,-5.270192027E-1,-1.392622757E1,-1.713560104E0
8.417081572E0,-1.115952611E0,-1.356730461E1,-2.417349100E0
8.426795687E0,-1.578066587E0,-1.304776287E1,-2.944069147E0
8.436509020E0,-1.949253201E0,-1.240110207E1,-2.716751099E0
8.446221520E0,-2.183749676E0,-1.171884918E1,-2.038984060E0
8.455934906E0,-2.253141642E0,-1.103659534E1,-1.083948612E0
8.465649020E0,-2.200499535E0,-1.049312592E1,3.409772366E-2
8.475362354E0,-2.009073734E0,-1.003818989E1,9.846464992E-1
8.485074802E0,-1.755135417E0,-9.782157898E0,1.302891970E0
8.494788187E0,-1.444068432E0,-9.739087105E0,1.575972795E0
8.504502354E0,-1.255035520E0,-9.956833839E0,2.006979942E0
8.514215635E0,-1.053739309E0,-1.033759212E1,2.507379055E0
8.523928135E0,-5.605186820E-1,-1.054337502E1,2.548057079E0
8.533641520E0,9.302098304E-2,-1.087627602E1,2.306082726E0
8.543355635E0,2.868396044E-1,-1.096720314E1,1.855933070E0
8.553068968E0,4.713860750E-1,-1.120409298E1,1.278963685E0
8.562781468E0,4.112663865E-1,-1.129980564E1,6.661019921E-1
8.572494854E0,-7.447660714E-2,-1.123041439E1,9.152546525E-2
8.582208968E0,-3.092723191E-1,-1.106291676E1,-4.878367186E-1
8.591922302E0,-4.049852192E-1,-1.069890785E1,-1.088734269E0
8.601634802E0,-2.901297510E-1,-1.027537823E1,-1.622632861E0
8.611348187E0,-1.393819153E-1,-9.827621460E0,-1.888236165E0
8.621062302E0,4.037888348E-2,-9.504291534E0,-1.797308922E0
8.630775635E0,1.528415531E-1,-9.190832138E0,-1.605883121E0
8.640488135E0,3.131606579E-1,-8.927322388E0,-1.481157184E0
8.650201520E0,4.064807594E-1,-8.745467186E0,-1.160519004E0
8.659915635E0,5.479564071E-1,-8.666504860E0,-6.553342938E-1
8.669628968E0,3.610171080E-1,-8.462815285E0,-2.626122832E-1
8.679341468E0,-2.135594189E-1,-8.118248940E0,-8.315058798E-2
8.689054854E0,-7.761718631E-1,-7.680063248E0,-9.032905847E-2
8.698769020E0,-1.216451168E0,-7.323233604E0,-1.764706671E-1
8.708482302E0,-1.441675663E0,-6.985845566E0,-2.937189937E-1
8.718194802E0,-1.573280931E0,-6.657730103E0,-4.974080026E-1
8.727908187E0,-1.587637782E0,-6.372983932E0,-5.644070506E-1
8.737622354E0,-1.477568030E0,-6.183651924E0,-5.237290859E-1
8.747335687E0,-1.307677627E0,-6.116652966E0,-5.069792867E-1
8.757048187E0,-1.271785259E0,-6.073582172E0,-4.998008311E-1
8.766761572E0,-1.429711580E0,-6.042475224E0,-6.314060688E-1
8.776475687E0,-1.695314884E0,-5.997011662E0,-9.113663435E-1
8.786189020E0,-1.968395710E0,-6.013761520E0,-1.129412293E0
8.795901520E0,-2.143071890E0,-6.080760479E0,-1.361516118E0
8.805614906E0,-2.238784790E0,-6.183651924E0,-1.718345761E0
8.815329020E0,-2.253141642E0,-6.363412857E0,-2.158924341E0
8.825042354E0,-2.025823355E0,-6.681658268E0,-2.594418049E0
8.834754854E0,-1.539781332E0,-7.119843960E0,-3.092424154E0
8.844468239E0,-1.125523925E0,-7.538887024E0,-3.763012648E0
8.854182406E0,-9.460622668E-1,-7.883453369E0,-4.730011940E0
8.863895739E0,-8.479565382E-1,-8.204390526E0,-5.843272686E0
8.873608239E0,-7.067800164E-1,-8.611469269E0,-7.188936710E0
8.883321625E0,-5.006981492E-1,-9.114261627E0,-8.539086342E0
8.893035739E0,-3.260220885E-1,-9.825228691E0,-9.017950058E0
8.902749072E0,-8.165507019E-2,-1.070847988E1,-8.941379547E0
8.912461572E0,3.131606579E-1,-1.152742290E1,-8.254341125E0
8.922174958E0,7.441678643E-1,-1.230538940E1,-7.557431221E0
8.931889072E0,1.163210869E0,-1.280818176E1,-6.970890522E0
8.941602406E0,1.447956800E0,-1.298525047E1,-6.700501442E0
8.951314958E0,1.313958764E0,-1.268854046E1,-6.664609432E0
8.961028343E0,8.685946465E-1,-1.210199928E1,-6.580860615E0
8.970742458E0,3.658027649E-1,-1.145085239E1,-5.907878876E0
8.980455791E0,1.624128371E-1,-1.088584709E1,-5.338088036E0
8.990168291E0,2.724826932E-1,-1.054337502E1,-5.043771267E0
8.999881677E0,1.887338907E-1,-1.087149048E1,-4.308875561E0
9.009595791E0,-8.694919348E-1,-1.113948631E1,-1.277767301E0
9.019309177E0,-8.168498278E-1,-1.127587795E1,-7.630113363E-1
9.029021677E0,4.977070987E-1,-1.132881927E1,-2.139781713E0
9.038735062E0,8.901300430E-1,-1.094566822E1,-2.469991207E0
9.048449177E0,3.275175989E-1,-1.029691410E1,-3.782155275E0
9.058162510E0,-1.096810102E0,-9.463613510E0,-4.548157692E0
9.067875010E0,-3.340081215E0,-9.030213356E0,-2.795714140E0
9.077588395E0,-4.187738895E0,-8.819644928E0,-8.324031830E-1
9.087302562E0,-2.997907639E0,-8.927322388E0,5.129613280E-1
9.097015895E0,-1.475175142E0,-9.253045082E0,1.099501967E0
9.106728395E0,-2.829512656E-1,-9.422935486E0,7.645068169E-1
9.116441781E0,1.073779166E-1,-9.241081238E0,-2.650051117E-1
9.126155895E0,-3.882354796E-1,-8.805288315E0,-1.740778536E-1
9.135869229E0,-1.194915771E0,-8.561220169E0,6.373881102E-1
9.145581729E0,-2.138286114E0,-8.280961037E0,6.493522525E-1
9.155295166E0,-2.775076151E0,-8.125427246E0,-9.511470050E-2
9.165009281E0,-2.562114954E0,-8.414958954E0,-6.026921868E-1
9.174722614E0,-1.618744493E0,-8.889037132E0,-5.922235921E-2
9.184435114E0,-5.437689424E-1,-9.439684868E0,6.326025128E-1
9.194148500E0,6.532405615E-1,-9.987940788E0,8.003991842E-1
9.203862614E0,1.756929994E0,-1.032562828E1,3.981058598E-1
9.213576000E0,2.436790705E0,-1.047637558E1,-2.003988922E-1
9.223288500E0,2.384148598E0,-1.046680450E1,-5.380859971E-1
9.233001885E0,1.699502230E0,-1.030409241E1,-5.333003402E-1
9.242716000E0,1.024427176E0,-1.017697334E1,-4.950151742E-1
9.252429333E0,4.833501875E-1,-1.012433147E1,-5.907281041E-1
9.262141833E0,4.474578202E-1,-1.009322548E1,-7.414759398E-1
9.271855218E0,9.212366939E-1,-1.011236763E1,-1.038485050E0
9.281569385E0,1.524527073E0,-1.019402313E1,-1.342373490E0
9.291282718E0,1.874178290E0,-1.020837975E1,-1.349551916E0
9.300995218E0,1.989033818E0,-1.017458057E1,-1.107876897E0
9.310708604E0,1.977069736E0,-1.013629627E1,-8.156534433E-1
9.320422718E0,1.766501307E0,-1.001186943E1,-4.495515525E-1
9.330136104E0,1.385743380E0,-9.755837440E0,-1.621137410E-1
9.339848604E0,1.072283626E0,-9.454042435E0,2.213360928E-2
9.349561989E0,9.834501147E-1,-9.176474571E0,3.382852972E-1
9.359276104E0,9.954141974E-1,-8.970393181E0,4.220340848E-1
9.368989437E0,1.079462171E0,-8.855537415E0,1.561316848E-1
9.378701937E0,1.184746265E0,-8.905786514E0,-3.702892959E-1
9.388415322E0,1.278066397E0,-8.948857307E0,-7.821539044E-1
9.398129489E0,1.089033365E0,-9.020642281E0,-1.062413216E0
9.407842822E0,7.992027402E-1,-9.202795982E0,-1.002592683E0
9.417555322E0,6.484549642E-1,-9.253045082E0,-9.954141974E-1
9.427268708E0,5.982056856E-1,-9.241081238E0,-9.161519408E-1
9.436982822E0,6.173482537E-1,-9.288937569E0,-9.786644578E-1
9.446696156E0,5.048855543E-1,-9.298508644E0,-1.117448211E0
9.456408656E0,5.431707501E-1,-9.363115311E0,-1.287338614E0
9.466122093E0,6.987041831E-1,-9.456435204E0,-1.395015597E0
9.475836208E0,8.111668825E-1,-9.559326172E0,-1.217946768E0
9.485549541E0,8.446664214E-1,-9.619445801E0,-9.523434043E-1
9.495262041E0,8.135597110E-1,-9.636196136E0,-7.893323898E-1
9.504975427E0,6.747759581E-1,-9.578469276E0,-6.720840335E-1
9.514689541E0,5.096712112E-1,-9.463613510E0,-5.644070506E-1
9.524402927E0,5.575276613E-1,-9.320044518E0,-6.864410043E-1
9.534115427E0,7.393822074E-1,-9.217152596E0,-8.874381185E-1
9.543828812E0,8.709874153E-1,-9.195617676E0,-7.079764009E-1
9.553542927E0,9.260223508E-1,-9.267401695E0,-3.320041299E-1
9.563256260E0,9.068797827E-1,-9.279366493E0,2.213360928E-2
9.572968760E0,9.068797827E-1,-9.176474571E0,1.082752272E-1
9.582682145E0,1.022034407E0,-9.066405296E0,1.154536903E-1
9.592396312E0,1.309173107E0,-9.109476089E0,-3.529413417E-2
9.602109645E0,1.766501307E0,-9.279366493E0,5.084748194E-2
9.611822145E0,2.084746838E0,-9.513862610E0,6.469594240E-1
9.621535531E0,2.147259235E0,-9.669695854E0,1.434796333E0
9.631249645E0,2.195115566E0,-9.782157898E0,1.923231244E0
9.640962979E0,2.204686880E0,-9.904191971E0,2.093121529E0
9.650675479E0,2.338685036E0,-1.016979504E1,2.078764677E0
9.660388864E0,2.443969250E0,-1.037587738E1,1.853540182E0
9.670102979E0,2.333899498E0,-1.045962620E1,1.178465128E0
9.679816364E0,1.555633783E0,-1.031844902E1,-8.973085321E-3
9.689528812E0,3.801597059E-1,-9.999904633E0,-1.363908887E0
9.699242197E0,-7.857431173E-1,-9.810872078E0,-2.091925144E0
9.708956364E0,-1.305284739E0,-1.033998489E1,-1.703988791E0
9.718669697E0,-9.532406926E-1,-1.158006477E1,-6.936194897E-1
9.728382197E0,8.105687052E-2,-1.269571877E1,2.952145040E-1
9.738095583E0,1.538884044E0,-1.346650696E1,2.449652255E-1
9.747809697E0,2.594717026E0,-1.404586887E1,-3.825525343E-1
9.757523031E0,2.501396894E0,-1.425673676E1,-9.475577474E-1
9.767235531E0,1.483849168E0,-1.402433395E1,-1.962413669E0
9.776948916E0,1.983051747E-1,-1.371087360E1,-3.013461113E0
9.786663083E0,-7.977072597E-1,-1.336122227E1,-3.157030344E0
9.796376416E0,-1.283749342E0,-1.298046494E1,-2.829213619E0
9.806088864E0,-1.357926846E0,-1.250668621E1,-3.334398270E0
9.815802302E0,-1.001097202E0,-1.217139149E1,-3.880260944E0
9.825516416E0,-6.562315822E-1,-1.211635685E1,-4.160221100E0
9.835229750E0,-6.035895348E-1,-1.203739357E1,-4.047758579E0
9.844942250E0,-6.948158741E-1,-1.176670551E1,-2.714358091E0
9.854655635E0,-6.753742099E-1,-1.166381359E1,-8.946165442E-1
9.864369750E0,-9.245268703E-1,-1.136710358E1,8.650053740E-1
9.874083083E0,-1.298106313E0,-1.095284653E1,1.944766641E0
9.883795583E0,-1.527817249E0,-1.045962620E1,1.947159410E0
9.893508968E0,-1.872682810E0,-1.010279655E1,1.532902002E0
9.903223083E0,-2.135893345E0,-1.012672424E1,1.250249863E0
9.912936416E0,-2.176571369E0,-1.016022396E1,9.774680734E-1
9.922648916E0,-2.169392824E0,-1.016500950E1,1.231107235E0
9.932362302E0,-1.966002941E0,-1.015304565E1,1.391725421E0
9.942076468E0,-1.494317770E0,-1.005015373E1,1.209571838E0
9.951789802E0,-1.255035520E0,-9.901799202E0,8.027920127E-1
9.961502250E0,-7.091727853E-1,-1.002144051E1,2.213360928E-2
9.971215635E0,3.729812205E-1,-1.046680450E1,-8.228318691E-1
9.980929802E0,1.541276932E0,-1.094327545E1,-1.127019525E0
9.990643135E0,1.804786444E0,-1.118973637E1,-1.584347725E0
1.000035558E1,1.419242978E0,-1.106052399E1,-1.981556296E0
1.001006902E1,4.328017831E-1,-1.056730270E1,-2.273779631E0
1.001978314E1,-6.011967063E-1,-1.001186943E1,-2.367099762E0
1.002949647E1,-1.199701428E0,-9.561718941E0,-2.302493572E0
1.003920897E1,-1.190130115E0,-9.154939651E0,-2.190030813E0
1.004892235E1,-8.144569993E-1,-8.778966904E0,-2.005484581E0
1.005863647E1,-2.183450609E-1,-8.527720451E0,-1.718345761E0
1.006834980E1,1.432702541E-1,-8.300103188E0,-1.332802176E0
1.007806230E1,3.418745399E-1,-8.048856735E0,-7.558328509E-1
1.008777569E1,1.959123611E-1,-7.696813107E0,-4.543372095E-1
1.009748980E1,-7.447660714E-2,-7.301698208E0,-5.333003402E-1
1.010720314E1,-3.523431420E-1,-6.892525673E0,-6.888338327E-1
1.011691558E1,-7.019943595E-1,-6.552445889E0,-9.161519408E-1
1.012662902E1,-1.111167073E0,-6.265306950E0,-1.007378340E0
1.013634314E1,-1.520638824E0,-6.047261238E0,-1.155733347E0
1.014605647E1,-1.719243050E0,-5.925227165E0,-1.402194023E0
1.015576892E1,-1.894218206E0,-5.946762562E0,-1.536491275E0
1.016548230E1,-2.104786634E0,-6.040082455E0,-1.639382601E0
1.017519642E1,-2.286641121E0,-6.111867428E0,-1.653739572E0
1.018490975E1,-2.329711914E0,-6.159723759E0,-1.641775489E0
1.019462225E1,-2.128714800E0,-6.238687038E0,-1.677667737E0
1.020433564E1,-1.932503343E0,-6.298806667E0,-1.936092615E0
1.021404975E1,-1.697707653E0,-6.392126560E0,-2.633002281E0
1.022376308E1,-1.513460279E0,-6.504589081E0,-3.348755360E0
1.023347558E1,-1.173380375E0,-6.693622112E0,-3.669393539E0
1.024318897E1,-1.113559842E0,-6.885347366E0,-4.105186462E0
1.025290308E1,-1.300499082E0,-7.019345284E0,-4.981557846E0
1.026261642E1,-1.745564103E0,-7.189235687E0,-5.740381718E0
1.027232892E1,-2.260320187E0,-7.486244678E0,-6.738786697E0
1.028204230E1,-2.600399971E0,-8.005785942E0,-7.806583881E0
1.029175642E1,-2.547757864E0,-8.810073853E0,-8.898308754E0
1.030146975E1,-1.875075698E0,-9.841979027E0,-9.468100548E0
1.031118220E1,-7.259225845E-1,-1.093370438E1,-9.175876617E0
1.032089558E1,6.125625968E-1,-1.192253780E1,-8.100900650E0
1.033060970E1,1.491027594E0,-1.274118233E1,-7.435397148E0
1.034032303E1,1.866999865E0,-1.288475132E1,-7.313363075E0
1.035003553E1,1.730608940E0,-1.227667522E1,-7.215257645E0
1.035974892E1,1.395314693E0,-1.148435211E1,-6.997211456E0
1.036946303E1,9.786644578E-1,-1.078774166E1,-6.602396011E0
1.037917636E1,5.599204898E-1,-1.025862885E1,-5.893522263E0
1.038888886E1,-1.704886183E-2,-1.077577782E1,-5.177769184E0
1.039860220E1,-8.670991063E-1,-1.114427280E1,-2.038984060E0
1.040831631E1,-1.015454054E0,-1.128066349E1,-3.176472187E-1
1.041802964E1,2.700898647E-1,-1.156331539E1,-1.416550994E0
1.042774214E1,2.190330029E0,-1.128784180E1,-4.045365810E0
1.043745553E1,3.241078377E0,-1.086431217E1,-6.856035233E0
1.044716964E1,2.807977438E0,-1.079731274E1,-7.545466900E0
1.045688298E1,-1.992024779E-1,-1.074945641E1,-4.445266247E0
1.046659543E1,-2.849253654E0,-1.019402313E1,-2.271386862E0
1.047630881E1,-3.332902908E0,-9.619445801E0,-6.194419861E-1
1.048602293E1,-3.093620539E0,-9.365508080E0,2.349153519E0
1.049573626E1,-2.360818624E0,-9.152546883E0,3.081955671E0
1.050544876E1,-1.999502420E0,-8.683254242E0,8.937192559E-1
1.051516215E1,-2.073679924E0,-8.067999840E0,-1.694417477E0
1.052487626E1,-2.700898647E0,-7.486244678E0,-1.916949987E0
1.053458959E1,-3.634697676E0,-7.155735970E0,-1.299302697E0
1.054430204E1,-4.319344044E0,-7.435995579E0,-7.031907439E-1
1.055401543E1,-3.701696634E0,-8.168498039E0,3.047857881E-1
1.056372954E1,-1.623530149E0,-9.107083321E0,1.441974759E0
1.057344288E1,5.168496966E-1,-9.949655533E0,1.822433591E0
1.058315532E1,2.082353830E0,-1.036151981E1,1.032503009E0
1.059286871E1,3.013760090E0,-1.041655540E1,-1.310070455E-1
1.060258282E1,3.341876030E0,-1.045005512E1,-6.960122585E-1
1.061229616E1,2.941975355E0,-1.035434151E1,-6.505486369E-1
1.062200866E1,2.264507532E0,-1.030169964E1,-3.873381615E-1
1.063172199E1,1.625324726E0,-1.043091202E1,-3.104687333E-1
1.064143610E1,1.309173107E0,-1.063190937E1,-5.452644825E-1
1.065114944E1,1.225424290E0,-1.073240757E1,-1.153340459E0
1.066086194E1,1.268495083E0,-1.067737293E1,-1.569990754E0
1.067057532E1,1.357029557E0,-1.056490993E1,-1.723131418E0
1.068028938E1,1.371386528E0,-1.041894817E1,-1.754238129E0
1.069000272E1,1.287637711E0,-1.022034359E1,-1.325623751E0
1.069971522E1,1.084247708E0,-9.997511864E0,-7.079764009E-1
1.070942860E1,8.422735929E-1,-9.796515465E0,-2.195414752E-1
1.071914267E1,6.867401004E-1,-9.504291534E0,2.991028363E-3
1.072885600E1,4.857429862E-1,-9.083154678E0,5.084748194E-2
1.073856850E1,3.203391433E-1,-8.707182884E0,-1.333998591E-1
1.074828188E1,4.112663865E-1,-8.527720451E0,-3.032902777E-1
1.075799600E1,6.508477330E-1,-8.542078018E0,-4.710869491E-1
1.076770928E1,8.159525394E-1,-8.656932831E0,-5.356931686E-1
1.077742178E1,1.007677436E0,-8.874680519E0,-4.375874400E-1
1.078713511E1,1.230209947E0,-8.996713638E0,-2.697907388E-1
1.079684923E1,1.433599830E0,-9.150154114E0,-2.913261652E-1
1.080656256E1,1.656431437E0,-9.257830620E0,-3.296113312E-1
1.081627506E1,1.797608018E0,-9.193224907E0,-4.926223755E-1
1.082598840E1,1.651645780E0,-9.193224907E0,-5.691927075E-1
1.083570251E1,1.055533886E0,-9.171689034E0,-5.404788256E-1
1.084541584E1,3.442673683E-1,-9.102297783E0,-7.295117974E-1
1.085512834E1,-6.729813665E-2,-9.073583603E0,-9.786644578E-1
1.086484168E1,-2.422732860E-1,-9.087940216E0,-1.174875975E0
1.087455579E1,-1.848455518E-1,-9.198010445E0,-1.328016520E0
1.088426913E1,8.823533356E-2,-9.367900848E0,-1.560419440E0
1.089398157E1,4.040879309E-1,-9.600004196E0,-1.653739572E0
1.090369496E1,7.920243144E-1,-9.916155815E0,-1.253839016E0
1.091340907E1,1.194317579E0,-1.018445110E1,-7.989036441E-1
1.092312241E1,1.378564954E0,-1.032802105E1,-3.200400174E-1
1.093283485E1,1.404886007E0,-1.028016472E1,5.563312769E-2
1.094254824E1,1.610967875E0,-1.005733299E1,-2.578266263E-1
1.095226235E1,1.802393675E0,-9.669695854E0,-9.281160831E-1
1.096197564E1,1.814357758E0,-9.205188751E0,-1.546062589E0
1.097168814E1,1.620539188E0,-8.829216003E0,-1.871486425E0
1.098140147E1,1.282852054E0,-8.592327118E0,-1.794916034E0
1.099111558E1,9.667003751E-1,-8.580363274E0,-1.203589797E0
1.100082892E1,9.020941257E-1,-8.743074417E0,-1.357926875E-1
1.101054136E1,1.048355460E0,-9.099904060E0,1.250249863E0
1.102025475E1,1.234995604E0,-9.578469276E0,2.588735104E0
1.102996886E1,1.352243900E0,-9.834799767E0,3.146561861E0
1.103968220E1,1.706680775E0,-1.000708294E1,2.627020121E0
1.104939465E1,1.938784599E0,-1.011476040E1,1.497009635E0
1.105910803E1,2.132902384E0,-1.017458057E1,4.148556292E-1
1.106882209E1,2.087139606E0,-1.025862885E1,-3.726821244E-1
1.107853543E1,1.651645780E0,-1.040937710E1,-5.907281041E-1
1.108824788E1,1.167996526E0,-1.068933678E1,-7.342974544E-1
1.109796126E1,6.340979934E-1,-1.126869869E1,-9.978070259E-1
1.110767538E1,2.964109182E-1,-1.210439205E1,-7.438687682E-1
1.111738871E1,4.112663865E-1,-1.287278748E1,-2.243271172E-1
1.112710116E1,5.814558864E-1,-1.323200989E1,-2.572284266E-2
1.113681454E1,1.014855862E0,-1.303579903E1,-1.012163997E0
1.114652860E1,1.548455358E0,-1.280818176E1,-2.371885538E0
1.115624194E1,1.673181176E0,-1.286560917E1,-2.783750057E0
1.116595439E1,1.383350611E0,-1.318176079E1,-2.582453728E0
1.117566777E1,9.786644578E-1,-1.345693588E1,-1.809273005E0
1.118538188E1,3.634099364E-1,-1.355294704E1,-1.237089276E0
1.119509517E1,-3.116651475E-1,-1.342104340E1,-1.727917075E0
1.120480767E1,-9.005986452E-1,-1.302383423E1,-2.836392164E0
1.121452100E1,-1.568495274E0,-1.236281776E1,-4.045365810E0
1.122423511E1,-2.052144527E0,-1.197996521E1,-4.471587181E0
1.123394845E1,-2.444866419E0,-1.181934738E1,-3.265006542E0
1.124366090E1,-2.909074068E0,-1.157288647E1,-2.123031855E0
1.125337428E1,-2.806182861E0,-1.151545906E1,-1.031306505E0
1.126308834E1,-1.968395710E0,-1.159202957E1,5.584250093E-1
1.127280168E1,-1.051346421E0,-1.133121204E1,6.062814593E-1
1.128251412E1,-3.260220885E-1,-1.093370438E1,2.210369855E-1
1.129222751E1,-2.374876440E-1,-1.058883858E1,5.679962635E-1
1.130194163E1,-5.318048596E-1,-1.036151981E1,9.200403094E-1
1.131165491E1,-9.340981245E-1,-1.009561825E1,1.111466169E0
1.132136735E1,-1.300499082E0,-1.010758209E1,1.099501967E0
1.133108074E1,-1.659422517E0,-1.031366348E1,1.003789067E0
1.134079485E1,-2.181356907E0,-1.068694401E1,8.626125455E-1
1.135050814E1,-2.145464659E0,-1.114187908E1,4.651049078E-1
1.136022064E1,-1.484746456E0,-1.150110245E1,-1.022931710E-1
1.136993397E1,-9.484550953E-1,-1.138146114E1,-7.965108156E-1
1.137964808E1,-8.383852243E-1,-1.107488060E1,-1.613061547E0
1.138936136E1,-7.426723242E-1,-1.065822983E1,-2.180459738E0
1.139907386E1,-5.605186820E-1,-9.944869995E0,-2.548954248E0
1.140878720E1,-1.369891018E-1,-9.595218658E0,-2.774178743E0
1.141850131E1,2.198405862E-1,-9.604789734E0,-2.664108992E0
1.142821459E1,6.819544435E-1,-9.159725189E0,-2.050948143E0
1.143792709E1,1.002891779E0,-8.714361191E0,-1.335195065E0
1.144764043E1,1.565504193E0,-8.513363838E0,-7.079764009E-1
1.145735454E1,1.969891191E0,-8.324031830E0,1.106680483E-1
1.146706782E1,1.938784599E0,-8.048856735E0,4.890331328E-1
1.147678032E1,1.431207061E0,-7.479066372E0,5.321039557E-1
1.148649366E1,7.944171429E-1,-7.024130821E0,3.000001311E-1
1.149620777E1,1.887338907E-1,-6.566802502E0,4.606183618E-2
1.150592105E1,-3.475574851E-1,-6.166902065E0,-2.961117923E-1
1.151563350E1,-7.402794957E-1,-5.851049423E0,-6.385845542E-1
1.152534689E1,-1.070489049E0,-5.587540150E0,-9.643075466E-1
1.153506095E1,-1.420140266E0,-5.307579517E0,-1.136590719E0
1.154477428E1,-1.752742529E0,-5.240580559E0,-1.148554921E0
1.155448673E1,-1.985145450E0,-5.276473045E0,-1.201196909E0
1.156420011E1,-2.073679924E0,-5.396114349E0,-1.253839016E0
1.157391418E1,-2.145464659E0,-5.537290573E0,-1.304088354E0
1.158362751E1,-2.224427700E0,-5.702694416E0,-1.380658627E0
1.159333996E1,-2.356033087E0,-5.872584820E0,-1.577169180E0
1.160305334E1,-2.475973129E0,-6.028118610E0,-1.912164450E0
1.161276741E1,-2.456830740E0,-6.202794552E0,-2.304886341E0
1.162248074E1,-2.353640079E0,-6.444768906E0,-3.140280724E0
1.163219319E1,-2.351247311E0,-6.652944088E0,-4.162613869E0
1.164190652E1,-2.339283228E0,-7.002595425E0,-5.903093338E0
1.165162064E1,-2.260320187E0,-7.316055298E0,-7.689335346E0
1.166133392E1,-2.442473650E0,-7.684848785E0,-9.468100548E0
1.167104642E1,-2.609971285E0,-8.345566750E0,-1.052871895E1
1.168075975E1,-3.160619497E0,-9.298508644E0,-1.048564816E1
1.169047386E1,-3.407080412E0,-1.057448101E1,-9.762416840E0
1.170018715E1,-2.662613392E0,-1.167338562E1,-8.927022934E0
1.170989959E1,-9.604191780E-1,-1.269093323E1,-8.318946838E0
1.171961298E1,6.747759581E-1,-1.325115299E1,-7.899903774E0
1.172932704E1,1.603789330E0,-1.325354576E1,-6.939784050E0
1.173904038E1,2.319542408E0,-1.295653629E1,-6.154638767E0
1.174875282E1,2.903690338E0,-1.279143143E1,-5.613562107E0
1.175846616E1,3.083152056E0,-1.296850014E1,-5.962913990E0
1.176818027E1,2.298007011E0,-1.333011627E1,-4.799404144E0
1.177789355E1,1.627717614E0,-1.314108276E1,-2.304886341E0
1.178760600E1,2.149652004E0,-1.283928776E1,-2.175673962E0
1.179731939E1,3.178864956E0,-1.229103279E1,-4.193720818E0
1.180703345E1,3.011367321E0,-1.153699398E1,-5.687739372E0
1.181674678E1,1.984248161E0,-1.079013443E1,-6.125925064E0
1.182645923E1,1.624128371E-1,-1.024427223E1,-4.421338081E0
1.183617256E1,-2.437688112E0,-9.825228691E0,-1.385444283E0
1.184588668E1,-4.190131664E0,-9.157332420E0,5.081757307E-1
1.185559996E1,-4.247559071E0,-8.407780647E0,1.769791484E0
1.186531241E1,-3.316153049E0,-7.842775345E0,2.375474691E0
1.187502579E1,-2.464009047E0,-7.469494820E0,4.172484577E-1
1.188473985E1,-1.992323995E0,-7.208378315E0,-2.836392164E0
1.189445314E1,-2.119143486E0,-7.205985546E0,-2.991925716E0
1.190416564E1,-2.504687071E0,-7.651349545E0,-6.912266612E-1
1.191387897E1,-3.019443035E0,-8.290532112E0,6.756733060E-1
1.192359303E1,-3.651447296E0,-8.819644928E0,1.168893814E0
1.193330636E1,-3.529413462E0,-9.327222824E0,1.544866085E0
1.194301881E1,-2.397010088E0,-9.645767212E0,1.537687659E0
1.195273214E1,-1.151844978E0,-9.748658180E0,6.541379094E-1
1.196244626E1,1.504487246E-1,-9.688838005E0,-4.375874400E-1
1.197215954E1,1.426421404E0,-9.763015747E0,-1.155733347E0
1.198187199E1,2.527718067E0,-9.913763046E0,-1.186840057E0
1.199158538E1,3.233899832E0,-1.022512913E1,-6.314060688E-1
1.200129944E1,3.384946823E0,-1.044526863E1,-7.357929647E-2
1.201101272E1,3.212364435E0,-1.053619671E1,1.633101404E-1
1.202072517E1,2.525325298E0,-1.047637558E1,1.106680483E-1
1.203043855E1,1.608574986E0,-1.039501953E1,-2.362912297E-1
1.204015261E1,9.762716293E-1,-1.020598698E1,-7.031907439E-1
1.204986590E1,8.135597110E-1,-1.001904774E1,-1.150947690E0
1.205957840E1,7.896314859E-1,-9.770194054E0,-1.416550994E0
1.206929173E1,7.561319470E-1,-9.564111710E0,-1.473978758E0
1.207900579E1,6.652047038E-1,-9.351150513E0,-1.308874011E0
1.208871912E1,5.407779217E-1,-9.140582085E0,-1.115055323E0
1.209843157E1,3.897309899E-1,-8.991928101E0,-8.347960114E-1
1.210814491E1,2.796611488E-1,-8.917751312E0,-5.261218548E-1
1.211785897E1,1.097707376E-1,-8.891429901E0,-4.184448719E-1
1.212757230E1,7.627122104E-2,-8.972785950E0,-4.328017831E-1
1.213728475E1,2.437688112E-1,-9.224330902E0,-5.213362575E-1
1.214699808E1,6.340979934E-1,-9.528220177E0,-6.361917257E-1
1.215671214E1,9.882357717E-1,-9.763015747E0,-7.654041648E-1
1.216642548E1,1.294816136E0,-9.973584175E0,-6.768696904E-1
1.217613793E1,1.526919961E0,-1.005972576E1,-6.290132403E-1
1.218585126E1,1.651645780E0,-9.990333557E0,-7.438687682E-1
1.219556532E1,1.599003673E0,-9.763015747E0,-8.324031830E-1
1.220527866E1,1.433599830E0,-9.585647583E0,-1.024128079E0
1.221499110E1,1.105783105E0,-9.449256897E0,-1.215553880E0
1.222470444E1,8.853443861E-1,-9.336793900E0,-1.220339537E0
1.223441855E1,7.274180651E-1,-9.236295700E0,-1.215553880E0
1.224413183E1,3.825525343E-1,-9.166903496E0,-1.306481123E0
1.225384428E1,1.049850956E-1,-9.099904060E0,-1.490728498E0
1.226355761E1,-1.298106313E-1,-9.092725754E0,-1.569990754E0
1.227327168E1,-1.992024779E-1,-9.198010445E0,-1.541276932E0
1.228298501E1,-1.369891018E-1,-9.296115875E0,-1.385444283E0
1.229269746E1,2.362912335E-2,-9.360722542E0,-1.246660590E0
1.230241079E1,2.006980032E-1,-9.288937569E0,-1.091127157E0
1.231212485E1,5.120640397E-1,-9.181260109E0,-1.215553880E0
1.232183814E1,8.997012973E-1,-9.075976372E0,-1.162911773E0
1.233155064E1,1.359422326E0,-9.034998894E0,-8.587242365E-1
1.234126397E1,1.747358680E0,-9.061619759E0,-3.702892959E-1
1.235097803E1,2.010569334E0,-9.181260109E0,2.808575630E-1
1.236069131E1,1.936391711E0,-9.233902931E0,8.554341197E-1
1.237040376E1,1.835893154E0,-9.372686386E0,1.185643673E0
1.238011709E1,1.603789330E0,-9.391828537E0,1.099501967E0
1.238983121E1,1.407278776E0,-9.492327690E0,8.721838593E-1
1.239954449E1,1.273280740E0,-9.648159981E0,1.061216831E0
1.240925694E1,1.273280740E0,-9.839586258E0,1.389332652E0
1.241897027E1,1.301994562E0,-1.006929684E1,1.420439363E0
1.242868438E1,1.373779297E0,-1.014826012E1,1.044467092E0
1.243839767E1,1.538884044E0,-1.008365345E1,3.409772366E-2
1.244811011E1,1.620539188E0,-1.009083176E1,-7.989036441E-1
1.245782345E1,1.431207061E0,-1.054576778E1,-1.153340459E0
1.246753751E1,1.175175071E0,-1.108445168E1,-9.379864931E-1
1.247725079E1,9.762716293E-1,-1.171406364E1,-2.482553422E-1
1.248696324E1,9.738788009E-1,-1.236042404E1,5.105685592E-1
1.249667663E1,1.069890857E0,-1.304058456E1,3.191427290E-1
1.250639069E1,8.614161611E-1,-1.339711475E1,-3.702892959E-1
1.251610397E1,5.192425251E-1,-1.360798264E1,-1.454836130E0
1.252581642E1,6.669992954E-2,-1.364387512E1,-2.728715181E0
1.253552975E1,-3.643072546E-1,-1.362951756E1,-3.231507063E0
1.254524381E1,-8.383852243E-1,-1.349043465E1,-3.461217880E0
1.255495715E1,-9.317052960E-1,-1.329183102E1,-4.363910198E0
1.256466959E1,-7.115656137E-1,-1.317458248E1,-4.744369030E0
1.257438293E1,-4.552344978E-1,-1.311715508E1,-4.500301361E0
1.258409699E1,-5.389832854E-1,-1.294457245E1,-4.057330132E0
1.259381027E1,-7.809575200E-1,-1.265982628E1,-3.092424154E0
1.260352272E1,-9.221340418E-1,-1.234128189E1,-1.837986946E0
1.261323605E1,-1.226022482E0,-1.186750317E1,-7.295117974E-1
1.262295017E1,-1.312463164E0,-1.141496086E1,5.084748194E-2
1.263266345E1,-1.336391449E0,-1.093609715E1,7.764709592E-1
1.264237590E1,-1.604387641E0,-1.033041382E1,2.976073027E-1
1.265208923E1,-2.033001900E0,-9.887442589E0,-4.136592150E-1
1.266180329E1,-2.284248352E0,-9.719944954E0,-5.763711333E-1
1.267151657E1,-1.867897153E0,-9.849157333E0,-6.002993584E-1
1.268122902E1,-1.204487085E0,-1.025862885E1,-3.655036688E-1
1.269094235E1,-1.017846942E0,-1.054576778E1,4.316053987E-1
1.270065642E1,-7.354938388E-1,-1.084516907E1,1.382154226E0
1.271036975E1,-4.336991012E-1,-1.110598755E1,1.351047516E0
1.272008215E1,-5.126622319E-1,-1.120887852E1,9.678967595E-1
1.272979553E1,-5.964110494E-1,-1.108205891E1,2.521436810E-1
1.273950959E1,-8.623134494E-1,-1.095045376E1,-9.595218897E-1
1.274922288E1,-1.096810102E0,-1.054576778E1,-2.000698805E0
1.275893532E1,-8.072785139E-1,-1.019162941E1,-2.501097918E0
1.276864866E1,-4.121637046E-1,-9.741479874E0,-2.606382132E0
1.277836272E1,-3.619144112E-2,-9.384650230E0,-2.503490686E0
1.278807600E1,3.035893738E-1,-9.336793900E0,-2.283350945E0
1.279778845E1,8.709874153E-1,-9.107083321E0,-1.543669701E0
1.280750178E1,1.074676514E0,-8.690432549E0,-7.558328509E-1
1.281721584E1,1.132104158E0,-8.194819450E0,-2.267199457E-1
1.282692913E1,9.475577474E-1,-7.629814148E0,5.563312769E-2
1.283664157E1,4.184448719E-1,-7.060023308E0,-2.811566554E-2
1.284635491E1,-2.303091735E-1,-6.559624195E0,-1.836491376E-1
1.285606902E1,-6.777670383E-1,-6.198009014E0,-3.272185028E-1
1.286578230E1,-9.269196987E-1,-5.989833355E0,-5.500500798E-1
1.287549475E1,-1.082453132E0,-5.858228207E0,-8.994022012E-1
1.288520808E1,-1.202094316E0,-5.863013744E0,-1.203589797E0
1.289492214E1,-1.204487085E0,-5.922834396E0,-1.505384564E0
1.290463543E1,-1.127916813E0,-5.987440586E0,-1.605883121E0
1.291434788E1,-1.147059321E0,-6.090332031E0,-1.572383523E0
1.292406121E1,-1.245165110E0,-6.198009014E0,-1.541276932E0
1.293377527E1,-1.341177106E0,-6.272485256E0,-1.505384564E0
1.294348855E1,-1.408176184E0,-6.337091446E0,-1.510170221E0
1.295320100E1,-1.527817249E0,-6.320342064E0,-1.782951951E0
1.296291433E1,-1.649851203E0,-6.396912098E0,-2.146960020E0
1.297262840E1,-1.762313843E0,-6.518946171E0,-2.685644388E0
1.298234168E1,-1.877468467E0,-6.717550278E0,-3.245863914E0
1.299205413E1,-1.903789520E0,-7.062416077E0,-4.007080555E0
1.300176746E1,-1.872682810E0,-7.491030216E0,-5.180161953E0
1.301148152E1,-2.155035973E0,-7.904988766E0,-6.566503525E0
1.302119480E1,-2.521436930E0,-8.257032394E0,-7.916653633E0
1.303090725E1,-2.858824968E0,-8.783752441E0,-9.417850494E0
1.304062058E1,-2.935694218E0,-9.420542717E0,-1.086132145E1
1.305033465E1,-2.602792740E0,-1.019162941E1,-1.107218838E1
1.306004793E1,-1.613958836E0,-1.110120201E1,-9.913165092E0
1.306976038E1,-1.704886109E-1,-1.188425255E1,-7.648358345E0
1.307947371E1,1.045962572E0,-1.242263794E1,-6.058926105E0
1.308918777E1,1.802393675E0,-1.239870930E1,-5.551348686E0
1.309890105E1,1.933998942E0,-1.188903809E1,-5.718846321E0
1.310861350E1,1.857428551E0,-1.127587795E1,-6.023033619E0
1.311832683E1,1.941177368E0,-1.069172955E1,-5.766702652E0
1.312804090E1,1.866999865E0,-1.030409241E1,-5.335695267E0
1.313775418E1,1.352243900E0,-1.050030422E1,-5.898307800E0
1.314746663E1,1.884347759E-2,-1.131446171E1,-4.777868748E0
1.315717996E1,-7.881359458E-1,-1.148674488E1,-1.632204175E0
1.316689402E1,-3.308077157E-1,-1.184806156E1,-1.057627559E0
1.317660730E1,9.116654396E-1,-1.189382362E1,-3.272184849E0
1.318631975E1,1.835893154E0,-1.143171024E1,-5.572884083E0
1.319603308E1,1.534098387E0,-1.102702427E1,-5.434100151E0
1.320574714E1,-6.801598072E-1,-1.078774166E1,-2.419741869E0
1.321546043E1,-2.540579557E0,-1.032323551E1,3.170489892E-2
1.322517288E1,-2.468794823E0,-9.789336205E0,1.226321578E0
1.323488621E1,-1.477568030E0,-9.580862045E0,2.358724833E0
1.324460027E1,-4.815555513E-1,-9.190832138E0,1.712363720E0
1.325431355E1,-6.969095767E-2,-8.769395828E0,-4.758726060E-1
1.326402600E1,-6.586244106E-1,-8.506185532E0,-1.699203134E0
1.327373933E1,-1.942074656E0,-8.170890808E0,-1.304088354E0
1.328345340E1,-3.433401346E0,-7.804490089E0,-8.778668046E-1
1.329316668E1,-4.676173687E0,-7.711170197E0,-5.117649436E-1
1.330287907E1,-4.846064091E0,-8.060821533E0,-3.104687333E-1
1.331259241E1,-3.435794115E0,-8.460422516E0,2.880360186E-1
1.332230647E1,-1.786242127E0,-8.886644363E0,6.230311990E-1
1.333201975E1,-2.183450609E-1,-9.138189316E0,3.885345757E-1
1.334173220E1,1.184746265E0,-9.308079720E0,-6.879365444E-2
1.335144553E1,2.384148598E0,-9.652945518E0,-5.452644825E-1
1.336115959E1,3.209971666E0,-9.865906715E0,-6.098706722E-1
1.337087288E1,3.380161047E0,-1.004297543E1,-6.050850153E-1
1.338058532E1,2.953939438E0,-1.014826012E1,-6.505486369E-1
1.339029866E1,2.278864384E0,-1.021077251E1,-8.491529226E-1
1.340001272E1,1.795215130E0,-1.029212856E1,-1.007378340E0
1.340972600E1,1.572682738E0,-1.031127071E1,-1.481157184E0
1.341943840E1,1.428814173E0,-1.022034359E1,-1.883450508E0
1.342915173E1,1.184746265E0,-1.018445110E1,-1.833201289E0
1.343886579E1,1.062712312E0,-1.014826012E1,-1.672882080E0
1.344857907E1,1.050748229E0,-1.010040379E1,-1.186840057E0
1.345829152E1,1.136889815E0,-1.018923664E1,-3.678964674E-1
1.346800485E1,1.170389414E0,-1.019880867E1,-1.094716340E-1
1.347771892E1,1.144068360E0,-1.001665497E1,-2.333002165E-2
1.348743220E1,9.762716293E-1,-9.763015747E0,-6.640082598E-2
1.349714464E1,9.332008362E-1,-9.561718941E0,-5.922235921E-2
1.350685798E1,9.762716293E-1,-9.360722542E0,4.845465720E-2
1.351657204E1,1.074676514E0,-9.226723671E0,1.561316848E-1
1.352628532E1,1.191924810E0,-9.111868858E0,1.899302900E-1
1.353599772E1,1.194317579E0,-8.996713638E0,7.238288224E-2
1.354571105E1,9.906286001E-1,-8.956035614E0,-1.597209126E-1
1.355542511E1,7.178468108E-1,-8.843573570E0,-5.045864582E-1
1.356513840E1,4.618147612E-1,-8.759824753E0,-8.060821295E-1
1.357485084E1,3.562314808E-1,-8.678468704E0,-7.773682475E-1
1.358456418E1,4.618147612E-1,-8.661719322E0,-6.553342938E-1
1.359427824E1,5.599204898E-1,-8.771788597E0,-8.132606149E-1
1.360399152E1,7.058826685E-1,-8.941679001E0,-1.021735311E0
1.361370392E1,7.489534616E-1,-9.188439369E0,-1.115055323E0
1.362341725E1,5.814558864E-1,-9.425328255E0,-8.682954907E-1
1.363313131E1,3.227319419E-1,-9.655338287E0,-5.309075117E-1
1.364284459E1,1.884347759E-2,-9.803693771E0,-4.280161560E-1
1.365255704E1,-2.590230405E-1,-9.856335640E0,-1.794616925E-3
1.366227038E1,-2.039881349E-1,-9.801301003E0,3.095714152E-1
1.367198444E1,1.480558962E-1,-9.786943436E0,-3.367897868E-1
1.368169761E1,1.160818100E0,-9.779765129E0,-1.459621787E0
1.369141011E1,2.329113722E0,-9.748658180E0,-2.168495417E0
1.370112345E1,3.016152859E0,-9.784550667E0,-2.237887383E0
1.371083751E1,3.274876833E0,-9.870692253E0,-1.979163408E0
1.372055079E1,3.274876833E0,-9.956833839E0,-1.658525229E0
1.373026324E1,3.198007345E0,-1.006451130E1,-1.435693622E0
1.373997652E1,2.980260611E0,-1.019402313E1,-8.730811477E-1
1.374969058E1,2.566003084E0,-1.026341438E1,-8.973085321E-3
1.375940386E1,2.022533417E0,-1.029212856E1,8.913264275E-1
1.376911631E1,1.457528114E0,-1.025145054E1,1.432403445E0
1.377882964E1,1.010070205E0,-1.000469017E1,1.602293849E0
1.378854371E1,5.838487148E-1,-9.648159981E0,1.583151340E0
1.379825699E1,2.533400953E-1,-9.341579437E0,1.176072359E0
1.380796939E1,1.097707376E-1,-9.198010445E0,3.981058598E-1
1.381768272E1,1.935195327E-1,-9.221938133E0,-5.069792867E-1
1.382739678E1,4.498506486E-1,-9.492327690E0,-1.153340459E0
1.383711006E1,6.484549642E-1,-1.005494022E1,-1.354337573E0
1.384682251E1,6.771687865E-1,-1.076142120E1,-9.041878581E-1
1.385653579E1,5.407779217E-1,-1.141496086E1,4.363910258E-1
1.386624985E1,2.724826932E-1,-1.193689442E1,1.987837434E0
1.387596314E1,-9.361918271E-2,-1.209242821E1,2.033301115E0
1.388567558E1,-6.011966988E-2,-1.214028454E1,4.507479668E-1
1.389538886E1,2.365903407E-1,-1.229103279E1,-9.547362328E-1
1.390510293E1,5.862415433E-1,-1.258564854E1,-1.790130496E0
1.391481621E1,8.614161611E-1,-1.317458248E1,-2.529811859E0
1.392452866E1,9.403793216E-1,-1.370369530E1,-3.046960592E0
1.393424199E1,1.062712312E0,-1.399561977E1,-3.489931822E0
1.394395605E1,1.299601793E0,-1.400758362E1,-4.605585575E0
1.395366923E1,1.392921925E0,-1.372044468E1,-5.522634506E0
1.396338173E1,1.215852976E0,-1.328465176E1,-5.752345562E0
1.397309506E1,6.029912829E-1,-1.290150166E1,-4.694119930E0
1.398280913E1,-1.393819153E-1,-1.245643616E1,-2.984747171E0
1.399252241E1,-7.977072597E-1,-1.217856979E1,-1.548455358E0
1.400223480E1,-1.460818172E0,-1.180259800E1,-3.224328458E-1
1.401194814E1,-1.848754644E0,-1.133839035E1,8.243274093E-1
1.402166220E1,-1.673779488E0,-1.096481037E1,1.384546995E0
1.403137548E1,-1.187737346E0,-1.063669491E1,1.918445587E0
1.404108788E1,-8.216354847E-1,-1.039501953E1,2.236690998E0
1.405080121E1,-6.083751321E-1,-1.015543842E1,2.205584288E0
1.406051527E1,-5.461617708E-1,-9.755837440E0,1.516152263E0
1.407022855E1,-8.503493667E-1,-9.566504478E0,4.483551383E-1
1.407994095E1,-1.242772222E0,-9.664909363E0,3.167499006E-1
1.408965428E1,-1.127916813E0,-1.025145054E1,1.202393413E0
1.409936834E1,-2.973082066E-1,-1.106052399E1,1.693221092E0
1.410908163E1,4.351946115E-1,-1.155852985E1,1.250249863E0
1.411879402E1,6.915257573E-1,-1.154178047E1,-6.879365444E-2
1.412850735E1,9.475577474E-1,-1.124477100E1,-1.459621787E0
1.413822142E1,1.254138112E0,-1.090977573E1,-2.379063845E0
1.414793470E1,1.366600871E0,-1.055294609E1,-2.783750057E0
1.415764709E1,1.474277854E0,-1.005733299E1,-2.707179785E0
1.416736043E1,1.084247708E0,-9.592825890E0,-2.302493572E0
1.417707449E1,6.245267391E-1,-9.300901413E0,-1.921735644E0
1.418678777E1,4.088735580E-1,-8.783752441E0,-1.347159147E0
1.419650017E1,1.169492081E-1,-8.139784813E0,-8.491529226E-1
1.420621350E1,-8.165507019E-2,-7.546065331E0,-3.873381615E-1
1.421592756E1,-3.547359705E-1,-6.966702938E0,-8.973085321E-3
1.422564084E1,-6.346961856E-1,-6.463911057E0,2.452643216E-2
1.423535324E1,-8.144569993E-1,-6.080760479E0,-7.836493850E-2
1.424506657E1,-9.987043738E-1,-5.740979671E0,-3.678964674E-1
1.425478064E1,-1.013061285E0,-5.233402252E0,-7.366902828E-1
1.426449392E1,-1.132702470E0,-5.044070244E0,-9.643075466E-1
1.427420631E1,-1.372283816E0,-5.216652393E0,-1.110269666E0
1.428391965E1,-1.551745534E0,-5.353043556E0,-1.088734269E0
1.429363371E1,-1.657029629E0,-5.609075546E0,-9.427721500E-1
1.430334689E1,-1.561316729E0,-5.841478348E0,-8.395816684E-1
1.431305938E1,-1.424925923E0,-6.083153248E0,-9.690931439E-1
1.432277272E1,-1.286142230E0,-6.255735874E0,-1.301695466E0
1.433248678E1,-1.230808139E0,-6.370591164E0,-1.699203134E0
1.434219996E1,-1.060917735E0,-6.530910492E0,-2.185245275E0
1.435191246E1,-6.586244106E-1,-6.693622112E0,-2.692822695E0
1.436162579E1,-2.590230405E-1,-6.866204739E0,-3.387040377E0
1.437133980E1,6.669992954E-2,-7.095915318E0,-4.198506355E0
1.438105308E1,2.892324328E-1,-7.397710323E0,-4.780261517E0
1.439076553E1,2.700898647E-1,-7.644171238E0,-5.434100151E0
1.440047881E1,1.648056656E-1,-8.113463402E0,-6.197709560E0
1.441019288E1,-5.084747914E-3,-8.769395828E0,-6.927819729E0
1.441990616E1,-2.991028305E-4,-9.477970123E0,-7.502396107E0
1.442961855E1,2.006980032E-1,-1.012433147E1,-7.595716476E0
1.443933189E1,8.159525394E-1,-1.070608711E1,-7.861618996E0
1.444904595E1,1.790429592E0,-1.109880829E1,-8.259126663E0
1.445875923E1,2.700300455E0,-1.149392319E1,-8.000402451E0
1.446847163E1,3.013760090E0,-1.184088326E1,-7.009175777E0
1.447818496E1,2.714657307E0,-1.201825047E1,-5.893522263E0
1.448789902E1,2.020140409E0,-1.179781246E1,-4.974379063E0
1.449761220E1,1.060319543E0,-1.119930744E1,-4.636692047E0
1.450732470E1,2.150549293E-1,-1.052183914E1,-4.361517429E0
1.451703798E1,-1.513460279E-1,-1.008843899E1,-5.000699997E0
1.452675204E1,-7.857431173E-1,-1.071326542E1,-6.738786697E0
1.453646532E1,-2.499901533E0,-1.154656601E1,-3.992723703E0
1.454617772E1,-3.579662561E0,-1.215942764E1,-1.821237087E0
1.455589105E1,-2.387438774E0,-1.325833130E1,-3.863511324E0
1.456560511E1,-1.441675574E-1,-1.397408390E1,-7.080960274E0
1.457531840E1,2.094317913E0,-1.391426373E1,-6.891927242E0
1.458503079E1,2.266900301E0,-1.283928776E1,-2.908176899E0
1.459474412E1,8.135597110E-1,-1.095045376E1,2.050050735E0
1.460445814E1,1.360917836E-1,-1.099591732E1,4.288536549E0
1.461417142E1,-7.139584422E-1,-1.002622604E1,3.804887056E0
1.462388386E1,-1.113559842E0,-8.764610291E0,6.804589629E-1
1.463359715E1,-1.166201949E0,-7.873881817E0,-1.936092615E0
1.464331121E1,-1.812862277E0,-8.094321251E0,-9.595218897E-1
1.465302449E1,-2.590828657E0,-8.831609726E0,1.027717352E0
1.466273689E1,-3.613162279E0,-8.755039215E0,1.300499082E0
1.467245022E1,-4.338486671E0,-8.367102623E0,-4.016951025E-1
1.468216428E1,-4.336093903E0,-8.371888161E0,-1.718345761E0
1.469187746E1,-2.909074068E0,-8.656932831E0,-1.485942841E0
1.470158996E1,-1.139880896E0,-8.750253677E0,-5.261218548E-1
1.471130329E1,5.312066078E-1,-9.037391663E0,-1.908276081E-1
1.472101730E1,1.981855392E0,-9.293723106E0,-1.046859920E-1
1.473073058E1,3.152543783E0,-9.590433121E0,1.974078640E-2
1.474044298E1,3.729513168E0,-9.925727844E0,-4.187439568E-3
1.475015631E1,3.808775425E0,-1.031127071E1,-1.381855011E-1
1.475987038E1,3.602693558E0,-1.064626598E1,-1.118644550E-1
1.476958355E1,3.004188776E0,-1.080209827E1,-8.075776696E-2
1.477929605E1,2.223829508E0,-1.077817059E1,9.631111473E-2
1.478900939E1,1.675574064E0,-1.065822983E1,3.023929596E-1
1.479872340E1,1.203888893E0,-1.035194874E1,2.952145040E-1
1.480843668E1,7.872386575E-1,-9.949655533E0,-1.794616925E-3
1.481814907E1,4.016951025E-1,-9.549755096E0,-4.016951025E-1
1.482786241E1,-1.465603895E-2,-9.229117393E0,-8.754739761E-1
1.483757647E1,-1.680957973E-1,-8.886644363E0,-1.024128079E0
1.484728965E1,-1.465603858E-1,-8.640183449E0,-7.295117974E-1
1.485700215E1,2.030908167E-1,-8.625826836E0,-5.237290859E-1
1.486671543E1,6.412764788E-1,-8.714361191E0,-5.931209326E-1
1.487642949E1,9.427721500E-1,-8.893822670E0,-6.074778438E-1
1.488614277E1,1.349851131E0,-9.195617676E0,-4.974080026E-1
1.489585517E1,1.687538147E0,-9.521040916E0,-4.725824669E-2
1.490556850E1,1.924427629E0,-9.722337723E0,2.856431901E-1
1.491528256E1,1.883749604E0,-9.856335640E0,3.047857881E-1
1.492499574E1,1.603789330E0,-9.856335640E0,-5.922235921E-2
1.493470824E1,9.978070259E-1,-9.717552185E0,-6.792625189E-1
1.494442152E1,3.753740489E-1,-9.528220177E0,-1.270588875E0
1.495413558E1,-1.992024779E-1,-9.317651749E0,-1.754238129E0
1.496384886E1,-3.690928817E-1,-9.221938133E0,-1.904985905E0
1.497356126E1,-3.020938635E-1,-9.245866776E0,-1.656132340E0
1.498327459E1,-1.175474152E-1,-9.458827972E0,-1.368694544E0
1.499298860E1,1.600200087E-1,-9.629017830E0,-1.043270707E0
1.500270188E1,3.203391433E-1,-9.746265411E0,-8.539385796E-1
1.501241428E1,5.790630579E-1,-9.899406433E0,-6.242275834E-1
1.502212761E1,8.279166222E-1,-9.937691689E0,-5.644070506E-1
1.503184168E1,1.012463093E0,-9.846764565E0,-5.883352757E-1
1.504155485E1,1.014855862E0,-9.686445236E0,-6.696912646E-1
1.505126735E1,9.379864931E-1,-9.568898201E0,-7.558328509E-1
1.506098064E1,8.374879360E-1,-9.473184586E0,-6.792625189E-1
