"Time (s)","Gyroscope x (rad/s)","Gyroscope y (rad/s)","Gyroscope z (rad/s)"
1.657340720E-1,-2.794626169E-2,4.706578255E-1,-2.687728032E-2
1.754472500E-1,2.458660305E-2,4.352286756E-1,-5.008947477E-2
1.851612600E-1,7.467607409E-2,3.826957941E-1,-6.719319522E-2
1.948744370E-1,6.978929788E-2,3.643703759E-1,-7.207997888E-2
2.045867810E-1,2.702999115E-2,4.853181541E-1,-7.207997888E-2
2.143000620E-1,-2.305948362E-2,7.211052179E-1,-7.818844914E-2
2.240140200E-1,-4.871506989E-2,9.397885203E-1,-9.040539712E-2
2.337271450E-1,-8.903098851E-2,1.033859015E0,-1.136175916E-1
2.434395410E-1,-2.197522968E-1,9.153546095E-1,-1.588202864E-1
2.531527180E-1,-4.127800465E-1,6.209262609E-1,-2.003578991E-1
2.628667290E-1,-6.290199757E-1,3.155026138E-1,-1.979145110E-1
2.725798540E-1,-8.354863524E-1,1.527118147E-3,-1.429382563E-1
2.822922500E-1,-1.046839476E0,-3.234436214E-1,-4.398100078E-2
2.920054270E-1,-1.299730301E0,-5.580089688E-1,9.651386738E-2
3.017194890E-1,-1.563768983E0,-6.581879258E-1,2.333436459E-1
3.114326140E-1,-1.801999450E0,-6.655181050E-1,3.616215885E-1
3.211450100E-1,-2.014574289E0,-6.068767309E-1,5.008947253E-1
3.308581870E-1,-2.194163322E0,-5.311316848E-1,6.609367132E-1
3.405721970E-1,-2.361535549E0,-5.128062963E-1,7.953231335E-1
3.502853220E-1,-2.511803865E0,-6.349757314E-1,8.441908956E-1
3.599977180E-1,-2.618091345E0,-8.194515705E-1,8.331956863E-1
3.697108950E-1,-2.691393137E0,-9.489512444E-1,8.038749695E-1
3.794249060E-1,-2.740260839E0,-1.027139664E0,7.867712975E-1
3.891380830E-1,-2.750034332E0,-1.034469843E0,7.660024762E-1
3.988504270E-1,-2.715826988E0,-9.135220647E-1,7.550072074E-1
4.085636040E-1,-2.659628868E0,-6.276455522E-1,7.598940134E-1
4.182776660E-1,-2.580218792E0,-2.696890533E-1,7.537854910E-1
4.279907910E-1,-2.484926701E0,4.917320609E-2,7.085828185E-1
4.377031870E-1,-2.398186445E0,3.289412558E-1,6.193991303E-1
4.474163640E-1,-2.322441339E0,5.183038712E-1,5.057815313E-1
4.571303750E-1,-2.216153860E0,5.451811552E-1,3.384093940E-1
4.668435000E-1,-2.060998678E0,3.924693763E-1,1.478250325E-1
4.765558950E-1,-1.919282079E0,1.542389393E-1,1.954711229E-2
4.862690720E-1,-1.830098391E0,-8.887827396E-2,-3.298575059E-2
4.959830830E-1,-1.783674002E0,-2.831276953E-1,-3.298575059E-2
5.056962600E-1,-1.759240150E0,-3.881934285E-1,-1.710372418E-2
5.154086040E-1,-1.727476001E0,-4.321744442E-1,-7.330167107E-3
5.251218850E-1,-1.677386522E0,-4.358395338E-1,1.221694518E-3
5.348358430E-1,-1.610193372E0,-4.101839364E-1,9.773556143E-3
5.445489680E-1,-1.516122937E0,-3.784198761E-1,2.443389036E-3
5.542613640E-1,-1.398840189E0,-3.539859951E-1,-3.054236248E-2
5.639745410E-1,-1.267966151E0,-3.527642787E-1,-8.063183725E-2
5.736885520E-1,-1.112810969E0,-3.747547865E-1,-1.502684206E-1
5.834016770E-1,-9.283351302E-1,-4.028537571E-1,-2.162399292E-1
5.931140720E-1,-7.365291119E-1,-4.040754735E-1,-2.528907657E-1
6.028272500E-1,-5.569399595E-1,-3.869717419E-1,-2.553341687E-1
6.125412600E-1,-3.944546282E-1,-3.808632791E-1,-2.370087355E-1
6.222544370E-1,-2.454078794E-1,-3.943018913E-1,-2.125748396E-1
6.319668330E-1,-1.000262350E-1,-4.028537571E-1,-1.844758689E-1
6.416800100E-1,5.512896553E-2,-3.784198761E-1,-1.539335102E-1
6.513940200E-1,2.273878902E-1,-3.490992188E-1,-1.331647038E-1
6.611071450E-1,4.020902216E-1,-3.112266660E-1,-1.221694499E-1
6.708195410E-1,5.584670901E-1,-2.660239935E-1,-1.160609797E-1
6.805327180E-1,6.916317940E-1,-2.171562016E-1,-1.160609797E-1
6.902467290E-1,7.979192138E-1,-1.475196183E-1,-1.307213157E-1
6.999599060E-1,8.944330812E-1,-2.901524492E-2,-1.673721522E-1
7.096723020E-1,9.787300229E-1,1.236965731E-1,-2.235700935E-1
7.193854790E-1,1.053253412E0,2.874036431E-1,-2.822114229E-1
7.290994890E-1,1.136328578E0,4.474456310E-1,-3.286358118E-1
7.388126140E-1,1.213295341E0,5.891621709E-1,-3.591781855E-1
7.485250100E-1,1.214517117E0,7.162184119E-1,-3.848337829E-1
7.582381870E-1,1.127776742E0,8.506048322E-1,-4.056025743E-1
7.679522500E-1,9.750649333E-1,9.923213720E-1,-3.994941115E-1
7.776653750E-1,7.759287357E-1,1.054627776E0,-3.701734245E-1
7.873777700E-1,5.816792846E-1,9.031376839E-1,-3.408527672E-1
7.970909470E-1,4.301891923E-1,5.525113344E-1,-3.054236174E-1
8.068049580E-1,2.958027720E-1,2.202104330E-1,-2.626643181E-1
8.165180830E-1,1.614163816E-1,-9.468132630E-3,-2.345653474E-1
8.262304790E-1,1.481304597E-2,-2.269297540E-1,-2.406738251E-1
8.359436560E-1,-1.989834905E-1,-4.651601911E-1,-2.565558553E-1
8.456577180E-1,-4.665345848E-1,-7.644753456E-1,-2.431172132E-1
8.553708430E-1,-6.974348426E-1,-1.123653531E0,-2.150182426E-1
8.650832390E-1,-9.100096822E-1,-1.327676535E0,-2.370087355E-1
8.747964160E-1,-9.539906979E-1,-1.292247415E0,-2.589992285E-1
8.845104270E-1,-6.449019909E-1,-1.096776247E0,-2.028012872E-1
8.942235520E-1,-2.050919682E-1,-7.559235096E-1,-1.979145110E-1
9.039359470E-1,9.910997003E-2,-4.150707126E-1,-3.103103936E-1
9.136492290E-1,1.369825006E-1,-2.648022771E-1,-4.422534108E-1
9.233631870E-1,-4.734066315E-3,-2.819060087E-1,-5.253286362E-1
9.330763120E-1,-5.482354015E-2,-4.052971601E-1,-4.630222321E-1
9.427887080E-1,1.088835225E-1,-5.848862529E-1,-2.589992285E-1
9.525018850E-1,3.800997138E-1,-7.070556879E-1,-7.085828483E-2
9.622159470E-1,6.671979427E-1,-7.754706144E-1,6.108472589E-3
9.719290720E-1,9.078717232E-1,-6.752916574E-1,-3.420744836E-2
9.816414680E-1,1.063026905E0,-3.808632791E-1,-1.160609797E-1
9.913546450E-1,1.170536041E0,-1.230857223E-1,-1.588202864E-1
1.001068708E0,1.295148849E0,3.573456407E-2,-1.698155403E-1
1.010781833E0,1.438087106E0,1.408002973E-1,-1.832541823E-1
1.020494229E0,1.529714227E0,1.860029846E-1,-1.918060333E-1
1.030207406E0,1.539487839E0,2.031067163E-1,-1.832541823E-1
1.039921468E0,1.513832211E0,1.921114624E-1,-1.637070626E-1
1.049634593E0,1.512610555E0,1.542389393E-1,-1.575985998E-1
1.059346989E0,1.539487839E0,1.823379099E-1,-1.795890927E-1
1.069060166E0,1.560256600E0,2.898470163E-1,-2.028012872E-1
1.078774177E0,1.549261332E0,3.631486893E-1,-2.137965411E-1
1.088487354E0,1.517497301E0,3.509317636E-1,-2.296785712E-1
1.098199750E0,1.469851255E0,3.081724346E-1,-2.589992285E-1
1.107912927E0,1.419761777E0,2.837385535E-1,-2.895416021E-1
1.117626937E0,1.385554314E0,2.654131353E-1,-3.054236174E-1
1.127340114E0,1.362342119E0,2.409792393E-1,-3.261924386E-1
1.137052510E0,1.361120462E0,2.385358512E-1,-3.396310806E-1
1.146765687E0,1.381889224E0,2.971771955E-1,-3.335226178E-1
1.156479697E0,1.389219403E0,4.205683470E-1,-3.176405728E-1
1.166192875E0,1.373337388E0,5.390726924E-1,-3.127537966E-1
1.175905270E0,1.341573238E0,5.732801557E-1,-3.213056624E-1
1.185618447E0,1.287818789E0,5.305208564E-1,-3.176405728E-1
1.195332510E0,1.220625520E0,4.792096615E-1,-2.858765125E-1
1.205045635E0,1.157097459E0,4.608842432E-1,-2.223484069E-1
1.214758031E0,1.100899458E0,4.804313779E-1,-1.417165697E-1
1.224471312E0,1.052031636E0,5.732801557E-1,-7.452336699E-2
1.234185270E0,9.970554113E-1,7.040014863E-1,-3.909422457E-2
1.243898395E0,9.371923804E-1,7.797465324E-1,-5.008947477E-2
1.253610791E0,8.993198872E-1,7.931851745E-1,-9.407047927E-2
1.263324072E0,8.883246183E-1,7.809682488E-1,-1.539335102E-1
1.273038031E0,8.809944391E-1,7.650861740E-1,-2.113531530E-1
1.282751156E0,8.736643195E-1,7.724163532E-1,-2.516690791E-1
1.292463604E0,8.687775135E-1,7.870767117E-1,-2.748812735E-1
1.302176781E0,8.638907075E-1,8.090671897E-1,-2.846548259E-1
1.311890791E0,8.553388715E-1,8.115105629E-1,-2.809897363E-1
1.321603968E0,8.394568563E-1,7.797465324E-1,-2.675510943E-1
1.331316364E0,8.113578558E-1,7.125533223E-1,-2.431172132E-1
1.341029541E0,7.673768401E-1,6.368082762E-1,-1.991362125E-1
1.350743604E0,7.062921524E-1,5.610632300E-1,-1.270562261E-1
1.360456729E0,6.403206587E-1,5.183038712E-1,-4.275930673E-2
1.370169177E0,5.780141950E-1,4.926483035E-1,3.298575059E-2
1.379882354E0,5.328115225E-1,4.511106908E-1,9.040539712E-2
1.389596364E0,5.254813433E-1,4.046863019E-1,1.233911440E-1
1.399309541E0,5.511369109E-1,3.900259733E-1,1.319430023E-1
1.409021937E0,5.926745534E-1,4.034646153E-1,1.185043678E-1
1.418735114E0,6.097782850E-1,3.985778391E-1,7.941014320E-2
1.428449177E0,5.792359114E-1,3.778090179E-1,3.420744836E-2
1.438162302E0,5.157077909E-1,4.291202128E-1,6.108472589E-3
1.447874750E0,4.546230733E-1,5.451811552E-1,1.221694518E-3
1.457587927E0,4.118637741E-1,6.416950226E-1,-4.886778072E-3
1.467301989E0,3.739912212E-1,6.807892919E-1,-2.443389036E-2
1.477015114E0,3.434488773E-1,6.502469182E-1,-4.031591862E-2
1.486727510E0,3.153499067E-1,5.647283196E-1,-3.420744836E-2
1.496440791E0,2.750339806E-1,4.902049303E-1,-9.773556143E-3
1.506154750E0,2.176143378E-1,4.450022280E-1,3.298575059E-2
1.515867927E0,1.577513069E-1,4.010212123E-1,8.063183725E-2
1.525580322E0,1.003316641E-1,3.717005551E-1,1.160609797E-1
1.535293500E0,3.191677108E-2,3.497100472E-1,1.209477559E-1
1.545007562E0,-5.360184610E-2,3.179459870E-1,1.026223376E-1
1.554720739E0,-1.061347127E-1,3.717005551E-1,6.963659078E-2
1.564433135E0,-7.925742865E-2,5.769452453E-1,2.321219631E-2
1.574146312E0,1.359135192E-2,8.090671897E-1,-3.542914242E-2
1.583860375E0,8.444963396E-2,9.605573416E-1,-1.050657257E-1
1.593573500E0,1.481304597E-2,1.028972149E0,-1.918060333E-1
1.603285947E0,-2.087570578E-1,9.568922520E-1,-2.638860047E-1
1.612999125E0,-5.129590034E-1,7.430956960E-1,-2.858765125E-1
1.622713187E0,-8.134958148E-1,4.755446017E-1,-2.394521236E-1
1.632426312E0,-1.081046939E0,1.065928489E-1,-1.270562261E-1
1.642138708E0,-1.342642307E0,-3.026748300E-1,1.954711229E-2
1.651851989E0,-1.597976446E0,-6.581879258E-1,1.747023165E-1
1.661565947E0,-1.844758749E0,-8.768712282E-1,3.310792148E-1
1.671279125E0,-2.058555365E0,-9.428427219E-1,4.813476503E-1
1.680991520E0,-2.212488890E0,-9.990406632E-1,6.279509664E-1
1.690704802E0,-2.361535549E0,-1.085780978E0,7.598940134E-1
1.700418760E0,-2.522799253E0,-1.138313890E0,8.564078808E-1
1.710131937E0,-2.658407211E0,-1.149309158E0,9.248227477E-1
1.719844333E0,-2.763473034E0,-1.165191174E0,9.785773158E-1
1.729557614E0,-2.828222752E0,-1.192068458E0,1.007897973E0
1.739271572E0,-2.820892572E0,-1.134648800E0,9.920159578E-1
1.748984750E0,-2.756142855E0,-9.245173335E-1,9.455915689E-1
1.758697145E0,-2.644968748E0,-6.337540150E-1,8.649597168E-1
1.768410427E0,-2.497143507E0,-3.307738006E-1,7.635591030E-1
1.778124385E0,-2.310224295E0,-6.444438547E-2,6.426113248E-1
1.787837562E0,-2.107423067E0,1.383569092E-1,5.008947253E-1
1.797549958E0,-1.937607527E0,2.800734639E-1,3.616215885E-1
1.807263239E0,-1.843536973E0,3.484883606E-1,2.357870489E-1
1.816977250E0,-1.819103122E0,3.020639718E-1,1.160609797E-1
1.826690375E0,-1.837428570E0,1.493521482E-1,3.909422457E-2
1.836402770E0,-1.874079347E0,-4.123219103E-2,3.542914242E-2
1.846116052E0,-1.892404795E0,-2.037175596E-1,8.796200156E-2
1.855830062E0,-1.875301123E0,-2.977880239E-1,1.478250325E-1
1.865543187E0,-1.830098391E0,-3.222219348E-1,1.954711229E-1
1.875255583E0,-1.782452345E0,-3.234436214E-1,2.040229887E-1
1.884968864E0,-1.699377060E0,-3.503209054E-1,1.490467340E-1
1.894682875E0,-1.585759521E0,-3.674246371E-1,6.963659078E-2
1.904396000E0,-1.462368369E0,-3.368822634E-1,-9.773556143E-3
1.914108395E0,-1.319277406E0,-2.672456801E-1,-7.941014320E-2
1.923821677E0,-1.155570269E0,-1.768402755E-1,-1.490467340E-1
1.933535687E0,-9.747595191E-1,-9.254335612E-2,-2.113531530E-1
1.943248812E0,-7.853968740E-1,-3.512371704E-2,-2.577775419E-1
1.952961260E0,-5.972558856E-1,-8.246437646E-3,-2.736595869E-1
1.962674437E0,-4.164451063E-1,3.970507067E-3,-2.516690791E-1
1.972388500E0,-2.380777150E-1,-9.468132630E-3,-2.113531530E-1
1.982101625E0,-6.459710002E-2,-5.100574717E-2,-1.673721522E-1
1.991814072E0,1.149920002E-1,-1.279724985E-1,-1.380514801E-1
2.001527250E0,2.958027720E-1,-2.147128135E-1,-1.197260618E-1
2.011241312E0,4.607315361E-1,-2.843494117E-1,-1.050657257E-1
2.020954489E0,5.926745534E-1,-3.112266660E-1,-9.284878522E-2
2.030666885E0,7.050704360E-1,-2.916795611E-1,-8.307522535E-2
2.040380062E0,7.905890942E-1,-1.963873953E-1,-7.452336699E-2
2.050094125E0,8.541171551E-1,-7.024743594E-3,-7.696675509E-2
2.059807302E0,9.164236188E-1,2.470877171E-1,-1.014006436E-1
2.069519697E0,9.897252917E-1,5.097520351E-1,-1.478250325E-1
2.079232979E0,1.077687263E0,7.626428008E-1,-2.028012872E-1
2.088946937E0,1.155875683E0,9.984298348E-1,-2.577775419E-1
2.098660114E0,1.185196400E0,1.178018928E0,-2.968717813E-1
2.108372510E0,1.143658757E0,1.278197885E0,-3.054236174E-1
2.118085791E0,1.052031636E0,1.272089362E0,-2.883199155E-1
2.127799750E0,9.542961121E-1,1.113269091E0,-2.577775419E-1
2.137512927E0,8.272398710E-1,8.054021001E-1,-2.321219593E-1
2.147225322E0,6.610894203E-1,4.498890042E-1,-1.930277348E-1
2.156938604E0,4.802786708E-1,2.434226274E-1,-1.343863904E-1
2.166652614E0,2.872509360E-1,2.324273884E-1,-7.452336699E-2
2.176365739E0,1.003316641E-1,3.032856584E-1,-4.764608666E-2
2.186078187E0,-6.826218218E-2,3.313846290E-1,-4.520269856E-2
2.195791364E0,-2.270824611E-1,2.275405973E-1,-3.665083647E-2
2.205505427E0,-3.932329118E-1,-1.557660475E-2,-2.321219631E-2
2.215218552E0,-5.630484819E-1,-3.344388604E-1,-4.275930673E-2
2.224931000E0,-6.730009913E-1,-6.166502833E-1,-6.474980712E-2
2.234644177E0,-5.300627351E-1,-7.375980616E-1,-2.076880634E-2
2.244358239E0,-2.600682080E-1,-6.093201637E-1,4.031591862E-2
2.254071416E0,-1.244601309E-1,-3.918585181E-1,-2.565558441E-2
2.263783812E0,-2.124221325E-1,-2.452551723E-1,-1.869192570E-1
2.273497093E0,-3.822376728E-1,-2.611372173E-1,-2.870981991E-1
2.283211052E0,-3.810159862E-1,-3.906368315E-1,-2.577775419E-1
2.292924229E0,-2.075353563E-1,-5.775560737E-1,-1.148392856E-1
2.302636625E0,8.704573847E-3,-6.545228362E-1,3.176405653E-2
2.312349906E0,2.212794125E-1,-5.751127005E-1,1.111742035E-1
2.322063864E0,4.179722369E-1,-4.321744442E-1,1.014006436E-1
2.331777041E0,5.450284481E-1,-2.525853515E-1,5.864133686E-2
2.341489437E0,6.146650314E-1,-4.611896724E-2,3.420744836E-2
2.351202718E0,7.551599145E-1,1.591257155E-1,1.588202827E-2
2.360916729E0,9.652913809E-1,3.423798978E-1,-6.108472589E-3
2.370629854E0,1.161984205E0,4.718795121E-1,-3.542914242E-2
2.380342302E0,1.301257372E0,5.671716928E-1,-9.773556143E-2
2.390055479E0,1.405101418E0,6.343649030E-1,-1.918060333E-1
2.399769541E0,1.500393629E0,6.624638438E-1,-3.042019308E-1
2.409482666E0,1.584690452E0,6.930062175E-1,-4.129327536E-1
2.419195114E0,1.627449751E0,7.614210844E-1,-4.996730685E-1
2.428908291E0,1.601794243E0,8.127322793E-1,-5.546492934E-1
2.438622354E0,1.511388779E0,8.127322793E-1,-5.693096519E-1
2.448335531E0,1.381889224E0,7.773031592E-1,-5.485408306E-1
2.458047927E0,1.254832983E0,7.467607856E-1,-5.008947253E-1
2.467761208E0,1.169314384E0,7.455390692E-1,-4.288147688E-1
2.477475166E0,1.148545504E0,7.235485911E-1,-3.469612300E-1
2.487188343E0,1.174201131E0,6.526902914E-1,-2.736595869E-1
2.496900739E0,1.237729311E0,5.842754245E-1,-2.174616307E-1
2.506614020E0,1.315917730E0,5.647283196E-1,-1.942494214E-1
2.516328031E0,1.359898686E0,6.013791561E-1,-1.881409585E-1
2.526041156E0,1.363563776E0,6.795675755E-1,-1.795890927E-1
2.535753604E0,1.363563776E0,7.626428008E-1,-1.685938388E-1
2.545466781E0,1.395327806E0,7.687512636E-1,-1.722589284E-1
2.555180843E0,1.451525807E0,7.198835015E-1,-1.893626451E-1
2.564893968E0,1.493063450E0,6.478035450E-1,-1.954711229E-1
2.574606416E0,1.482068181E0,5.378510356E-1,-1.869192570E-1
2.584319593E0,1.409988165E0,4.278984964E-1,-1.551551968E-1
2.594033656E0,1.306144118E0,3.729222417E-1,-1.001789495E-1
2.603746833E0,1.209630251E0,3.619270027E-1,-3.665083647E-2
2.613459229E0,1.142437100E0,3.582619131E-1,1.221694518E-3
2.623172510E0,1.099677801E0,3.778090179E-1,3.665083554E-3
2.632886468E0,1.083795786E0,4.144598544E-1,-2.687728032E-2
2.642599645E0,1.078908920E0,4.633276463E-1,-7.818844914E-2
2.652312041E0,1.075243831E0,5.219689608E-1,-1.380514801E-1
2.662025322E0,1.065470338E0,5.696150661E-1,-2.015796006E-1
2.671739333E0,1.042258143E0,5.683933496E-1,-2.504473627E-1
2.681452458E0,9.933903813E-1,5.366293192E-1,-2.736595869E-1
2.691164906E0,9.164236188E-1,5.292991400E-1,-2.467822880E-1
2.700878083E0,8.260182142E-1,5.390726924E-1,-1.747023165E-1
2.710592145E0,7.295043468E-1,5.647283196E-1,-9.162709117E-2
2.720305270E0,6.354338527E-1,5.952706337E-1,-2.076880634E-2
2.730017718E0,5.621321797E-1,5.964923501E-1,2.687728032E-2
2.739730895E0,5.169295073E-1,5.793886185E-1,4.398100078E-2
2.749444958E0,4.986040890E-1,5.818319917E-1,5.253286287E-2
2.759158083E0,5.059342384E-1,6.319214702E-1,4.764608666E-2
2.768870531E0,5.181511641E-1,7.467607856E-1,2.932066843E-2
2.778583708E0,5.144860744E-1,8.848122358E-1,7.330167107E-3
2.788297770E0,4.924955964E-1,9.898779988E-1,-2.076880634E-2
2.798010947E0,4.472928941E-1,1.066844702E0,-5.986303091E-2
2.807723343E0,3.886515796E-1,1.114490867E0,-9.407047927E-2
2.817436625E0,3.312319219E-1,1.123042703E0,-1.075091213E-1
2.827150583E0,2.860292196E-1,1.138924718E0,-1.050657257E-1
2.836863760E0,2.860292196E-1,1.135259628E0,-8.063183725E-2
2.846576156E0,3.019112647E-1,1.069288135E0,-3.176405653E-2
2.856289437E0,2.896943092E-1,9.752176404E-1,1.954711229E-2
2.866003395E0,2.701472044E-1,8.835905790E-1,5.864133686E-2
2.875716572E0,2.420482337E-1,8.176190853E-1,7.818844914E-2
2.885428968E0,1.846285909E-1,7.919634581E-1,6.719319522E-2
2.895142250E0,7.223268598E-2,8.078454733E-1,1.832541823E-2
2.904856260E0,-6.704048812E-2,8.493831158E-1,-6.963659078E-2
2.914569385E0,-1.415638477E-1,9.617789984E-1,-1.820324808E-1
2.924281781E0,-1.061347127E-1,1.099830508E0,-2.809897363E-1
2.933995062E0,-3.405473381E-2,1.126707792E0,-3.176405728E-1
2.943709072E0,-3.527642787E-2,1.033859015E0,-2.870981991E-1
2.953422197E0,-1.586675793E-1,8.200624585E-1,-2.052446753E-1
2.963134645E0,-3.883461356E-1,5.757235289E-1,-9.284878522E-2
2.972847822E0,-6.803311110E-1,3.692571819E-1,2.076880634E-2
2.982561885E0,-9.747595191E-1,1.139230132E-1,1.246128380E-1
2.992275010E0,-1.264301062E0,-1.194206402E-1,1.893626451E-1
3.001987458E0,-1.557660460E0,-2.342599183E-1,2.076880634E-1
3.011700635E0,-1.830098391E0,-2.086043358E-1,2.015796006E-1
3.021414697E0,-2.078102350E0,-8.521319181E-2,1.979145110E-1
3.031127822E0,-2.305337667E0,6.872031838E-2,2.089097649E-1
3.040840270E0,-2.499587059E0,1.517955512E-1,2.223484069E-1
3.050553447E0,-2.647412062E0,1.469087601E-1,2.443388999E-1
3.060267510E0,-2.753699541E0,1.078145429E-1,2.993151546E-1
3.069980687E0,-2.809897423E0,-5.589252338E-2,3.921639323E-1
3.079693083E0,-2.837996483E0,-3.197785318E-1,4.960079789E-1
3.089406260E0,-2.841661453E0,-5.543438792E-1,6.108472347E-1
3.099120322E0,-2.817227602E0,-6.875085831E-1,7.330167294E-1
3.108833500E0,-2.773246527E0,-6.862868667E-1,8.393041492E-1
3.118545895E0,-2.725600481E0,-5.775560737E-1,8.942803741E-1
3.128259072E0,-2.646190405E0,-3.552076817E-1,8.845068216E-1
3.137973135E0,-2.493478537E0,-1.145338640E-1,8.234221339E-1
3.147686312E0,-2.278460264E0,9.681928903E-2,7.305732965E-1
3.157398708E0,-2.032899618E0,2.959555089E-1,6.242858768E-1
3.167111989E0,-1.798334360E0,4.621059597E-1,5.338805318E-1
3.176825947E0,-1.635848999E0,5.671716928E-1,4.508052766E-1
3.186539125E0,-1.583316088E0,6.649072170E-1,4.007157981E-1
3.196251520E0,-1.599198103E0,6.771242023E-1,3.823903799E-1
3.205964802E0,-1.618745208E0,5.549547076E-1,3.652866483E-1
3.215678760E0,-1.616301894E0,4.034646153E-1,3.371876776E-1
3.225391937E0,-1.597976446E0,3.374931216E-1,2.980934680E-1
3.235104333E0,-1.545443535E0,3.301629424E-1,2.345653474E-1
3.244817510E0,-1.453816533E0,3.362714052E-1,1.588202864E-1
3.254531572E0,-1.341420531E0,3.875826001E-1,9.529217333E-2
3.264244750E0,-1.227650285E0,5.207473040E-1,3.909422457E-2
3.273957145E0,-1.109145880E0,6.795675755E-1,-2.932066843E-2
3.283670322E0,-9.600991607E-1,7.687512636E-1,-1.038440317E-1
3.293384385E0,-7.866185308E-1,7.516475320E-1,-1.551551968E-1
3.303097562E0,-5.935907960E-1,6.734591126E-1,-1.722589284E-1
3.312809958E0,-3.993414044E-1,6.038225293E-1,-1.673721522E-1
3.322523135E0,-2.148655206E-1,5.500679612E-1,-1.392731816E-1
3.332237197E0,-3.405473381E-2,5.085303187E-1,-9.651386738E-2
3.341950375E0,1.406475753E-1,4.523324072E-1,-4.275930673E-2
3.351662770E0,3.055763543E-1,3.607053161E-1,4.886778072E-3
3.361375947E0,4.582881629E-1,2.373141646E-1,3.787253052E-2
3.371090010E0,5.975613594E-1,1.236965731E-1,6.352811307E-2
3.380803187E0,7.148439884E-1,2.962609194E-2,8.185353130E-2
3.390515583E0,8.162446618E-1,-3.023693897E-2,8.918370306E-2
3.400228760E0,9.176452756E-1,-2.657185495E-2,8.063183725E-2
3.409942822E0,1.022711039E0,6.505523622E-2,6.719319522E-2
3.419655947E0,1.119224906E0,2.690782249E-1,5.253286287E-2
3.429368395E0,1.207186937E0,5.402944088E-1,4.520269856E-2
3.439081572E0,1.260941505E0,8.530482054E-1,4.031591862E-2
3.448795635E0,1.269493341E0,1.184127450E0,3.787253052E-2
3.458508760E0,1.230399132E0,1.477334142E0,5.986303091E-2
3.468221208E0,1.124111652E0,1.675248623E0,9.895725548E-2
3.477934385E0,9.555178285E-1,1.780314326E0,1.478250325E-1
3.487648447E0,7.453863621E-1,1.741220117E0,2.076880634E-1
3.497361572E0,5.328115225E-1,1.520093441E0,2.431172132E-1
3.507073968E0,3.568875194E-1,1.197566032E0,2.211267054E-1
3.516787250E0,1.968455315E-1,8.933641315E-1,1.795890927E-1
3.526501260E0,6.245913357E-2,6.832326651E-1,1.624853760E-1
3.536214385E0,-3.161134571E-2,6.404733658E-1,1.649287641E-1
3.545926781E0,-1.073564067E-1,7.272136807E-1,1.392731816E-1
3.555640062E0,-1.867665499E-1,7.980719209E-1,5.986303091E-2
3.565354020E0,-2.722851634E-1,7.699729800E-1,-5.497625470E-2
3.575067197E0,-2.539597452E-1,6.331431866E-1,-1.246128380E-1
3.584779593E0,-1.427855492E-1,5.244123936E-1,-1.942494214E-1
3.594492875E0,-1.342336833E-1,5.549547076E-1,-3.506263196E-1
3.604206833E0,-2.417428046E-1,5.745018721E-1,-5.326588154E-1
3.613920010E0,-3.822376728E-1,4.083513916E-1,-6.511631608E-1
3.623632406E0,-4.494308829E-1,1.236965731E-1,-6.694886088E-1
3.633345687E0,-3.541387022E-1,-2.635805905E-1,-5.179984570E-1
3.643059645E0,-1.488940120E-1,-5.238015056E-1,-2.932066917E-1
3.652772822E0,1.235438585E-1,-5.616740584E-1,-1.331647038E-1
3.662485218E0,3.898732662E-1,-5.751127005E-1,-7.941014320E-2
3.672198395E0,5.267030597E-1,-5.189147592E-1,-6.597150117E-2
3.681912458E0,5.963396430E-1,-2.855710983E-1,-5.497625470E-2
3.691625635E0,7.918107510E-1,9.071081877E-2,-7.207997888E-2
3.701338031E0,1.108229637E0,4.315635860E-1,-1.148392856E-1
3.711051208E0,1.395327806E0,6.074876189E-1,-1.270562261E-1
3.720765270E0,1.524827480E0,6.160394549E-1,-9.284878522E-2
3.730478447E0,1.502836943E0,5.341859460E-1,-5.497625470E-2
3.740190843E0,1.405101418E0,4.230117202E-1,-9.773556143E-3
3.749904020E0,1.297592282E0,3.741439581E-1,6.352811307E-2
3.759618083E0,1.216960430E0,4.926483035E-1,1.380514801E-1
3.769331208E0,1.179087877E0,7.076665759E-1,1.722589284E-1
3.779043656E0,1.172979474E0,8.518264890E-1,1.466033459E-1
3.788756833E0,1.174201131E0,8.970292211E-1,5.986303091E-2
3.798470895E0,1.193748236E0,9.532271624E-1,-7.207997888E-2
3.808184072E0,1.240172625E0,1.042410851E0,-1.685938388E-1
3.817896468E0,1.303700805E0,1.112047434E0,-2.137965411E-1
3.827609645E0,1.361120462E0,1.130372882E0,-2.455606014E-1
3.837323708E0,1.372115612E0,1.113269091E0,-2.675510943E-1
3.847036885E0,1.336686492E0,1.120599270E0,-2.883199155E-1
3.856749281E0,1.271936655E0,1.149919987E0,-3.017585576E-1
3.866462458E0,1.192526579E0,1.137703061E0,-3.017585576E-1
3.876176520E0,1.119224906E0,1.072953224E0,-2.870981991E-1
3.885889697E0,1.054475069E0,9.715525508E-1,-2.504473627E-1
3.895602093E0,9.787300229E-1,8.774821162E-1,-1.893626451E-1
3.905315270E0,8.968765140E-1,8.127322793E-1,-1.307213157E-1
3.915029333E0,8.296833038E-1,7.931851745E-1,-9.651386738E-2
3.924742510E0,7.942541242E-1,8.286142945E-1,-8.674030751E-2
3.934454906E0,8.003626466E-1,9.214630723E-1,-9.407047927E-2
3.944168187E0,8.394568563E-1,1.048519373E0,-1.172826737E-1
3.953882145E0,8.895463347E-1,1.186570764E0,-1.502684206E-1
3.963595322E0,9.359707236E-1,1.302631736E0,-1.905843467E-1
3.973307718E0,9.628480077E-1,1.416249394E0,-2.296785712E-1
3.983021000E0,9.591829181E-1,1.490772724E0,-2.577775419E-1
3.992734958E0,9.457442760E-1,1.520093441E0,-2.712161839E-1
4.002448135E0,9.249754548E-1,1.537197113E0,-2.602209449E-1
4.012160531E0,8.724426031E-1,1.522536755E0,-2.309002578E-1
4.021873812E0,7.832589149E-1,1.478555799E0,-1.942494214E-1
4.031587822E0,6.879667044E-1,1.443126678E0,-1.698155403E-1
4.041300947E0,5.975613594E-1,1.424801230E0,-1.661504507E-1
4.051013395E0,5.462501645E-1,1.444348335E0,-1.637070626E-1
4.060726572E0,5.548020005E-1,1.487107635E0,-1.661504507E-1
4.070440635E0,5.877877474E-1,1.540862203E0,-1.685938388E-1
4.080153812E0,6.048914790E-1,1.600725293E0,-1.685938388E-1
4.089866208E0,5.987830162E-1,1.634932637E0,-1.722589284E-1
4.099579489E0,5.560237169E-1,1.647149682E0,-1.893626451E-1
4.109293447E0,4.961606860E-1,1.611720443E0,-2.015796006E-1
4.119006625E0,4.436278343E-1,1.538418770E0,-2.101314515E-1
4.128719020E0,3.923166394E-1,1.491994381E0,-2.150182426E-1
4.138432302E0,3.214583695E-1,1.506654739E0,-1.930277348E-1
4.148146312E0,2.359397560E-1,1.572626233E0,-1.453816444E-1
4.157859437E0,1.528645307E-1,1.625159144E0,-1.148392856E-1
4.167571885E0,1.223221645E-1,1.628824234E0,-1.343863904E-1
4.177285062E0,1.553079188E-1,1.555522561E0,-1.869192570E-1
4.186999125E0,1.882936656E-1,1.474890709E0,-2.333436459E-1
4.196712302E0,1.736333370E-1,1.445569992E0,-2.712161839E-1
4.206424697E0,1.211004704E-1,1.423579574E0,-2.980934680E-1
4.216137979E0,3.924693540E-2,1.346612811E0,-3.164188862E-1
4.225851989E0,-6.215370819E-2,1.197566032E0,-3.371876776E-1
4.235565114E0,-1.879882365E-1,9.959864616E-1,-3.432961702E-1
4.245277562E0,-3.174878657E-1,8.212841153E-1,-2.822114229E-1
4.254990843E0,-4.188885093E-1,8.066238165E-1,-1.624853760E-1
4.264704802E0,-4.604261220E-1,9.849911928E-1,-4.764608666E-2
4.274417979E0,-4.176668227E-1,1.175575495E0,2.565558441E-2
4.284130427E0,-3.883461356E-1,1.280641317E0,3.176405653E-2
4.293843604E0,-4.921901822E-1,1.363716483E0,-2.076880634E-2
4.303557666E0,-6.925480962E-1,1.394258857E0,-9.895725548E-2
4.313270843E0,-9.148964882E-1,1.297744989E0,-1.624853760E-1
4.322983239E0,-1.181225896E0,1.114490867E0,-1.820324808E-1
4.332696520E0,-1.492910743E0,8.811471462E-1,-1.429382563E-1
4.342410531E0,-1.860640764E0,6.710157394E-1,-4.520269856E-2
4.352123656E0,-2.268686771E0,5.549547076E-1,9.651386738E-2
4.361836104E0,-2.676732779E0,5.012001991E-1,2.748812735E-1
4.371549385E0,-3.056679726E0,4.291202128E-1,4.581354558E-1
4.381263343E0,-3.406084299E0,3.448232710E-1,6.303943992E-1
4.390976520E0,-3.682187319E0,2.556395829E-1,7.586722970E-1
4.400688968E0,-3.860554695E0,4.184303805E-2,8.234221339E-1
4.410402250E0,-3.969285488E0,-2.709107697E-1,8.466343284E-1
4.420116260E0,-3.941186428E0,-4.578300118E-1,8.209787011E-1
4.429829385E0,-3.775036097E0,-3.955236077E-1,7.244648337E-1
4.439541833E0,-3.525810480E0,-2.208212912E-1,6.230642200E-1
4.449255114E0,-3.261924267E0,-9.865183383E-2,5.570927262E-1
4.458969125E0,-3.054236412E0,2.107422985E-2,5.595360994E-1
4.468682250E0,-2.891750813E0,2.055501044E-1,6.365028620E-1
4.478394697E0,-2.764694691E0,3.936910629E-1,7.391251922E-1
4.488107979E0,-2.596100807E0,4.352286756E-1,8.197570443E-1
4.497821989E0,-2.384747744E0,3.631486893E-1,8.405258060E-1
4.507535114E0,-2.199050188E0,3.362714052E-1,8.173136115E-1
4.517247562E0,-2.065885544E0,4.169032574E-1,8.002098799E-1
4.526960843E0,-1.993805408E0,5.060869455E-1,7.672241330E-1
4.536674854E0,-1.949824452E0,5.219689608E-1,7.098045349E-1
4.546387979E0,-1.900956631E0,4.816530645E-1,6.621584296E-1
4.556100427E0,-1.833763480E0,4.107947946E-1,6.218425035E-1
4.565813708E0,-1.749466538E0,3.130592108E-1,5.864133835E-1
4.575527718E0,-1.640735745E0,1.847812980E-1,5.595360994E-1
4.585240895E0,-1.512457848E0,6.994201243E-2,5.619794726E-1
4.594953291E0,-1.385401607E0,1.527118147E-3,5.961869359E-1
4.604666572E0,-1.267966151E0,-1.557660475E-2,6.597150564E-1
4.614380583E0,-1.142131686E0,3.970507067E-3,7.232431769E-1
4.624093760E0,-9.979717135E-1,5.650337040E-2,7.537854910E-1
4.633806208E0,-8.464815617E-1,1.224748790E-1,7.464553714E-1
4.643519489E0,-6.742226481E-1,2.092151791E-1,7.134696245E-1
4.653233500E0,-4.616478086E-1,3.069507480E-1,6.633801460E-1
4.662946625E0,-2.124221325E-1,3.582619131E-1,6.035171151E-1
4.672659072E0,4.657710344E-2,3.814741075E-1,5.473191738E-1
4.682372354E0,2.896943092E-1,4.132381678E-1,5.179984570E-1
4.692086364E0,5.132644176E-1,4.547757804E-1,5.118899941E-1
4.701799541E0,7.099572420E-1,4.938700199E-1,5.082249045E-1
4.711511989E0,8.602256775E-1,5.170822144E-1,5.021164417E-1
4.721225270E0,9.469659925E-1,5.439594984E-1,4.850127101E-1
4.730939281E0,1.001942158E0,6.282563806E-1,4.581354558E-1
4.740652458E0,1.050809979E0,7.968502641E-1,4.373666346E-1
4.750364854E0,1.096012712E0,1.020420313E0,4.300364852E-1
4.760078135E0,1.143658757E0,1.242768764E0,4.275930822E-1
4.769792145E0,1.186418056E0,1.446791768E0,4.361449480E-1
4.779505322E0,1.203521848E0,1.633710980E0,4.605788291E-1
4.789217770E0,1.166870952E0,1.774205923E0,4.825693369E-1
4.798931052E0,1.077687263E0,1.797418118E0,4.825693369E-1
4.808645062E0,9.738432169E-1,1.661809921E0,4.593571424E-1
4.818358239E0,8.822161555E-1,1.385707021E0,3.994941115E-1
4.828070687E0,7.979192138E-1,1.022863746E0,3.090887070E-1
4.837783968E0,7.001836896E-1,6.453601122E-1,2.089097649E-1
4.847497979E0,5.926745534E-1,3.753656447E-1,1.172826737E-1
4.857211156E0,4.778352678E-1,3.216110766E-1,5.864133686E-2
4.866923604E0,3.739912212E-1,4.474456310E-1,2.932066843E-2
4.876636885E0,2.860292196E-1,6.490252018E-1,-1.466033421E-2
4.886350895E0,1.809635013E-1,8.237275481E-1,-1.014006436E-1
4.896064072E0,2.947338112E-2,8.811471462E-1,-1.954711229E-1
4.905776520E0,4.046862945E-2,7.882983685E-1,-1.808107942E-1
4.915489802E0,2.237228155E-1,6.111527085E-1,-1.343863904E-1
4.925203812E0,3.752129376E-1,3.155026138E-1,-1.722589284E-1
4.934916989E0,3.764346242E-1,-1.010952219E-1,-2.822114229E-1
4.944629437E0,2.041756958E-1,-4.590517282E-1,-4.165978432E-1
4.954342718E0,-1.084253844E-2,-4.749337435E-1,-4.532486796E-1
4.964056729E0,-4.382828996E-2,-3.197785318E-1,-2.846548259E-1
4.973769906E0,1.174353883E-1,-3.014531136E-1,-4.642439261E-2
4.983482354E0,3.373403847E-1,-3.307738006E-1,9.651386738E-2
4.993195635E0,5.609105229E-1,-1.340809762E-1,1.319430023E-1
5.002909697E0,7.930324674E-1,2.861819267E-1,1.307213157E-1
5.012622875E0,9.921686649E-1,7.443174124E-1,1.478250325E-1
5.022335270E0,1.127776742E0,1.014311910E0,1.905843467E-1
5.032048604E0,1.212073684E0,1.036302328E0,2.162399292E-1
5.041762614E0,1.246281147E0,9.324583411E-1,2.174616307E-1
5.051475791E0,1.248724461E0,8.457180262E-1,2.040229887E-1
5.061188239E0,1.282931924E0,7.846332788E-1,1.783674061E-1
5.070901520E0,1.389219403E0,7.235485911E-1,1.404948682E-1
5.080615531E0,1.534600973E0,7.040014863E-1,7.330167294E-2
5.090328708E0,1.657992125E0,7.198835015E-1,-3.298575059E-2
5.100041156E0,1.715411782E0,7.113316059E-1,-1.820324808E-1
5.109754437E0,1.697086453E0,6.221479177E-1,-3.371876776E-1
5.119468500E0,1.621341348E0,4.865398407E-1,-4.373666346E-1
5.129181677E0,1.530935884E0,3.753656447E-1,-4.398100376E-1
5.138894125E0,1.474738002E0,3.106158376E-1,-3.665083647E-1
5.148607406E0,1.463742733E0,2.312056869E-1,-2.663294077E-1
5.158321416E0,1.462521076E0,1.481304616E-1,-1.563768983E-1
5.168034593E0,1.458855987E0,1.041494608E-1,-4.398100078E-2
5.177747093E0,1.457634330E0,1.175880954E-1,4.275930673E-2
5.187460375E0,1.451525807E0,2.031067163E-1,9.162709117E-2
5.197174385E0,1.423426867E0,2.898470163E-1,1.050657257E-1
5.206887562E0,1.379445791E0,3.497100472E-1,8.185353130E-2
5.216600010E0,1.336686492E0,4.095730782E-1,4.031591862E-2
5.226313343E0,1.300035715E0,4.926483035E-1,0.000000000E0
5.236027354E0,1.273158431E0,5.769452453E-1,-4.031591862E-2
5.245740531E0,1.258498073E0,6.575770974E-1,-8.307522535E-2
5.255452979E0,1.253611326E0,7.418739796E-1,-1.185043678E-1
5.265166260E0,1.251167893E0,8.017370105E-1,-1.490467340E-1
5.274880322E0,1.243837714E0,8.457180262E-1,-1.808107942E-1
5.284593500E0,1.225512266E0,8.848122358E-1,-1.930277348E-1
5.294305947E0,1.207186937E0,9.190196991E-1,-1.820324808E-1
5.304019229E0,1.183974743E0,9.361234307E-1,-1.551551968E-1
5.313733291E0,1.161984205E0,9.226847887E-1,-1.270562261E-1
5.323446468E0,1.147323847E0,9.153546095E-1,-1.185043678E-1
5.333158916E0,1.130220175E0,9.300149679E-1,-1.221694499E-1
5.342872250E0,1.111894727E0,9.373451471E-1,-1.258345395E-1
5.352586260E0,1.093569279E0,9.373451471E-1,-1.282779276E-1
5.362299437E0,1.063026905E0,9.446752667E-1,-1.258345395E-1
5.372011885E0,1.000720501E0,9.520054460E-1,-1.160609797E-1
5.381725218E0,9.127585292E-1,9.300149679E-1,-8.674030751E-2
5.391439229E0,8.296833038E-1,8.774821162E-1,-4.398100078E-2
5.401152406E0,7.685985565E-1,8.200624585E-1,1.221694518E-3
5.410864906E0,7.429429889E-1,7.687512636E-1,3.909422457E-2
5.420578187E0,7.441646457E-1,7.321004272E-1,6.352811307E-2
5.430292197E0,7.563816309E-1,7.577560544E-1,5.864133686E-2
5.440005479E0,7.563816309E-1,8.444963098E-1,2.199050039E-2
5.449717875E0,7.380561829E-1,9.324583411E-1,-4.275930673E-2
5.459431156E0,7.014053464E-1,9.984298348E-1,-1.185043678E-1
5.469145218E0,6.610894203E-1,1.052184463E0,-1.844758689E-1
5.478858395E0,6.109999418E-1,1.059514523E0,-2.186833173E-1
5.488570843E0,5.511369109E-1,9.801044464E-1,-2.076880634E-1
5.498284177E0,5.059342384E-1,8.383878469E-1,-1.661504507E-1
5.507998187E0,4.802786708E-1,6.905628443E-1,-1.038440317E-1
5.517711468E0,4.485146105E-1,5.842754245E-1,-2.321219631E-2
5.527423864E0,3.849864900E-1,5.586197972E-1,7.085828483E-2
5.537137145E0,2.701472044E-1,5.952706337E-1,1.649287641E-1
5.546851208E0,1.174353883E-1,6.368082762E-1,2.406738251E-1
5.556564385E0,-1.695101149E-2,6.209262609E-1,2.663294077E-1
5.566276833E0,-1.012479365E-1,5.549547076E-1,2.272351831E-1
5.575990166E0,-1.378987730E-1,4.547757804E-1,1.404948682E-1
5.585704177E0,-1.525591016E-1,3.802524209E-1,5.131116882E-2
5.595417458E0,-1.501157135E-1,4.303418994E-1,-4.520269856E-2
5.605129854E0,-9.147437662E-2,6.917845011E-1,-1.539335102E-1
5.614843187E0,2.336490713E-2,1.091278672E0,-2.272351831E-1
5.624557197E0,1.455343664E-1,1.379598498E0,-2.394521236E-1
5.634270479E0,1.626380831E-1,1.473669052E0,-1.820324808E-1
5.643982875E0,-1.068982761E-3,1.367381573E0,-1.038440317E-1
5.653696156E0,-3.187095523E-1,9.984298348E-1,-4.398100078E-2
5.663410218E0,-7.047650218E-1,5.659499764E-1,-8.551862091E-3
5.673123500E0,-1.037065983E0,2.641914487E-1,2.199050039E-2
5.682835895E0,-1.269187927E0,-1.068982668E-2,5.253286287E-2
5.692549229E0,-1.475806952E0,-3.002314270E-1,6.719319522E-2
5.702263239E0,-1.703042150E0,-4.993676245E-1,6.108472496E-2
5.711976520E0,-1.952267885E0,-6.093201637E-1,6.474980712E-2
5.721688916E0,-2.210045338E0,-7.351546884E-1,8.796200156E-2
5.731402197E0,-2.448275805E0,-8.793146014E-1,1.417165697E-1
5.741116260E0,-2.648633718E0,-9.794935584E-1,2.284568697E-1
5.750829541E0,-2.800123930E0,-1.072342396E0,3.567348123E-1
5.760541937E0,-2.878312349E0,-1.231162667E0,4.984513521E-1
5.770255270E0,-2.900302887E0,-1.414416790E0,6.230642200E-1
5.779969281E0,-2.856321812E0,-1.585454106E0,7.159129977E-1
5.789682562E0,-2.751255989E0,-1.608666301E0,7.647807598E-1
5.799394958E0,-2.622978210E0,-1.343558550E0,7.782194018E-1
5.809108291E0,-2.480039835E0,-9.355126023E-1,7.488987446E-1
5.818822354E0,-2.339545012E0,-5.225798488E-1,7.036960125E-1
5.828535531E0,-2.207602024E0,-1.438545287E-1,6.340594292E-1
5.838248031E0,-2.113531590E0,8.460234851E-2,5.277720094E-1
5.847961312E0,-2.065885544E0,7.727217674E-2,3.787252903E-1
5.857675375E0,-2.041451454E0,-1.695101112E-1,2.309002578E-1
5.867388656E0,-2.037786484E0,-5.274665952E-1,1.343863904E-1
5.877101052E0,-2.052446842E0,-8.670976758E-1,8.918370306E-2
5.886814385E0,-2.043895006E0,-1.097997904E0,7.574506104E-2
5.896528395E0,-1.993805408E0,-1.167634487E0,8.063183725E-2
5.906241677E0,-1.907065153E0,-1.107771516E0,9.773556143E-2
5.915954072E0,-1.797112584E0,-9.697200060E-1,9.407047927E-2
5.925667406E0,-1.668834686E0,-7.864658237E-1,4.886778072E-2
5.935381468E0,-1.517344594E0,-5.738909841E-1,-2.809897438E-2
5.945094750E0,-1.368297815E0,-3.833066523E-1,-1.123958975E-1
5.954807145E0,-1.226428628E0,-2.623589039E-1,-1.771457046E-1
5.964520479E0,-1.082268596E0,-1.915006191E-1,-2.028012872E-1
5.974234489E0,-9.368869662E-1,-1.475196183E-1,-1.966928244E-1
5.983947770E0,-8.000571728E-1,-1.353026628E-1,-1.575985998E-1
5.993660218E0,-6.742226481E-1,-1.658450365E-1,-1.014006436E-1
6.003373500E0,-5.483881235E-1,-2.257080674E-1,-6.474980712E-2
6.013087562E0,-4.176668227E-1,-2.904578745E-1,-5.741964281E-2
6.022800843E0,-2.710634768E-1,-3.258870244E-1,-6.841489673E-2
6.032513291E0,-1.012479365E-1,-3.161134422E-1,-8.063183725E-2
6.042226572E0,8.078455180E-2,-2.770192325E-1,-9.895725548E-2
6.051940635E0,2.579302490E-1,-2.220429778E-1,-1.123958975E-1
6.061653916E0,4.216373265E-1,-1.548497826E-1,-1.209477559E-1
6.071366312E0,5.731274486E-1,-8.154810965E-2,-1.233911440E-1
6.081079645E0,7.099572420E-1,2.596100792E-2,-1.172826737E-1
6.090793708E0,8.590039611E-1,1.762294322E-1,-1.050657257E-1
6.100506989E0,1.016602516E0,3.472666740E-1,-1.014006436E-1
6.110219385E0,1.150988936E0,5.256340504E-1,-1.123958975E-1
6.119932718E0,1.264606595E0,6.991146803E-1,-1.282779276E-1
6.129646781E0,1.362342119E0,8.518264890E-1,-1.368297935E-1
6.139360062E0,1.427091956E0,9.727742672E-1,-1.441599578E-1
6.149072458E0,1.428313613E0,1.048519373E0,-1.527118087E-1
6.158785791E0,1.313474298E0,1.114490867E0,-1.600419879E-1
6.168499854E0,1.102121115E0,1.163358569E0,-1.649287641E-1
6.178213135E0,8.528954983E-1,1.235438585E0,-1.734806150E-1
6.187925531E0,6.305471063E-1,1.272089362E0,-1.710372269E-1
6.197638864E0,4.741701782E-1,1.181684017E0,-1.710372269E-1
6.207352927E0,3.581092060E-1,9.385668039E-1,-1.954711229E-1
6.217066208E0,2.176143378E-1,5.451811552E-1,-2.370087355E-1
6.226778656E0,2.214321308E-2,1.004843712E-1,-2.589992285E-1
6.236491937E0,-2.160872221E-1,-2.770192325E-1,-2.455606014E-1
6.246206000E0,-4.543176591E-1,-5.421269536E-1,-2.076880634E-1
6.255919281E0,-6.546755433E-1,-7.437065244E-1,-1.759240031E-1
6.265631729E0,-7.976137996E-1,-8.842014074E-1,-1.600419879E-1
6.275345062E0,-7.084301114E-1,-9.770501852E-1,-1.380514801E-1
6.285059125E0,-4.323271513E-1,-8.451071978E-1,-1.307213157E-1
6.294772406E0,-2.087570578E-1,-4.285093546E-1,-2.089097649E-1
6.304484802E0,-1.036913246E-1,-1.414111406E-1,-3.384093940E-1
6.314198135E0,-1.159082651E-1,-2.086043358E-1,-4.190412164E-1
6.323912197E0,-2.099787444E-1,-5.274665952E-1,-3.823903799E-1
6.333625479E0,-2.405211031E-1,-9.342908859E-1,-1.979145110E-1
6.343337927E0,-1.049130186E-1,-1.128540277E0,3.665083647E-2
6.353051260E0,1.956238300E-1,-1.003927469E0,2.089097649E-1
6.362765322E0,5.792359114E-1,-6.985038519E-1,2.418955117E-1
6.372478604E0,9.188669920E-1,-2.745758295E-1,1.527118087E-1
6.382191000E0,1.153432369E0,1.811162084E-1,2.565558441E-2
6.391904333E0,1.311030984E0,5.207473040E-1,-7.207997888E-2
6.401618395E0,1.449082375E0,6.575770974E-1,-1.466033459E-1
6.411331677E0,1.559034944E0,5.964923501E-1,-1.966928244E-1
6.421044125E0,1.599350810E0,4.559974670E-1,-2.052446753E-1
6.430757458E0,1.583468795E0,2.861819267E-1,-1.722589284E-1
6.440471520E0,1.548039675E0,1.188097894E-1,-1.172826737E-1
6.450184802E0,1.518718958E0,1.985253580E-2,-6.597150117E-2
6.459897250E0,1.496728539E0,3.970507067E-3,-3.054236248E-2
6.469610583E0,1.473516345E0,1.985253580E-2,-2.199050039E-2
6.479324645E0,1.436865449E0,3.329117596E-2,-4.520269856E-2
6.489037927E0,1.386775970E0,5.650337040E-2,-8.429691941E-2
6.498750375E0,1.350125194E0,1.236965731E-1,-1.380514801E-1
6.508463708E0,1.350125194E0,2.397575527E-1,-1.991362125E-1
6.518177770E0,1.384332657E0,3.655920923E-1,-2.528907657E-1
6.527891052E0,1.441752195E0,4.718795121E-1,-2.956500649E-1
6.537603447E0,1.488176584E0,5.341859460E-1,-3.249707520E-1
6.547316833E0,1.480846524E0,5.464028716E-1,-3.384093940E-1
6.557030895E0,1.419761777E0,5.060869455E-1,-3.200839758E-1
6.566744177E0,1.323247910E0,4.217900336E-1,-2.626643181E-1
6.576456625E0,1.199856758E0,3.191677034E-1,-1.747023165E-1
6.586169958E0,1.067913771E0,2.177670449E-1,-8.307522535E-2
6.595884020E0,9.567395449E-1,1.175880954E-1,-9.773556143E-3
6.605597302E0,8.699992299E-1,4.550812021E-2,3.176405653E-2
6.615309750E0,8.260182142E-1,3.939964995E-2,2.687728032E-2
6.625023083E0,8.370134830E-1,1.065928489E-1,-2.076880634E-2
6.634737145E0,8.809944391E-1,2.275405973E-1,-8.551861346E-2
6.644450427E0,9.420791864E-1,3.851391971E-1,-1.551551968E-1
6.654162875E0,1.012937427E0,5.366293192E-1,-2.101314515E-1
6.663876208E0,1.065470338E0,6.478035450E-1,-2.382304370E-1
6.673590270E0,1.085017443E0,7.064448595E-1,-2.370087355E-1
6.683303552E0,1.071578860E0,7.247702479E-1,-2.113531530E-1
6.693016000E0,1.031262875E0,7.137750387E-1,-1.527118087E-1
6.702729333E0,9.775083065E-1,6.502469182E-1,-8.063183725E-2
6.712443395E0,9.249754548E-1,5.586197972E-1,-1.710372418E-2
6.722156677E0,8.761076927E-1,4.999784827E-1,2.321219631E-2
6.731869125E0,8.382351398E-1,4.877615273E-1,4.398100078E-2
6.741582458E0,8.138012886E-1,4.902049303E-1,4.398100078E-2
6.751296572E0,7.930324674E-1,5.097520351E-1,2.687728032E-2
6.761009854E0,7.747070193E-1,5.390726924E-1,-2.443389036E-3
6.770722302E0,7.588250041E-1,5.708367825E-1,-3.420744836E-2
6.780435635E0,7.551599145E-1,6.172611713E-1,-6.230641901E-2
6.790149697E0,7.563816309E-1,6.832326651E-1,-7.330167294E-2
6.799862979E0,7.624900937E-1,7.284353375E-1,-6.352811307E-2
6.809575427E0,7.612683773E-1,7.565343380E-1,-5.131116882E-2
6.819288760E0,7.685985565E-1,7.540909648E-1,-4.886778072E-2
6.829002875E0,7.612683773E-1,7.174401283E-1,-5.497625470E-2
6.838716156E0,7.026270628E-1,7.027797699E-1,-6.230641901E-2
6.848428604E0,6.134433746E-1,7.137750387E-1,-4.886778072E-2
6.858141937E0,5.352548957E-1,7.211052179E-1,-1.099525020E-2
6.867856000E0,4.753918648E-1,7.247702479E-1,4.153761268E-2
6.877569333E0,4.399627447E-1,7.321004272E-1,9.651386738E-2
6.887281781E0,4.130854607E-1,7.565343380E-1,1.478250325E-1
6.896995114E0,3.874298632E-1,7.773031592E-1,1.747023165E-1
6.906709177E0,3.825430870E-1,7.553126216E-1,1.673721522E-1
6.916422458E0,3.923166394E-1,6.746807694E-1,1.417165697E-1
6.926134906E0,3.935383558E-1,5.598415136E-1,1.136175916E-1
6.935848291E0,3.483356535E-1,4.266768098E-1,9.773556143E-2
6.945562354E0,2.542651594E-1,2.739650011E-1,8.429691941E-2
6.955275635E0,1.516428292E-1,1.236965731E-1,8.063183725E-2
6.964988083E0,7.345438004E-2,1.224748790E-1,8.185353130E-2
6.974701416E0,3.924693540E-2,3.448232710E-1,7.330167294E-2
6.984415531E0,4.291202128E-2,5.977140665E-1,4.642439261E-2
6.994128812E0,-7.177455351E-3,7.137750387E-1,9.773556143E-3
7.003841260E0,-2.002051920E-1,6.734591126E-1,-3.542914242E-2
7.013554593E0,-5.325061083E-1,4.657710493E-1,-6.352811307E-2
7.023268708E0,-9.393303990E-1,1.603474021E-1,-4.275930673E-2
7.032981989E0,-1.314390540E0,-1.548497826E-1,2.809897438E-2
7.042694437E0,-1.589424610E0,-4.602734149E-1,1.209477559E-1
7.052407770E0,-1.812994719E0,-7.632536292E-1,2.052446753E-1
7.062121885E0,-2.048781633E0,-9.904888272E-1,2.761029601E-1
7.071835166E0,-2.299229145E0,-1.104106426E0,3.420744538E-1
7.081547614E0,-2.543567896E0,-1.148087382E0,4.153761268E-1
7.091261000E0,-2.772024870E0,-1.187181592E0,4.923428893E-1
7.100975062E0,-2.977269650E0,-1.282473803E0,5.583143830E-1
7.110688343E0,-3.156858683E0,-1.407086611E0,6.059604883E-1
7.120400791E0,-3.257037640E0,-1.496270418E0,6.218425035E-1
7.130114177E0,-3.217943430E0,-1.465728045E0,6.267293096E-1
7.139828239E0,-3.081113577E0,-1.346001983E0,6.401679516E-1
7.149541572E0,-2.917406559E0,-1.200620294E0,6.963658929E-1
7.159254020E0,-2.735373974E0,-9.794935584E-1,8.014315963E-1
7.168967354E0,-2.537459612E0,-6.923953891E-1,9.003888369E-1
7.178681468E0,-2.350540161E0,-4.456130862E-1,9.455915689E-1
7.188394750E0,-2.183168173E0,-2.696890533E-1,9.101623893E-1
7.198107197E0,-2.040229797E0,-1.157555580E-1,8.075400591E-1
7.207820531E0,-1.914395332E0,7.635590620E-3,6.426113248E-1
7.217534645E0,-1.800777674E0,6.139015034E-2,4.129327536E-1
7.227247927E0,-1.706707239E0,2.229592577E-2,1.588202864E-1
7.236960427E0,-1.670056462E0,-6.933116168E-2,-5.986303091E-2
7.246673760E0,-1.676164865E0,-1.768402755E-1,-2.186833173E-1
7.256387822E0,-1.688381791E0,-2.929012477E-1,-3.090887070E-1
7.266101156E0,-1.688381791E0,-3.686463237E-1,-3.530697227E-1
7.275813604E0,-1.652952671E0,-3.710896969E-1,-3.640649617E-1
7.285526937E0,-1.584537745E0,-3.393256664E-1,-3.445178568E-1
7.295241052E0,-1.481915474E0,-3.161134422E-1,-3.371876776E-1
7.304954333E0,-1.359745979E0,-3.234436214E-1,-3.591781855E-1
7.314666833E0,-1.231315374E0,-3.625378609E-1,-4.141544402E-1
7.324380166E0,-1.095707297E0,-4.358395338E-1,-4.825693369E-1
7.334094281E0,-9.674293399E-1,-4.969242513E-1,-5.399889946E-1
7.343807562E0,-8.599202037E-1,-5.079194903E-1,-5.680879354E-1
7.353520010E0,-7.572978735E-1,-5.140279531E-1,-5.729747415E-1
7.363233395E0,-6.571189165E-1,-5.323534012E-1,-5.509842038E-1
7.372947458E0,-5.569399595E-1,-5.506787896E-1,-4.984513521E-1
7.382660791E0,-4.530959427E-1,-5.641174316E-1,-4.214846194E-1
7.392373239E0,-3.370349705E-1,-5.971031785E-1,-3.591781855E-1
7.402086572E0,-2.112004459E-1,-6.545228362E-1,-3.274141252E-1
7.411800687E0,-7.437065244E-2,-7.082774043E-1,-3.164188862E-1
7.421513968E0,8.933641016E-2,-7.241594195E-1,-3.188622594E-1
7.431226468E0,3.019112647E-1,-6.630746722E-1,-3.200839758E-1
7.440939802E0,5.486935377E-1,-4.981459379E-1,-3.176405728E-1
7.450653916E0,7.857022882E-1,-2.293731421E-1,-3.090887070E-1
7.460367197E0,9.946120381E-1,1.029277667E-1,-2.980934680E-1
7.470079697E0,1.192526579E0,4.010212123E-1,-2.944283783E-1
7.479793031E0,1.387997627E0,6.282563806E-1,-2.907632887E-1
7.489507145E0,1.544374585E0,8.396095634E-1,-2.773246467E-1
7.499220427E0,1.622563004E0,1.039967418E0,-2.528907657E-1
7.508932927E0,1.610346079E0,1.211004734E0,-2.162399292E-1
7.518646260E0,1.474738002E0,1.331952453E0,-1.783674061E-1
7.528360375E0,1.196191669E0,1.372268319E0,-1.453816444E-1
7.538073656E0,8.553388715E-1,1.306296825E0,-1.038440317E-1
7.547786156E0,5.657972693E-1,1.186570764E0,-2.565558441E-2
7.557499489E0,3.813214004E-1,1.053406119E0,1.038440317E-1
7.567213604E0,2.799207568E-1,9.190196991E-1,1.918060333E-1
7.576926885E0,1.980672181E-1,7.198835015E-1,1.661504507E-1
7.586639385E0,7.467607409E-2,4.242334068E-1,4.642439261E-2
7.596352718E0,-1.403421611E-1,5.894676223E-2,-8.185353130E-2
7.606066833E0,-4.311054647E-1,-3.258870244E-1,-1.551551968E-1
7.615780166E0,-7.072083950E-1,-6.129852533E-1,-1.795890927E-1
7.625492614E0,-8.831323981E-1,-8.084563613E-1,-2.003578991E-1
7.635205947E0,-9.772028923E-1,-8.414421082E-1,-2.370087355E-1
7.644920062E0,-8.599202037E-1,-7.375980616E-1,-1.820324808E-1
7.654633395E0,-5.544965863E-1,-5.445703268E-1,-7.330167294E-2
7.664345843E0,-2.869454920E-1,-3.307738006E-1,-8.063183725E-2
7.674059229E0,-1.831014603E-1,-2.086043358E-1,-2.137965411E-1
7.683773343E0,-2.441861928E-1,-2.061609477E-1,-3.799470067E-1
7.693486625E0,-2.930539846E-1,-3.368822634E-1,-4.727957845E-1
7.703199125E0,-1.867665499E-1,-6.264238358E-1,-3.897205591E-1
7.712912458E0,5.039489828E-3,-8.548807502E-1,-2.186833173E-1
7.722626572E0,2.151709497E-1,-9.232956171E-1,-1.136175916E-1
7.732339906E0,4.582881629E-1,-8.634325862E-1,-1.343863904E-1
7.742052354E0,7.270609736E-1,-6.569662094E-1,-2.284568697E-1
7.751765739E0,9.567395449E-1,-2.867927849E-1,-3.042019308E-1
7.761479802E0,1.170536041E0,1.102579311E-1,-3.176405728E-1
7.771193135E0,1.387997627E0,4.278984964E-1,-2.932066917E-1
7.780905583E0,1.567586780E0,6.368082762E-1,-2.565558553E-1
7.790618968E0,1.653105378E0,6.771242023E-1,-2.101314515E-1
7.800333083E0,1.628671527E0,5.757235289E-1,-1.478250325E-1
7.810046416E0,1.559034944E0,4.266768098E-1,-6.841489673E-2
7.819758864E0,1.510167122E0,3.326063454E-1,2.443389036E-2
7.829472250E0,1.493063450E0,3.240544796E-1,1.050657257E-1
7.839186312E0,1.491841674E0,3.790307343E-1,1.453816444E-1
7.848899645E0,1.478403091E0,4.828747511E-1,1.172826737E-1
7.858612145E0,1.452747464E0,6.380299330E-1,4.275930673E-2
7.868325479E0,1.430757046E0,8.163973689E-1,-4.642439261E-2
7.878039593E0,1.425870180E0,9.287932515E-1,-1.270562261E-1
7.887752927E0,1.436865449E0,9.202414155E-1,-1.795890927E-1
7.897465375E0,1.438087106E0,8.115105629E-1,-1.893626451E-1
7.907178760E0,1.409988165E0,6.587987542E-1,-1.429382563E-1
7.916892875E0,1.363563776E0,5.158604980E-1,-7.207997888E-2
7.926606208E0,1.308587551E0,3.949127495E-1,-1.221694518E-2
7.936318656E0,1.240172625E0,2.629697323E-1,1.588202827E-2
7.946032041E0,1.159540772E0,1.579040140E-1,1.099525020E-2
7.955746156E0,1.077687263E0,1.078145429E-1,-8.551862091E-3
7.965459489E0,1.019045949E0,1.078145429E-1,-2.809897438E-2
7.975171937E0,9.836167693E-1,1.481304616E-1,-4.031591862E-2
7.984885322E0,9.677347541E-1,2.067717910E-1,-4.764608666E-2
7.994599437E0,9.542961121E-1,2.458660156E-1,-4.398100078E-2
8.004312718E0,9.530744553E-1,2.800734639E-1,-4.398100078E-2
8.014025218E0,9.885035753E-1,3.607053161E-1,-8.063183725E-2
8.023738604E0,1.045923233E0,4.840964675E-1,-1.307213157E-1
8.033452718E0,1.102121115E0,5.793886185E-1,-1.612636745E-1
8.043166000E0,1.131441832E0,6.209262609E-1,-1.722589284E-1
8.052878500E0,1.118003249E0,6.368082762E-1,-1.588202864E-1
8.062591885E0,1.063026905E0,6.600204706E-1,-1.270562261E-1
8.072306000E0,9.958337545E-1,6.881194115E-1,-9.040539712E-2
8.082019281E0,9.310839176E-1,6.783458591E-1,-5.986303091E-2
8.091731781E0,8.736643195E-1,6.294780970E-1,-3.665083647E-2
8.101445166E0,8.370134830E-1,5.793886185E-1,-1.710372418E-2
8.111159281E0,8.284615874E-1,5.402944088E-1,1.221694518E-3
8.120872562E0,8.260182142E-1,5.146388412E-1,2.076880634E-2
8.130585062E0,8.186880350E-1,4.853181541E-1,3.909422457E-2
8.140298447E0,7.991409302E-1,4.621059597E-1,6.352811307E-2
8.150012562E0,7.588250041E-1,4.804313779E-1,9.529217333E-2
8.159725895E0,7.111788988E-1,5.415160656E-1,1.221694499E-1
8.169438343E0,6.830799580E-1,6.661289334E-1,1.466033459E-1
8.179151729E0,6.904101372E-1,8.603783846E-1,1.820324808E-1
8.188865843E0,7.148439884E-1,1.058292866E0,2.003578991E-1
8.198579177E0,7.295043468E-1,1.185349107E0,1.844758689E-1
8.208291677E0,7.258392572E-1,1.232995152E0,1.368297935E-1
8.218005010E0,7.087355256E-1,1.211004734E0,6.597150117E-2
8.227719125E0,6.977402568E-1,1.148698330E0,-6.108472589E-3
8.237432458E0,7.062921524E-1,1.057071209E0,-6.719319522E-2
8.247144958E0,7.099572420E-1,9.471186996E-1,-1.136175916E-1
8.256858343E0,6.671979427E-1,8.371661901E-1,-1.441599578E-1
8.266572458E0,5.511369109E-1,7.149966955E-1,-1.600419879E-1
8.276285791E0,3.764346242E-1,5.696150661E-1,-1.575985998E-1
8.285998239E0,1.919587553E-1,3.778090179E-1,-1.307213157E-1
8.295711625E0,2.336490713E-2,1.175880954E-1,-1.099525094E-1
8.305425739E0,-1.146865711E-1,-1.536280811E-1,-1.026223376E-1
8.315139072E0,-1.989834905E-1,-3.381039500E-1,-7.330167294E-2
8.324851572E0,-2.356343269E-1,-3.319954872E-1,-3.176405653E-2
8.334564958E0,-2.234173864E-1,-5.222744122E-2,9.773556143E-3
8.344279072E0,-1.562241912E-1,3.668137789E-1,4.642439261E-2
8.353992406E0,-8.903098851E-2,7.052231431E-1,6.108472496E-2
8.363704854E0,-1.488940120E-1,8.994725943E-1,3.420744836E-2
8.373418239E0,-3.590254784E-1,9.263498783E-1,-4.764608666E-2
8.383132354E0,-6.571189165E-1,7.394306064E-1,-1.368297935E-1
8.392845687E0,-9.967499971E-1,4.645493329E-1,-1.783674061E-1
8.402558187E0,-1.311947227E0,1.786728203E-1,-1.551551968E-1
8.412271572E0,-1.589424610E0,-1.169772521E-1,-8.063183725E-2
8.421985687E0,-1.883852959E0,-3.930802047E-1,1.466033421E-2
8.431699020E0,-2.194163322E0,-6.300889254E-1,1.160609797E-1
8.441411520E0,-2.481261492E0,-8.561024070E-1,2.199050188E-1
8.451124906E0,-2.726822138E0,-1.076007485E0,3.274141252E-1
8.460839020E0,-2.911298037E0,-1.281252146E0,4.361449480E-1
8.470552354E0,-3.020028830E0,-1.460841179E0,5.412106514E-1
8.480264802E0,-3.062788248E0,-1.554911733E0,6.316160560E-1
8.489978187E0,-3.060344696E0,-1.491383553E0,7.012526393E-1
8.499692354E0,-2.995594978E0,-1.256818295E0,7.440119386E-1
8.509405635E0,-2.844104767E0,-9.135220647E-1,7.684458494E-1
8.519118135E0,-2.619313002E0,-5.824428797E-1,7.672241330E-1
8.528831520E0,-2.366422176E0,-3.063398898E-1,7.330167294E-1
8.538545635E0,-2.108644724E0,-6.200099736E-2,6.633801460E-1
8.548258968E0,-1.882631302E0,1.346918195E-1,5.790832043E-1
8.557971468E0,-1.711593986E0,2.312056869E-1,4.666872919E-1
8.567684854E0,-1.607749939E0,1.945548505E-1,3.506263196E-1
8.577398968E0,-1.555217147E0,6.749862432E-2,2.699944973E-1
8.587112302E0,-1.549108624E0,-1.145338640E-1,2.064663768E-1
8.596824802E0,-1.583316088E0,-3.222219348E-1,1.502684206E-1
8.606538187E0,-1.632183909E0,-4.847072959E-1,1.062874198E-1
8.616252302E0,-1.667613029E0,-5.641174316E-1,7.452336699E-2
8.625965635E0,-1.671278119E0,-5.824428797E-1,5.497625470E-2
8.635678135E0,-1.640735745E0,-5.323534012E-1,4.764608666E-2
8.645391520E0,-1.586981177E0,-4.285093546E-1,4.153761268E-2
8.655105635E0,-1.510014415E0,-3.442124426E-1,1.588202827E-2
8.664818968E0,-1.404948711E0,-3.161134422E-1,-4.520269856E-2
8.674531468E0,-1.277739763E0,-3.210002482E-1,-1.221694499E-1
8.684244854E0,-1.133579850E0,-3.185568452E-1,-1.722589284E-1
8.693959020E0,-9.796462655E-1,-3.002314270E-1,-1.893626451E-1
8.703672302E0,-8.183826208E-1,-2.733541429E-1,-1.832541823E-1
8.713384802E0,-6.522321701E-1,-2.501419485E-1,-1.747023165E-1
8.723098187E0,-4.897467792E-1,-2.244863659E-1,-1.600419879E-1
8.732812354E0,-3.309265077E-1,-1.890572309E-1,-1.490467340E-1
8.742525687E0,-1.721062213E-1,-1.450762302E-1,-1.466033459E-1
8.752238187E0,-1.572931744E-2,-9.620844573E-2,-1.539335102E-1
8.761951572E0,1.406475753E-1,-5.222744122E-2,-1.673721522E-1
8.771665687E0,2.921377122E-1,-3.359660041E-3,-1.747023165E-1
8.781379020E0,4.301891923E-1,6.139015034E-2,-1.722589284E-1
8.791091520E0,5.621321797E-1,1.530172378E-1,-1.514901221E-1
8.800804906E0,6.843016148E-1,2.580829561E-1,-1.185043678E-1
8.810519020E0,7.905890942E-1,3.802524209E-1,-7.818844914E-2
8.820232354E0,8.858812451E-1,5.329642296E-1,-3.054236248E-2
8.829944854E0,9.713998437E-1,7.064448595E-1,1.221694518E-3
8.839658239E0,1.049588323E0,8.872556686E-1,-1.221694518E-3
8.849372406E0,1.108229637E0,1.061957955E0,-3.176405653E-2
8.859085739E0,1.133885264E0,1.217113137E0,-6.963659078E-2
8.868798239E0,1.118003249E0,1.320957184E0,-1.099525094E-1
8.878511625E0,1.047144890E0,1.367381573E0,-1.514901221E-1
8.888225739E0,9.237537384E-1,1.386928678E0,-1.918060333E-1
8.897939072E0,7.918107510E-1,1.395480514E0,-2.137965411E-1
8.907651572E0,6.659762263E-1,1.390593767E0,-2.211267054E-1
8.917364958E0,5.511369109E-1,1.342947721E0,-2.382304370E-1
8.927079072E0,4.387410581E-1,1.274532795E0,-2.748812735E-1
8.936792406E0,3.092414141E-1,1.179240584E0,-3.188622594E-1
8.946504958E0,1.540862173E-1,1.039967418E0,-3.628432751E-1
8.956218343E0,-3.161134571E-2,8.408312798E-1,-3.823903799E-1
8.965932458E0,-2.307475507E-1,5.708367825E-1,-3.677300513E-1
8.975645791E0,-4.188885093E-1,2.104368806E-1,-3.298575282E-1
8.985358291E0,-5.862606764E-1,-1.646233350E-1,-3.017585576E-1
8.995071677E0,-7.243121266E-1,-4.480564594E-1,-3.090887070E-1
9.004785791E0,-7.524111271E-1,-6.239804626E-1,-3.237490356E-1
9.014499177E0,-5.654918551E-1,-6.374191046E-1,-2.528907657E-1
9.024211677E0,-3.162661791E-1,-3.075616062E-1,-1.698155403E-1
9.033925062E0,-1.550024897E-1,1.285833418E-1,-1.759240031E-1
9.043639177E0,-1.159082651E-1,1.994416267E-1,-2.321219593E-1
9.053352510E0,-2.405211031E-1,-8.765657991E-2,-2.919849753E-1
9.063065010E0,-3.932329118E-1,-5.042544007E-1,-2.870981991E-1
9.072778395E0,-3.907895386E-1,-8.561024070E-1,-1.539335102E-1
9.082492562E0,-2.197522968E-1,-9.917105436E-1,1.343864016E-2
9.092205895E0,7.345438004E-2,-9.086353183E-1,9.895725548E-2
9.101918395E0,4.326325655E-1,-6.606312990E-1,7.574506104E-2
9.111631781E0,7.563816309E-1,-2.990097404E-1,-1.588202827E-2
9.121345895E0,9.628480077E-1,8.826743066E-2,-1.136175916E-1
9.131059229E0,1.096012712E0,3.448232710E-1,-1.795890927E-1
9.140771729E0,1.219403863E0,4.327852726E-1,-2.199050188E-1
9.150485166E0,1.302479029E0,4.572191834E-1,-2.162399292E-1
9.160199281E0,1.312252641E0,4.877615273E-1,-1.575985998E-1
9.169912614E0,1.267049909E0,5.244123936E-1,-6.719319522E-2
9.179625114E0,1.243837714E0,5.256340504E-1,1.954711229E-2
9.189338500E0,1.254832983E0,5.060869455E-1,8.429691941E-2
9.199052614E0,1.278045177E0,5.292991400E-1,1.050657257E-1
9.208766000E0,1.281710267E0,5.977140665E-1,7.207997888E-2
9.218478500E0,1.248724461E0,6.465818286E-1,-1.099525020E-2
9.228191885E0,1.192526579E0,6.624638438E-1,-1.038440317E-1
9.237906000E0,1.154654026E0,6.807892919E-1,-1.649287641E-1
9.247619333E0,1.136328578E0,7.137750387E-1,-1.881409585E-1
9.257331833E0,1.119224906E0,7.272136807E-1,-1.808107942E-1
9.267045218E0,1.108229637E0,7.382088900E-1,-1.685938388E-1
9.276759385E0,1.093569279E0,7.956285477E-1,-1.710372269E-1
9.286472718E0,1.075243831E0,9.177979827E-1,-1.869192570E-1
9.296185218E0,1.066691995E0,1.066844702E0,-1.991362125E-1
9.305898604E0,1.065470338E0,1.203674555E0,-2.101314515E-1
9.315612718E0,1.060583591E0,1.296523333E0,-2.223484069E-1
9.325326104E0,1.052031636E0,1.333174109E0,-2.296785712E-1
9.335038604E0,1.034927964E0,1.345391035E0,-2.174616307E-1
9.344751989E0,1.009272337E0,1.347834468E0,-1.881409585E-1
9.354466104E0,9.946120381E-1,1.317292094E0,-1.588202864E-1
9.364179437E0,9.823951125E-1,1.248877168E0,-1.380514801E-1
9.373891937E0,9.628480077E-1,1.191457629E0,-1.282779276E-1
9.383605322E0,9.408574700E-1,1.189014196E0,-1.356080920E-1
9.393319489E0,9.213103652E-1,1.236660242E0,-1.490467340E-1
9.403032822E0,9.029849768E-1,1.281862974E0,-1.575985998E-1
9.412745322E0,8.736643195E-1,1.256207347E0,-1.600419879E-1
9.422458708E0,8.333483934E-1,1.185349107E0,-1.637070626E-1
9.432172822E0,7.930324674E-1,1.091278672E0,-1.612636745E-1
9.441886156E0,7.527165413E-1,1.020420313E0,-1.551551968E-1
9.451598656E0,7.148439884E-1,1.004538298E0,-1.319430023E-1
9.461312093E0,6.781931520E-1,1.024085402E0,-1.026223376E-1
9.471026208E0,6.403206587E-1,1.048519373E0,-8.674030751E-2
9.480739541E0,6.109999418E-1,1.052184463E0,-9.162709117E-2
9.490452041E0,5.926745534E-1,1.039967418E0,-1.026223376E-1
9.500165427E0,5.816792846E-1,1.048519373E0,-1.075091213E-1
9.509879541E0,5.706840754E-1,1.080283403E0,-9.773556143E-2
9.519592927E0,5.596888065E-1,1.127929449E0,-7.207997888E-2
9.529305427E0,5.328115225E-1,1.184127450E0,-4.398100078E-2
9.539018812E0,4.827220440E-1,1.234216928E0,-2.321219631E-2
9.548732927E0,4.240806997E-1,1.256207347E0,-7.330167107E-3
9.558446260E0,3.739912212E-1,1.225664973E0,6.108472589E-3
9.568158760E0,3.312319219E-1,1.159693480E0,1.832541823E-2
9.577872145E0,2.909159958E-1,1.113269091E0,3.298575059E-2
9.587586312E0,2.493783981E-1,1.101052165E0,5.008947477E-2
9.597299645E0,2.090624720E-1,1.135259628E0,6.108472496E-2
9.607012145E0,1.870719790E-1,1.234216928E0,5.008947477E-2
9.616725531E0,2.005106062E-1,1.336839199E0,1.710372418E-2
9.626439645E0,2.359397560E-1,1.373490095E0,-1.954711229E-2
9.636152979E0,2.725905776E-1,1.352721214E0,-5.375456065E-2
9.645865479E0,2.970244884E-1,1.300188422E0,-8.307522535E-2
9.655578864E0,3.116848171E-1,1.219556570E0,-1.123958975E-1
9.665292979E0,3.190149665E-1,1.116934180E0,-1.453816444E-1
9.675006364E0,2.982461751E-1,9.910996556E-1,-1.820324808E-1
9.684718812E0,2.151709497E-1,8.163973689E-1,-1.966928244E-1
9.694432197E0,5.757235363E-2,6.539120078E-1,-1.637070626E-1
9.704146364E0,-1.354553849E-1,5.549547076E-1,-6.108472496E-2
9.713859697E0,-2.906105816E-1,5.720584393E-1,7.207997888E-2
9.723572197E0,-3.284831047E-1,7.736380696E-1,1.734806150E-1
9.733285583E0,-2.490729690E-1,1.108382344E0,2.162399292E-1
9.742999697E0,-1.672194302E-1,1.488329291E0,2.125748396E-1
9.752713031E0,-1.757712960E-1,1.727781415E0,1.490467340E-1
9.762425531E0,-2.967190444E-1,1.615385532E0,5.253286287E-2
9.772138916E0,-5.349494815E-1,1.247655511E0,-1.221694518E-2
9.781853083E0,-8.367080092E-1,8.872556686E-1,-7.330167107E-3
9.791566416E0,-1.101815701E0,6.416950226E-1,6.108472496E-2
9.801278864E0,-1.299730301E0,4.694361091E-1,1.734806150E-1
9.810992302E0,-1.512457848E0,3.142809272E-1,2.895416021E-1
9.820706416E0,-1.760461807E0,1.835595965E-1,3.567348123E-1
9.830419750E0,-2.024347782E0,1.298050433E-1,3.677300513E-1
9.840132250E0,-2.262578249E0,2.104368806E-1,3.665083647E-1
9.849845635E0,-2.410403252E0,3.753656447E-1,3.750602305E-1
9.859559750E0,-2.460492849E0,5.464028716E-1,3.799470067E-1
9.869273083E0,-2.449497461E0,6.074876189E-1,3.921639323E-1
9.878985583E0,-2.427506924E0,4.938700199E-1,4.153761268E-1
9.888698968E0,-2.436058760E0,2.617480457E-1,4.446968138E-1
9.898413083E0,-2.478818178E0,-2.535016090E-2,4.960079789E-1
9.908126416E0,-2.519134045E0,-2.660239935E-1,5.644228458E-1
9.917838916E0,-2.517912388E0,-3.527642787E-1,6.536065936E-1
9.927552302E0,-2.471487999E0,-4.211791754E-1,7.684458494E-1
9.937266468E0,-2.407959938E0,-5.115845799E-1,8.808417320E-1
9.946979802E0,-2.343209982E0,-5.775560737E-1,9.565867782E-1
9.956692250E0,-2.282125473E0,-5.506787896E-1,1.015228152E0
9.966405635E0,-2.207602024E0,-3.527642787E-1,1.032331824E0
9.976119802E0,-2.112309933E0,-2.901524492E-2,9.602518678E-1
9.985833135E0,-1.984031916E0,2.470877171E-1,7.867712975E-1
9.995545583E0,-1.833763480E0,4.511106908E-1,5.888567567E-1
1.000525902E1,-1.663947940E0,6.172611713E-1,4.129327536E-1
1.001497314E1,-1.501462579E0,7.321004272E-1,2.980934680E-1
1.002468647E1,-1.374406338E0,7.626428008E-1,2.553341687E-1
1.003439897E1,-1.282626510E0,7.113316059E-1,2.553341687E-1
1.004411235E1,-1.217876673E0,6.282563806E-1,2.651077211E-1
1.005382647E1,-1.164122105E0,5.537330508E-1,2.651077211E-1
1.006353980E1,-1.115254402E0,4.999784827E-1,2.382304370E-1
1.007325230E1,-1.057834744E0,4.376720488E-1,1.930277348E-1
1.008296569E1,-9.698727131E-1,3.582619131E-1,1.356080920E-1
1.009267980E1,-8.489249945E-1,2.922904193E-1,8.796200156E-2
1.010239314E1,-7.096518278E-1,2.825168669E-1,5.864133686E-2
1.011210558E1,-5.557183027E-1,3.301629424E-1,4.764608666E-2
1.012181902E1,-3.993414044E-1,4.144598544E-1,5.497625470E-2
1.013153314E1,-2.392994165E-1,4.865398407E-1,7.941014320E-2
1.014124647E1,-8.047912270E-2,5.329642296E-1,1.221694499E-1
1.015095892E1,7.223268598E-2,5.586197972E-1,1.624853760E-1
1.016067230E1,2.200577259E-1,5.561764240E-1,1.930277348E-1
1.017038642E1,3.593308926E-1,5.390726924E-1,2.199050188E-1
1.018009975E1,4.937172830E-1,5.268557668E-1,2.541124523E-1
1.018981225E1,6.183301210E-1,5.219689608E-1,2.895416021E-1
1.019952564E1,7.270609736E-1,5.256340504E-1,3.151971996E-1
1.020923975E1,8.235748410E-1,5.598415136E-1,3.335226178E-1
1.021895308E1,8.907679915E-1,6.710157394E-1,3.494046330E-1
1.022866558E1,9.261971712E-1,8.444963098E-1,3.591781855E-1
1.023837897E1,9.579612017E-1,1.009425044E0,3.481829464E-1
1.024809308E1,9.860602021E-1,1.140146375E0,3.176405728E-1
1.025780642E1,9.860602021E-1,1.248877168E0,2.870981991E-1
1.026751892E1,9.799517393E-1,1.330730796E0,2.687727809E-1
1.027723230E1,9.579612017E-1,1.389372110E0,2.651077211E-1
1.028694642E1,9.127585292E-1,1.448013425E0,2.809897363E-1
1.029665975E1,8.272398710E-1,1.511541486E0,3.164188862E-1
1.030637220E1,7.026270628E-1,1.550635815E0,3.567348123E-1
1.031608558E1,5.804576278E-1,1.578734756E0,3.640649617E-1
1.032579970E1,4.961606860E-1,1.572626233E0,3.066453338E-1
1.033551303E1,3.935383558E-1,1.501767993E0,1.979145110E-1
1.034522553E1,2.298312783E-1,1.341725945E0,8.551861346E-2
1.035493892E1,1.359135192E-2,1.087613583E0,0.000000000E0
1.036465303E1,-2.246390730E-1,7.992936373E-1,-5.131116882E-2
1.037436636E1,-4.433223903E-1,5.708367825E-1,-7.696675509E-2
1.038407886E1,-5.691569448E-1,4.645493329E-1,-9.407047927E-2
1.039379220E1,-5.630484819E-1,4.205683470E-1,-9.529217333E-2
1.040350631E1,-3.553603888E-1,3.851391971E-1,-4.398100078E-2
1.041321964E1,-6.093201414E-2,4.511106908E-1,-8.551862091E-3
1.042293214E1,1.357607991E-1,5.439594984E-1,-9.162709117E-2
1.043264553E1,1.125486046E-1,5.647283196E-1,-2.809897363E-1
1.044235964E1,-1.159082651E-1,4.902049303E-1,-4.996730685E-1
1.045207298E1,-3.431434333E-1,2.678565085E-1,-6.499415040E-1
1.046178543E1,-3.712424338E-1,-1.426328421E-1,-6.084038615E-1
1.047149881E1,-2.515163720E-1,-3.906368315E-1,-4.080459774E-1
1.048121293E1,1.527118147E-4,-2.770192325E-1,-1.905843467E-1
1.049092626E1,3.972034156E-1,-1.756185889E-1,-5.986303091E-2
1.050063876E1,7.771504521E-1,-2.171562016E-1,-3.665083647E-2
1.051035214E1,9.750649333E-1,-2.244863659E-1,-7.207997888E-2
1.052006626E1,1.014159203E0,-4.611896724E-2,-1.026223376E-1
1.052977959E1,1.041036487E0,2.031067163E-1,-7.941014320E-2
1.053949204E1,1.100899458E0,4.596625566E-1,2.076880634E-2
1.054920543E1,1.155875683E0,6.600204706E-1,1.771457046E-1
1.055891954E1,1.224290609E0,7.577560544E-1,3.103103936E-1
1.056863288E1,1.313474298E0,7.113316059E-1,3.408527672E-1
1.057834532E1,1.372115612E0,5.476245880E-1,2.724378705E-1
1.058805871E1,1.361120462E0,4.303418994E-1,1.685938388E-1
1.059777282E1,1.302479029E0,4.596625566E-1,6.597150117E-2
1.060748616E1,1.237729311E0,5.769452453E-1,-2.076880634E-2
1.061719866E1,1.187639832E0,6.661289334E-1,-8.429691941E-2
1.062691199E1,1.157097459E0,6.942279339E-1,-1.319430023E-1
1.063662610E1,1.146102190E0,6.893411279E-1,-1.649287641E-1
1.064633944E1,1.135106921E0,6.685723066E-1,-1.966928244E-1
1.065605194E1,1.105786204E0,6.746807694E-1,-2.284568697E-1
1.066576532E1,1.078908920E0,7.211052179E-1,-2.455606014E-1
1.067547939E1,1.065470338E0,8.286142945E-1,-2.431172132E-1
1.068519272E1,1.060583591E0,9.935430884E-1,-2.223484069E-1
1.069490522E1,1.067913771E0,1.149919987E0,-1.893626451E-1
1.070461860E1,1.070357084E0,1.219556570E0,-1.502684206E-1
1.071433267E1,1.058140159E0,1.211004734E0,-1.050657257E-1
1.072404600E1,1.030041218E0,1.168245435E0,-5.497625470E-2
1.073375850E1,9.885035753E-1,1.116934180E0,4.886778072E-3
1.074347188E1,9.371923804E-1,1.070509791E0,7.330167294E-2
1.075318600E1,8.907679915E-1,1.032637239E0,1.270562261E-1
1.076289928E1,8.614473343E-1,1.011868477E0,1.478250325E-1
1.077261178E1,8.516737819E-1,9.996515512E-1,1.429382563E-1
1.078232511E1,8.712208867E-1,1.003316641E0,1.160609797E-1
1.079203923E1,9.213103652E-1,1.032637239E0,6.719319522E-2
1.080175256E1,9.811733961E-1,1.077839971E0,4.886778072E-3
1.081146506E1,1.032484531E0,1.114490867E0,-7.207997888E-2
1.082117840E1,1.063026905E0,1.146254897E0,-1.478250325E-1
1.083089251E1,1.077687263E0,1.152363300E0,-2.064663768E-1
1.084060584E1,1.074022174E0,1.102273822E0,-2.247917950E-1
1.085031834E1,1.045923233E0,1.030193925E0,-1.942494214E-1
1.086003168E1,9.921686649E-1,9.556705356E-1,-1.392731816E-1
1.086974579E1,9.152019024E-1,8.689302206E-1,-7.696675509E-2
1.087945912E1,8.284615874E-1,7.736380696E-1,-2.076880634E-2
1.088917157E1,7.417212725E-1,7.333221436E-1,2.199050039E-2
1.089888496E1,6.598677635E-1,7.467607856E-1,5.497625470E-2
1.090859907E1,6.171084642E-1,7.650861740E-1,7.452336699E-2
1.091831241E1,6.097782850E-1,7.944068313E-1,7.085828483E-2
1.092802485E1,6.281036735E-1,8.188407421E-1,5.619794875E-2
1.093773824E1,6.635328531E-1,8.163973689E-1,3.298575059E-2
1.094745235E1,6.745280623E-1,8.286142945E-1,-1.221694518E-3
1.095716564E1,6.403206587E-1,8.835905790E-1,-4.031591862E-2
1.096687814E1,5.645755529E-1,9.581139088E-1,-7.452336699E-2
1.097659147E1,4.619532526E-1,1.036302328E0,-9.162709117E-2
1.098630558E1,3.507790267E-1,1.124264359E0,-8.429691941E-2
1.099601892E1,2.542651594E-1,1.212226391E0,-5.619794875E-2
1.100573136E1,1.907370538E-1,1.257429123E0,-2.932066843E-2
1.101544475E1,1.821851879E-1,1.234216928E0,-2.076880634E-2
1.102515886E1,2.408265322E-1,1.154806733E0,-2.809897438E-2
1.103487220E1,3.239017725E-1,1.057071209E0,-3.420744836E-2
1.104458464E1,3.727695346E-1,9.886562824E-1,-3.909422457E-2
1.105429803E1,3.495573401E-1,9.434536099E-1,-4.520269856E-2
1.106401209E1,2.615953386E-1,8.982508779E-1,-5.864133686E-2
1.107372543E1,1.394258887E-1,8.335011005E-1,-7.330167294E-2
1.108343788E1,2.825168520E-2,7.137750387E-1,-6.963659078E-2
1.109315126E1,-7.437065244E-2,5.451811552E-1,-6.108472496E-2
1.110286538E1,-1.672194302E-1,4.315635860E-1,-3.665083647E-2
1.111257871E1,-2.075353563E-1,4.535540938E-1,-1.221694518E-2
1.112229116E1,-1.892099380E-1,5.781669021E-1,-2.443389036E-3
1.113200454E1,-1.696628332E-1,6.868977547E-1,1.954711229E-2
1.114171860E1,-2.527380586E-1,7.931851745E-1,5.253286287E-2
1.115143194E1,-4.714213610E-1,8.652651310E-1,6.841489673E-2
1.116114438E1,-7.438592315E-1,8.163973689E-1,6.352811307E-2
1.117085777E1,-9.991934299E-1,7.162184119E-1,4.764608666E-2
1.118057188E1,-1.195886254E0,5.977140665E-1,3.542914242E-2
1.119028517E1,-1.346307397E0,4.217900336E-1,3.909422457E-2
1.119999767E1,-1.513679504E0,2.299840003E-1,6.352811307E-2
1.120971100E1,-1.745801449E0,6.872031838E-2,1.148392856E-1
1.121942511E1,-2.068328857E0,-6.566607952E-2,2.003578991E-1
1.122913845E1,-2.436058760E0,-2.098260373E-1,3.090887070E-1
1.123885090E1,-2.740260839E0,-4.346178174E-1,4.263713956E-1
1.124856428E1,-2.984599590E0,-6.948387623E-1,5.595360994E-1
1.125827834E1,-3.145863295E0,-9.770501852E-1,6.719319820E-1
1.126799168E1,-3.170297384E0,-1.255596519E0,7.269082665E-1
1.127770413E1,-3.127537966E0,-1.326454878E0,7.379034758E-1
1.128741751E1,-3.028580666E0,-1.167634487E0,7.281299233E-1
1.129713162E1,-2.848991632E0,-8.866447806E-1,7.317950130E-1
1.130684491E1,-2.626643181E0,-5.238015056E-1,7.574505806E-1
1.131655735E1,-2.411624908E0,-1.511846930E-1,7.818844914E-1
1.132627074E1,-2.229592562E0,1.432436854E-1,7.892146707E-1
1.133598485E1,-2.096427679E0,3.057290614E-1,7.916580439E-1
1.134569814E1,-1.980366826E0,3.826957941E-1,8.063184023E-1
1.135541064E1,-1.860640764E0,4.511106908E-1,8.099834919E-1
1.136512397E1,-1.743358135E0,5.134171247E-1,7.623373866E-1
1.137483808E1,-1.644400835E0,5.476245880E-1,6.792621613E-1
1.138455136E1,-1.573542595E0,5.549547076E-1,6.010736823E-1
1.139426386E1,-1.516122937E0,4.840964675E-1,5.277720094E-1
1.140397720E1,-1.459924936E0,3.692571819E-1,4.679090083E-1
1.141369131E1,-1.406170368E0,3.155026138E-1,4.031592011E-1
1.142340459E1,-1.338824511E0,3.643703759E-1,3.384093940E-1
1.143311709E1,-1.238645554E0,4.621059597E-1,2.822114229E-1
1.144283043E1,-1.117697716E0,5.622848868E-1,2.296785712E-1
1.145254454E1,-9.918632507E-1,6.368082762E-1,1.441599578E-1
1.146225782E1,-8.489249945E-1,6.392516494E-1,1.588202827E-2
1.147197032E1,-6.937697530E-1,5.818319917E-1,-1.233911440E-1
1.148168366E1,-5.398362875E-1,5.012001991E-1,-2.223484069E-1
1.149139777E1,-4.042281806E-1,3.997995257E-1,-2.699944973E-1
1.150111105E1,-2.857238054E-1,2.751866877E-1,-2.761029601E-1
1.151082350E1,-1.818797737E-1,1.542389393E-1,-2.565558553E-1
1.152053688E1,-8.292251825E-2,6.505523622E-2,-2.186833173E-1
1.153025095E1,1.725643501E-2,1.130067464E-2,-1.673721522E-1
1.153996428E1,1.186570823E-1,-3.023693897E-2,-1.075091213E-1
1.154967673E1,2.334963679E-1,-6.933116168E-2,-4.642439261E-2
1.155939011E1,3.593308926E-1,-9.254335612E-2,9.773556143E-3
1.156910418E1,4.851654470E-1,-1.096470803E-1,5.619794875E-2
1.157881751E1,6.036698222E-1,-1.365243644E-1,9.284878522E-2
1.158852996E1,7.075138092E-1,-1.743968874E-1,1.270562261E-1
1.159824334E1,7.979192138E-1,-2.037175596E-1,1.649287641E-1
1.160795741E1,8.834378719E-1,-1.963873953E-1,1.991362125E-1
1.161767074E1,9.762866497E-1,-1.181989461E-1,2.211267054E-1
1.162738319E1,1.074022174E0,6.505523622E-2,2.333436459E-1
1.163709652E1,1.176644564E0,3.692571819E-1,2.467822880E-1
1.164681064E1,1.234064221E0,8.078454733E-1,2.541124523E-1
1.165652392E1,1.248724461E0,1.329509020E0,2.602209449E-1
1.166623642E1,1.194969893E0,1.792531252E0,2.614426315E-1
1.167594975E1,1.067913771E0,2.041756868E0,2.431172132E-1
1.168566386E1,8.932114244E-1,1.974563718E0,2.394521236E-1
1.169537714E1,6.830799580E-1,1.661809921E0,2.809897363E-1
1.170508959E1,4.717268050E-1,1.296523333E0,3.286358118E-1
1.171480298E1,2.823641598E-1,1.039967418E0,3.078670204E-1
1.172451704E1,1.101052165E-1,9.031376839E-1,2.296785712E-1
1.173423038E1,-1.817270555E-2,8.261709213E-1,1.551551968E-1
1.174394282E1,-9.391776472E-2,7.931851745E-1,8.063183725E-2
1.175365616E1,-1.183516532E-1,7.736380696E-1,-2.687728032E-2
1.176337027E1,-9.636115283E-2,8.200624585E-1,-1.575985998E-1
1.177308355E1,1.527118147E-4,8.176190853E-1,-2.577775419E-1
1.178279600E1,1.528645307E-1,7.516475320E-1,-3.371876776E-1
1.179250938E1,2.237228155E-1,7.284353375E-1,-4.935645759E-1
1.180222345E1,1.284306347E-1,7.064448595E-1,-7.146912813E-1
1.181193678E1,-9.269607067E-2,5.292991400E-1,-8.796200752E-1
1.182164923E1,-3.712424338E-1,1.750077456E-1,-9.529217482E-1
1.183136256E1,-5.337277651E-1,-2.428117841E-1,-9.040539265E-1
1.184107668E1,-4.848600030E-1,-6.227588058E-1,-6.963658929E-1
1.185078996E1,-3.101576865E-1,-7.669187188E-1,-4.031592011E-1
1.186050241E1,-3.649812192E-2,-7.742488980E-1,-1.637070626E-1
1.187021579E1,2.896943092E-1,-9.147437811E-1,-5.375456065E-2
1.187992985E1,5.047125220E-1,-9.917105436E-1,-4.520269856E-2
1.188964314E1,5.486935377E-1,-7.107207775E-1,-4.642439261E-2
1.189935564E1,6.232169271E-1,-2.428117841E-1,-3.054236248E-2
1.190906897E1,8.541171551E-1,1.456870735E-1,-2.076880634E-2
1.191878303E1,1.144880533E0,4.474456310E-1,-1.099525020E-2
1.192849636E1,1.394106150E0,6.306998134E-1,2.932066843E-2
1.193820881E1,1.587133884E0,6.673506498E-1,8.063183725E-2
1.194792215E1,1.701973200E0,6.038225293E-1,1.185043678E-1
1.195763626E1,1.697086453E0,5.280774832E-1,1.661504507E-1
1.196734954E1,1.592020631E0,5.146388412E-1,2.150182426E-1
1.197706199E1,1.442973971E0,5.830537081E-1,2.382304370E-1
1.198677538E1,1.295148849E0,6.502469182E-1,2.040229887E-1
1.199648944E1,1.187639832E0,6.478035450E-1,1.075091213E-1
1.200620272E1,1.139993668E0,5.952706337E-1,-2.443389036E-2
1.201591517E1,1.144880533E0,5.598415136E-1,-1.600419879E-1
1.202562855E1,1.180309653E0,5.793886185E-1,-2.565558553E-1
1.203534261E1,1.207186937E0,6.123743653E-1,-2.944283783E-1
1.204505590E1,1.205965161E0,6.245913506E-1,-2.932066917E-1
1.205476840E1,1.175422788E0,6.404733658E-1,-2.846548259E-1
1.206448173E1,1.128998399E0,6.636855602E-1,-2.663294077E-1
1.207419579E1,1.067913771E0,6.587987542E-1,-2.418955117E-1
1.208390912E1,1.000720501E0,6.282563806E-1,-2.150182426E-1
1.209362157E1,9.359707236E-1,6.221479177E-1,-1.771457046E-1
1.210333491E1,8.822161555E-1,6.441384554E-1,-1.185043678E-1
1.211304897E1,8.370134830E-1,6.746807694E-1,-4.642439261E-2
1.212276230E1,7.869240046E-1,6.844543815E-1,3.176405653E-2
1.213247475E1,7.343910933E-1,6.575770974E-1,9.895725548E-2
1.214218808E1,6.904101372E-1,6.184828281E-1,1.417165697E-1
1.215190215E1,6.720846891E-1,6.062659025E-1,1.551551968E-1
1.216161548E1,6.794148684E-1,6.392516494E-1,1.429382563E-1
1.217132793E1,7.136223316E-1,7.003363967E-1,1.038440317E-1
1.218104126E1,7.637118101E-1,7.638645172E-1,4.031591862E-2
1.219075532E1,8.076927662E-1,8.383878469E-1,-3.054236248E-2
1.220046866E1,8.333483934E-1,8.970292211E-1,-9.651386738E-2
1.221018110E1,8.357917666E-1,9.507837296E-1,-1.441599578E-1
1.221989444E1,8.150229454E-1,1.000873208E0,-1.649287641E-1
1.222960855E1,7.820371985E-1,1.036302328E0,-1.673721522E-1
1.223932183E1,7.417212725E-1,1.050962687E0,-1.600419879E-1
1.224903428E1,6.977402568E-1,1.046075940E0,-1.356080920E-1
1.225874761E1,6.488724947E-1,1.043632507E0,-9.407047927E-2
1.226846168E1,6.036698222E-1,1.044854283E0,-4.275930673E-2
1.227817501E1,5.755708218E-1,1.043632507E0,8.551862091E-3
1.228788746E1,5.694623590E-1,1.041189194E0,4.642439261E-2
1.229760079E1,5.767925382E-1,1.026528835E0,7.330167294E-2
1.230731485E1,5.902311802E-1,1.028972149E0,9.284878522E-2
1.231702814E1,5.914528370E-1,1.094943762E0,1.087308154E-1
1.232674064E1,5.829010010E-1,1.204896212E0,1.160609797E-1
1.233645397E1,5.719057322E-1,1.325843930E0,1.062874198E-1
1.234616803E1,5.596888065E-1,1.432131410E0,8.429691941E-2
1.235588131E1,5.486935377E-1,1.480999231E0,4.275930673E-2
1.236559376E1,5.389199853E-1,1.454121947E0,-3.665083554E-3
1.237530709E1,5.144860744E-1,1.358829737E0,-5.497625470E-2
1.238502121E1,4.558447599E-1,1.234216928E0,-9.162709117E-2
1.239473449E1,3.752129376E-1,1.136481285E0,-1.075091213E-1
1.240444694E1,3.104631305E-1,1.070509791E0,-1.001789495E-1
1.241416027E1,2.713688910E-1,1.032637239E0,-6.841489673E-2
1.242387439E1,2.481566966E-1,9.837695360E-1,-2.687728032E-2
1.243358767E1,2.102841735E-1,8.958075047E-1,1.221694518E-3
1.244330011E1,1.149920002E-1,7.797465324E-1,-4.886778072E-3
1.245301345E1,-3.161134571E-2,6.636855602E-1,-3.665083647E-2
1.246272751E1,-1.867665499E-1,6.380299330E-1,-7.574506104E-2
1.247244079E1,-2.881672084E-1,7.687512636E-1,-1.026223376E-1
1.248215324E1,-2.967190444E-1,9.874345660E-1,-1.099525094E-1
1.249186662E1,-2.307475507E-1,1.189014196E0,-9.895725548E-2
1.250158069E1,-1.782146841E-1,1.324622273E0,-9.407047927E-2
1.251129397E1,-1.965401024E-1,1.301410079E0,-1.050657257E-1
1.252100642E1,-3.260397315E-1,1.080283403E0,-1.221694499E-1
1.253071975E1,-5.679352283E-1,7.919634581E-1,-1.294996142E-1
1.254043381E1,-8.403730989E-1,5.195255876E-1,-1.026223376E-1
1.255014714E1,-1.098150611E0,3.216110766E-1,-2.809897438E-2
1.255985959E1,-1.390288353E0,2.483094037E-1,7.207997888E-2
1.256957293E1,-1.694490314E0,2.409792393E-1,1.551551968E-1
1.257928699E1,-1.974258304E0,2.458660156E-1,2.003578991E-1
1.258900027E1,-2.256469727E0,2.018850148E-1,2.260134816E-1
1.259871272E1,-2.514247417E0,9.193251282E-2,2.504473627E-1
1.260842605E1,-2.704831600E0,-7.177454978E-2,2.809897363E-1
1.261814017E1,-2.823336124E0,-2.831276953E-1,3.200839758E-1
1.262785345E1,-2.870982170E0,-5.372401476E-1,3.616215885E-1
1.263756590E1,-2.856321812E0,-8.218950033E-1,4.080459774E-1
1.264727923E1,-2.820892572E0,-9.636115432E-1,4.837910235E-1
1.265699329E1,-2.770803213E0,-9.489512444E-1,5.937435627E-1
1.266670657E1,-2.699944973E0,-8.707627654E-1,7.146912813E-1
1.267641902E1,-2.604652643E0,-7.107207775E-1,7.977665067E-1
1.268613235E1,-2.488591671E0,-4.895940721E-1,8.234221339E-1
1.269584642E1,-2.332214832E0,-3.002314270E-1,8.356390595E-1
1.270555975E1,-2.107423067E0,-1.169772521E-1,8.356390595E-1
1.271527214E1,-1.861862421E0,1.261399537E-1,7.977665067E-1
1.272498553E1,-1.639514089E0,3.301629424E-1,7.330167294E-1
1.273469959E1,-1.473363638E0,4.278984964E-1,6.621584296E-1
1.274441288E1,-1.398840189E0,4.401154518E-1,6.035171151E-1
1.275412532E1,-1.384179831E0,3.790307343E-1,5.607577562E-1
1.276383866E1,-1.382958174E0,2.727433145E-1,5.082249045E-1
1.277355272E1,-1.369519591E0,1.725643575E-1,4.446968138E-1
1.278326600E1,-1.348750710E0,1.285833418E-1,3.848337829E-1
1.279297845E1,-1.321720719E0,1.603474021E-1,3.176405728E-1
1.280269178E1,-1.252084136E0,2.092151791E-1,2.186833173E-1
1.281240584E1,-1.137244940E0,2.250972092E-1,1.075091213E-1
1.282211912E1,-9.918632507E-1,2.336490750E-1,-6.108472589E-3
1.283183157E1,-8.220477104E-1,2.800734639E-1,-1.038440317E-1
1.284154491E1,-6.510104537E-1,3.570402265E-1,-1.698155403E-1
1.285125902E1,-4.946335554E-1,4.303418994E-1,-1.918060333E-1
1.286097230E1,-3.455868363E-1,4.828747511E-1,-1.881409585E-1
1.287068475E1,-2.038702667E-1,5.170822144E-1,-1.710372269E-1
1.288039808E1,-7.925742865E-2,5.317425132E-1,-1.404948682E-1
1.289011215E1,3.313846514E-2,5.329642296E-1,-9.651386738E-2
1.289982543E1,1.382041872E-1,5.256340504E-1,-5.864133686E-2
1.290953788E1,2.457133085E-1,4.743228853E-1,-3.054236248E-2
1.291925121E1,3.507790267E-1,3.680354655E-1,-1.588202827E-2
1.292896527E1,4.582881629E-1,2.446443290E-1,-9.773556143E-3
1.293867855E1,5.804576278E-1,1.261399537E-1,-4.886778072E-3
1.294839100E1,7.124006152E-1,3.939964995E-2,3.665083554E-3
1.295810433E1,8.345700502E-1,1.863084175E-2,1.221694518E-2
1.296781840E1,9.469659925E-1,7.116370648E-2,2.687728032E-2
1.297753168E1,1.041036487E0,1.847812980E-1,5.131116882E-2
1.298724412E1,1.116781473E0,3.387148082E-1,8.063183725E-2
1.299695746E1,1.170536041E0,5.451811552E-1,1.099525094E-1
1.300667152E1,1.201078415E0,8.090671897E-1,1.343863904E-1
1.301638480E1,1.185196400E0,1.052184463E0,1.624853760E-1
1.302609725E1,1.107007980E0,1.200009465E0,1.856975704E-1
1.303581058E1,9.542961121E-1,1.263537526E0,2.076880634E-1
1.304552464E1,7.356128097E-1,1.301410079E0,2.406738251E-1
1.305523793E1,5.169295073E-1,1.345391035E0,2.883199155E-1
1.306495038E1,3.532224298E-1,1.379598498E0,3.164188862E-1
1.307466371E1,2.713688910E-1,1.316070437E0,2.687727809E-1
1.308437777E1,2.200577259E-1,1.120599270E0,1.466033459E-1
1.309409105E1,1.382041872E-1,8.542698622E-1,-2.443389036E-3
1.310380350E1,7.482878864E-3,6.270347238E-1,-1.221694499E-1
1.311351683E1,-1.525591016E-1,5.195255876E-1,-1.979145110E-1
1.312323090E1,-2.747285664E-1,5.415160656E-1,-2.480039895E-1
1.313294418E1,-3.199312389E-1,6.612421870E-1,-2.785463631E-1
1.314265662E1,-3.187095523E-1,8.298360109E-1,-2.773246467E-1
1.315236996E1,-2.331909388E-1,9.214630723E-1,-2.199050188E-1
1.316208402E1,-1.695101149E-2,8.457180262E-1,-1.466033459E-1
1.317179730E1,1.601946950E-1,6.868977547E-1,-1.600419879E-1
1.318150975E1,1.064401343E-1,4.950917065E-1,-2.761029601E-1
1.319122308E1,-1.672194302E-1,2.446443290E-1,-4.214846194E-1
1.320093715E1,-3.993414044E-1,-6.322269142E-2,-5.045598149E-1
1.321065043E1,-4.103366435E-1,-4.480564594E-1,-4.312581718E-1
1.322036288E1,-2.637332976E-1,-7.656970620E-1,-2.541124523E-1
1.323007621E1,-1.695101149E-2,-8.267817497E-1,-9.040539712E-2
1.323979027E1,3.263451457E-1,-7.693621516E-1,-1.343864016E-2
1.324950355E1,6.378772259E-1,-6.435275674E-1,-3.298575059E-2
1.325921600E1,8.162446618E-1,-3.613161445E-1,-1.062874198E-1
1.326892933E1,9.090934396E-1,-5.589252338E-2,-1.771457046E-1
1.327864340E1,1.009272337E0,1.359135211E-1,-2.113531530E-1
1.328835668E1,1.115559816E0,2.800734639E-1,-1.747023165E-1
1.329806907E1,1.203521848E0,3.900259733E-1,-4.642439261E-2
1.330778241E1,1.264606595E0,4.559974670E-1,1.160609797E-1
1.331749647E1,1.315917730E0,4.327852726E-1,2.260134816E-1
1.332720975E1,1.333021402E0,3.436015844E-1,2.858765125E-1
1.333692220E1,1.308587551E0,2.935121059E-1,3.200839758E-1
1.334663553E1,1.256054640E0,3.326063454E-1,3.200839758E-1
1.335634959E1,1.180309653E0,4.046863019E-1,2.626643181E-1
1.336606288E1,1.113116384E0,4.608842432E-1,1.453816444E-1
1.337577532E1,1.080130696E0,5.121954083E-1,0.000000000E0
1.338548866E1,1.082574010E0,5.732801557E-1,-1.270562261E-1
1.339520272E1,1.107007980E0,6.526902914E-1,-2.076880634E-1
1.340491600E1,1.130220175E0,7.113316059E-1,-2.602209449E-1
1.341462840E1,1.120446563E0,7.638645172E-1,-2.980934680E-1
1.342434173E1,1.086239100E0,8.371661901E-1,-3.127537966E-1
1.343405579E1,1.053253412E0,9.104678631E-1,-2.919849753E-1
1.344376907E1,1.017824292E0,9.898779988E-1,-2.406738251E-1
1.345348152E1,9.909469485E-1,1.048519373E0,-1.795890927E-1
1.346319485E1,9.848384857E-1,1.030193925E0,-1.258345395E-1
1.347290892E1,9.665130973E-1,9.495620728E-1,-8.307522535E-2
1.348262220E1,9.323056340E-1,8.457180262E-1,-3.909422457E-2
1.349233465E1,8.919897079E-1,7.614210844E-1,1.221694518E-2
1.350204798E1,8.602256775E-1,7.052231431E-1,6.230641901E-2
1.351176204E1,8.541171551E-1,6.807892919E-1,1.014006436E-1
1.352147532E1,8.761076927E-1,6.795675755E-1,1.197260618E-1
1.353118772E1,9.164236188E-1,6.930062175E-1,1.075091213E-1
1.354090105E1,9.665130973E-1,7.247702479E-1,7.085828483E-2
1.355061511E1,1.017824292E0,7.748597264E-1,2.809897438E-2
1.356032840E1,1.053253412E0,8.506048322E-1,-1.221694518E-3
1.357004084E1,1.069135427E0,9.495620728E-1,-8.551862091E-3
1.357975418E1,1.075243831E0,1.030193925E0,-1.221694518E-3
1.358946824E1,1.071578860E0,1.054627776E0,4.886778072E-3
1.359918152E1,1.044701576E0,1.036302328E0,8.551862091E-3
1.360889392E1,9.970554113E-1,9.910996556E-1,4.886778072E-3
1.361860725E1,9.469659925E-1,9.275715351E-1,-3.665083554E-3
1.362832131E1,9.103151560E-1,8.151756525E-1,-7.330167107E-3
1.363803459E1,8.809944391E-1,6.245913506E-1,-6.108472589E-3
1.364774704E1,8.357917666E-1,3.790307343E-1,3.665083554E-3
1.365746038E1,8.052493930E-1,1.627907902E-1,2.321219631E-2
1.366717444E1,8.211314082E-1,7.116370648E-2,5.864133686E-2
1.367688761E1,8.406785131E-1,1.359135211E-1,1.160609797E-1
1.368660011E1,8.125795722E-1,3.081724346E-1,1.466033459E-1
1.369631345E1,7.490514517E-1,5.329642296E-1,1.197260618E-1
1.370602751E1,6.769714952E-1,7.699729800E-1,5.619794875E-2
1.371574079E1,6.061131954E-1,9.703308940E-1,-1.099525020E-2
1.372545324E1,5.315898061E-1,1.099830508E0,-7.207997888E-2
1.373516652E1,4.570664763E-1,1.203674555E0,-1.307213157E-1
1.374488058E1,4.033119082E-1,1.278197885E0,-1.808107942E-1
1.375459386E1,3.886515796E-1,1.298966646E0,-2.101314515E-1
1.376430631E1,4.033119082E-1,1.247655511E0,-2.113531530E-1
1.377401965E1,3.996468186E-1,1.097387075E0,-1.820324808E-1
1.378373371E1,3.458922505E-1,8.493831158E-1,-1.404948682E-1
1.379344699E1,2.677038014E-1,5.806103349E-1,-8.674030751E-2
1.380315938E1,1.797417998E-1,3.753656447E-1,-2.076880634E-2
1.381287272E1,7.589777559E-2,2.470877171E-1,5.008947477E-2
1.382258678E1,-4.504998401E-2,1.896680743E-1,1.075091213E-1
1.383230006E1,-1.672194302E-1,1.921114624E-1,1.246128380E-1
1.384201251E1,-2.698417902E-1,2.800734639E-1,1.001789495E-1
1.385172579E1,-3.333698809E-1,4.572191834E-1,6.108472496E-2
1.386143985E1,-3.113794029E-1,6.429167390E-1,2.076880634E-2
1.387115314E1,-1.843231618E-1,7.406523228E-1,2.443389036E-3
1.388086558E1,-7.437065244E-2,7.711946368E-1,2.687728032E-2
1.389057886E1,-1.012479365E-1,7.895200849E-1,5.986303091E-2
1.390029293E1,-2.490729690E-1,7.308787704E-1,6.963659078E-2
1.391000621E1,-4.701996744E-1,6.074876189E-1,5.497625470E-2
1.391971866E1,-7.243121266E-1,5.292991400E-1,3.054236248E-2
1.392943199E1,-9.625425935E-1,5.183038712E-1,1.588202827E-2
1.393914605E1,-1.188556075E0,5.183038712E-1,6.108472589E-3
1.394885923E1,-1.472141862E0,5.024218559E-1,-1.466033421E-2
1.395857173E1,-1.832541823E0,4.706578255E-1,-4.520269856E-2
1.396828506E1,-2.240587711E0,4.437805414E-1,-7.085828483E-2
1.397799912E1,-2.611982822E0,3.778090179E-1,-7.207997888E-2
1.398771241E1,-2.902746201E0,1.847812980E-1,-4.275930673E-2
1.399742480E1,-3.140976667E0,-1.646233350E-1,1.099525020E-2
1.400713814E1,-3.271697998E0,-5.519005060E-1,9.895725548E-2
1.401685220E1,-3.264367819E0,-8.964183331E-1,2.076880634E-1
1.402656548E1,-3.162967205E0,-1.112658262E0,3.115321100E-1
1.403627788E1,-2.990708113E0,-1.178629756E0,3.970507085E-1
1.404599121E1,-2.767138004E0,-1.127318621E0,4.593571424E-1
1.405570527E1,-2.537459612E0,-9.978190064E-1,4.947862923E-1
1.406541855E1,-2.359091997E0,-7.803573608E-1,5.241069198E-1
1.407513095E1,-2.273573399E0,-4.834856093E-1,5.766398311E-1
1.408484428E1,-2.223484039E0,-2.611372173E-1,6.548282504E-1
1.409455834E1,-2.098871231E0,-2.086043358E-1,6.939224601E-1
1.410427162E1,-1.899734974E0,-2.684673667E-1,6.474980712E-1
1.411398402E1,-1.694490314E0,-3.576510847E-1,5.497625470E-1
1.412369735E1,-1.535670042E0,-3.943018913E-1,4.569137394E-1
1.413341142E1,-1.434269309E0,-3.723114133E-1,3.701734245E-1
1.414312470E1,-1.360967636E0,-3.417690396E-1,2.773246467E-1
1.415283709E1,-1.300951958E0,-3.295520842E-1,1.869192570E-1
1.416255043E1,-1.242310643E0,-3.381039500E-1,9.895725548E-2
1.417226449E1,-1.173895717E0,-3.613161445E-1,3.909422457E-2
1.418197777E1,-1.104259133E0,-3.955236077E-1,-7.330167107E-3
1.419169017E1,-1.027292371E0,-4.260659516E-1,-4.520269856E-2
1.420140350E1,-9.393303990E-1,-4.382829070E-1,-6.963659078E-2
1.421111756E1,-8.330429196E-1,-4.431696832E-1,-9.651386738E-2
1.422083084E1,-7.059867382E-1,-4.517215490E-1,-1.197260618E-1
1.423054324E1,-5.825955868E-1,-4.480564594E-1,-1.356080920E-1
1.424025657E1,-4.653128982E-1,-4.175141156E-1,-1.453816444E-1
1.424997064E1,-3.516952991E-1,-3.576510847E-1,-1.563768983E-1
1.425968392E1,-2.380777150E-1,-2.550287247E-1,-1.747023165E-1
1.426939631E1,-1.195733473E-1,-1.414111406E-1,-1.808107942E-1
1.427910964E1,6.261184346E-3,-2.535016090E-2,-1.747023165E-1
1.428882371E1,1.455343664E-1,8.338065445E-2,-1.588202864E-1
1.429853688E1,3.019112647E-1,1.566823274E-1,-1.307213157E-1
1.430824939E1,4.643966258E-1,2.055501044E-1,-1.014006436E-1
1.431796272E1,6.109999418E-1,2.556395829E-1,-6.719319522E-2
1.432767678E1,7.356128097E-1,3.081724346E-1,-3.054236248E-2
1.433738996E1,8.345700502E-1,3.570402265E-1,8.551862091E-3
1.434710246E1,9.103151560E-1,4.144598544E-1,4.031591862E-2
1.435681579E1,9.787300229E-1,5.134171247E-1,5.131116882E-2
1.436652980E1,1.047144890E0,6.795675755E-1,4.886778072E-2
1.437624308E1,1.105786204E0,8.725953102E-1,3.665083647E-2
1.438595553E1,1.147323847E0,1.025307178E0,1.954711229E-2
1.439566881E1,1.168092728E0,1.157250166E0,4.886778072E-3
1.440538288E1,1.169314384E0,1.279419541E0,-2.443389036E-3
1.441509616E1,1.139993668E0,1.345391035E0,-1.099525020E-2
1.442480855E1,1.075243831E0,1.325843930E0,-2.076880634E-2
1.443452188E1,9.909469485E-1,1.220778227E0,-2.565558441E-2
1.444423595E1,8.590039611E-1,1.066844702E0,-4.275930673E-2
1.445394923E1,6.647545099E-1,9.043593407E-1,-9.040539712E-2
1.446366162E1,4.485146105E-1,7.369872332E-1,-1.820324808E-1
1.447337496E1,2.493783981E-1,5.390726924E-1,-2.993151546E-1
1.448308902E1,8.567132801E-2,3.069507480E-1,-4.068242610E-1
1.449280220E1,-3.771981969E-2,3.695625812E-2,-4.813476503E-1
1.450251470E1,-1.440072358E-1,-2.623589039E-1,-5.082249045E-1
1.451222798E1,-2.197522968E-1,-5.848862529E-1,-5.033381581E-1
1.452194204E1,-2.698417902E-1,-7.742488980E-1,-5.082249045E-1
1.453165532E1,-3.174878657E-1,-6.557445526E-1,-4.789042473E-1
1.454136772E1,-1.831014603E-1,-5.225798488E-1,-3.188622594E-1
1.455108105E1,3.191677108E-2,-5.115845799E-1,-1.038440317E-1
1.456079511E1,1.527118147E-4,-5.360184908E-1,-2.565558441E-2
1.457050840E1,-3.333698809E-1,-6.203153729E-1,-1.490467340E-1
1.458022079E1,-6.497887969E-1,-7.974610925E-1,-3.872771561E-1
1.458993413E1,-6.730009913E-1,-8.866447806E-1,-5.118899941E-1
1.459964814E1,-4.066715539E-1,-7.656970620E-1,-4.068242610E-1
1.460936142E1,-8.536590636E-2,-7.241594195E-1,-2.565558553E-1
1.461907386E1,1.699682474E-1,-9.184088707E-1,-1.698155403E-1
1.462878714E1,2.652604282E-1,-9.281824231E-1,-1.392731816E-1
1.463850121E1,2.542651594E-1,-5.897729993E-1,-1.014006436E-1
1.464821449E1,3.336753249E-1,-2.428117841E-1,-4.764608666E-2
1.465792688E1,5.743491650E-1,-8.154810965E-2,-1.588202827E-2
1.466764022E1,8.626690507E-1,1.007897966E-2,3.420744836E-2
1.467735428E1,1.047144890E0,1.884463727E-1,1.233911440E-1
1.468706746E1,1.115559816E0,3.582619131E-1,2.345653474E-1
1.469677996E1,1.153432369E0,4.144598544E-1,3.188622594E-1
1.470649329E1,1.205965161E0,4.217900336E-1,3.579564989E-1
1.471620730E1,1.243837714E0,4.914266169E-1,3.750602305E-1
1.472592058E1,1.249946237E0,6.197045445E-1,3.542914093E-1
1.473563298E1,1.230399132E0,6.966713071E-1,2.785463631E-1
1.474534631E1,1.190083146E0,6.991146803E-1,1.600419879E-1
1.475506038E1,1.170536041E0,6.942279339E-1,2.565558441E-2
1.476477355E1,1.183974743E0,6.844543815E-1,-1.111742035E-1
1.477448605E1,1.216960430E0,6.441384554E-1,-2.162399292E-1
1.478419938E1,1.267049909E0,5.989357233E-1,-2.712161839E-1
1.479391340E1,1.325691223E0,5.525113344E-1,-2.895416021E-1
1.480362668E1,1.357455373E0,4.816530645E-1,-2.724378705E-1
1.481333907E1,1.345238328E0,3.814741075E-1,-2.284568697E-1
1.482305241E1,1.287818789E0,2.593046725E-1,-1.698155403E-1
1.483276647E1,1.197413325E0,1.554606259E-1,-8.796200156E-2
1.484247965E1,1.094791055E0,7.116370648E-2,6.108472589E-3
1.485219214E1,1.004385591E0,-2.046338283E-2,9.529217333E-2
1.486190543E1,9.261971712E-1,-9.620844573E-2,1.600419879E-1
1.487161949E1,8.626690507E-1,-1.218640283E-1,1.918060333E-1
1.488133277E1,8.272398710E-1,-7.421794534E-2,2.003578991E-1
1.489104517E1,8.260182142E-1,3.817795217E-2,1.759240031E-1
1.490075850E1,8.773293495E-1,1.737860441E-1,1.221694499E-1
1.491047256E1,9.604045749E-1,2.776300907E-1,4.398100078E-2
1.492018574E1,1.044701576E0,3.301629424E-1,-4.398100078E-2
1.492989824E1,1.091125965E0,3.313846290E-1,-1.221694499E-1
1.493961152E1,1.082574010E0,2.825168669E-1,-1.673721522E-1
1.494932558E1,1.026376128E0,2.128802687E-1,-1.710372269E-1
1.495903886E1,9.335273504E-1,1.676775664E-1,-1.356080920E-1
1.496875126E1,8.247964978E-1,1.505738497E-1,-8.063183725E-2
1.497846459E1,7.221741676E-1,1.395785958E-1,-2.076880634E-2
1.498817860E1,6.439857483E-1,1.505738497E-1,3.054236248E-2
1.499789189E1,6.012263894E-1,1.982199401E-1,6.963659078E-2
1.500760428E1,5.780141950E-1,2.629697323E-1,1.001789495E-1
1.501731761E1,5.743491650E-1,3.093941510E-1,1.075091213E-1
1.502703168E1,5.902311802E-1,3.643703759E-1,9.407047927E-2
1.503674485E1,6.195518374E-1,4.450022280E-1,6.963659078E-2
1.504645735E1,6.464291215E-1,5.231906772E-1,4.764608666E-2
1.505617064E1,6.610894203E-1,5.842754245E-1,2.809897438E-2
