"Time (s)","Acceleration x (m/s^2)","Acceleration y (m/s^2)","Acceleration z (m/s^2)"
5.348490200E-2,3.411267757E0,-8.424530029E0,-1.416521072E1
6.319787100E-2,4.895416260E0,-7.806882858E0,-1.326251888E1
7.291000700E-2,5.707180977E0,-7.426424026E0,-1.163958645E1
8.262136100E-2,6.164509296E0,-7.277770042E0,-9.379565239E0
9.233360000E-2,5.958427429E0,-6.827919483E0,-6.741179466E0
1.020465690E-1,4.897809029E0,-6.047261238E0,-4.555335999E0
1.117586520E-1,3.198007345E0,-4.991427898E0,-2.123031855E0
1.214700590E-1,9.140582681E-1,-3.605385542E0,5.632106066E-1
1.311821940E-1,-1.618744493E0,-2.480160713E0,1.425225019E0
1.408952150E-1,-4.367200375E0,-2.420340061E0,2.437987089E0
1.506073500E-1,-7.079763889E0,-3.327518940E0,3.974777460E0
1.603187040E-1,-8.956634521E0,-5.317151070E0,3.783351660E0
1.700309440E-1,-8.707780838E0,-8.688039780E0,2.820838690E0
1.797439130E-1,-5.947360516E0,-1.377069473E1,-6.505486369E-1
1.894560480E-1,-1.226321608E-2,-1.974407768E1,-5.450850010E0
1.991674020E-1,7.902595997E0,-2.288017082E1,-6.243173599E0
2.088796420E-1,1.130937672E1,-2.354567337E1,-8.656334877E0
2.185926110E-1,8.309675217E0,-2.176690865E1,-1.133061314E1
2.283046940E-1,2.554039001E0,-1.953799438E1,-1.141196918E1
2.380161000E-1,-3.395116329E0,-1.818545151E1,-1.003310490E1
2.477282360E-1,-7.340581894E0,-1.793630028E1,-7.284649372E0
2.574412570E-1,-9.076275826E0,-1.787887192E1,-4.596014023E0
2.671533920E-1,-8.724530220E0,-1.727797318E1,-3.003889799E0
2.768647460E-1,-6.708577156E0,-1.645454407E1,-2.979961395E0
2.865769860E-1,-3.656233072E0,-1.537478256E1,-3.528217077E0
2.962899540E-1,-8.527421951E-1,-1.463240910E1,-3.276970625E0
3.060020900E-1,6.915257573E-1,-1.323200989E1,-2.022234201E0
3.157134440E-1,4.929214716E-1,-1.102702427E1,-7.486543655E-1
3.254256840E-1,-5.222335458E-1,-8.843573570E0,-2.362912297E-1
3.351386000E-1,-1.432104349E0,-7.024130821E0,-1.956132501E-1
3.448507360E-1,-2.171785593E0,-5.539683342E0,-8.898309469E-1
3.545621420E-1,-2.772683144E0,-4.395316124E0,-1.871486425E0
3.642742770E-1,-3.364009619E0,-3.614956856E0,-2.201995134E0
3.739872980E-1,-3.914657831E0,-3.073879719E0,-1.646561027E0
3.836994340E-1,-4.096811295E0,-2.872583628E0,-1.138983607E0
3.934107880E-1,-3.546163082E0,-2.841476917E0,-8.802596331E-1
4.031230270E-1,-2.262712955E0,-2.815155745E0,-3.993022740E-1
4.128359960E-1,-1.257428288E0,-2.384447813E0,-5.093721151E-1
4.225480790E-1,-8.886345029E-1,-2.044367790E0,-1.477568001E-1
4.322594860E-1,-2.111666054E-1,-1.776371717E0,2.090728760E0
4.419717250E-1,5.814558864E-1,-1.120140076E0,3.132204771E0
4.516846420E-1,8.063812256E-1,-9.526425004E-1,2.385046005E0
4.613967770E-1,9.978070259E-1,-2.137687922E0,1.312762380E0
4.711081320E-1,1.730608940E0,-3.715455294E0,-2.412563324E0
4.808203710E-1,3.107080221E0,-3.863810301E0,-9.982855797E0
4.905333400E-1,4.718347073E0,-4.347459793E0,-1.993490410E1
5.002454230E-1,6.123831272E0,-5.736194134E0,-1.981287003E1
5.099568290E-1,5.072783947E0,-5.736194134E0,-9.135198593E0
5.196690690E-1,2.202294111E0,-6.619444847E0,-2.481955290E0
5.293819860E-1,1.067497969E0,-5.860620975E0,2.184048891E0
5.390941210E-1,-1.910967946E0,-4.615755081E0,1.074287605E1
5.488055270E-1,-1.178883934E1,-9.846764565E0,2.564806700E0
5.585176630E-1,-1.195902824E1,-1.093609715E1,-6.401099682E0
5.682306840E-1,-6.617650032E0,-1.505623817E1,-6.912266612E-1
5.779428190E-1,5.503492355E-1,-1.882702827E1,8.799007416E0
5.876541730E-1,7.296912670E0,-2.142952156E1,1.027119160E1
5.973664130E-1,9.063713074E0,-1.901366806E1,5.490331650E0
6.070793820E-1,5.896214008E0,-1.764676857E1,1.334297776E0
6.167914650E-1,1.301994562E0,-1.762044716E1,1.101894855E0
6.265028710E-1,-2.901895761E0,-1.621017647E1,2.052443504E0
6.362150070E-1,-5.085346222E0,-1.492941856E1,5.153541565E-1
6.459280270E-1,-5.128417015E0,-1.418973732E1,-6.580262445E-3
6.556401630E-1,-3.708875179E0,-1.437159157E1,-1.830808401E0
6.653515170E-1,-2.133500576E0,-1.400279808E1,-3.913760424E0
6.750637570E-1,-3.667000830E-1,-1.347129250E1,-4.255934238E0
6.847767250E-1,8.805587292E-1,-1.275793171E1,-4.162613869E0
6.944888090E-1,2.175973177E0,-1.237956715E1,-4.062115669E0
7.042002150E-1,3.511766434E0,-1.290867996E1,-3.540181160E0
7.139123500E-1,3.823132277E0,-1.264786243E1,-4.167399883E0
7.236253710E-1,1.189531922E0,-1.136710358E1,-5.994319916E0
7.333375070E-1,-2.478366137E0,-1.093848991E1,-7.332505703E0
7.430488610E-1,-3.510270834E0,-1.001904774E1,-7.586144924E0
7.527611000E-1,-2.243570328E0,-1.021077251E1,-7.562216759E0
7.624740690E-1,-5.054837838E-2,-1.050030422E1,-8.062616348E0
7.721862040E-1,2.616252422E0,-1.046201897E1,-9.468100548E0
7.818975590E-1,4.304089546E0,-9.552147865E0,-1.103360462E1
7.916097980E-1,4.708775997E0,-7.948358536E0,-1.220459175E1
8.013227670E-1,4.806881428E0,-6.607480526E0,-1.229073334E1
8.110348500E-1,4.924129963E0,-6.001797199E0,-1.050718307E1
8.207462570E-1,5.005784988E0,-6.059225082E0,-7.523931503E0
8.304583920E-1,4.335196495E0,-5.793622017E0,-4.859224796E0
8.401714130E-1,2.580360174E0,-4.725824833E0,-3.320041418E0
8.498835480E-1,4.881358147E-1,-3.461816072E0,-1.390229940E0
8.595949020E-1,-1.668993831E0,-2.432304144E0,9.583254457E-1
8.693071420E-1,-2.825325251E0,-2.008475542E0,3.390629768E0
8.790201110E-1,-3.318545818E0,-3.035594702E0,6.294619083E0
8.887322460E-1,-4.180560112E0,-5.262115955E0,5.851946831E0
8.984436000E-1,-4.757529736E0,-8.113463402E0,2.129014015E0
9.081558400E-1,-4.223630905E0,-1.219053364E1,-3.724428415E0
9.178688090E-1,-2.145464659E0,-1.673689651E1,-7.816154957E0
9.275808920E-1,1.127318621E0,-2.130718803E1,-8.586943626E0
9.372922980E-1,3.926023722E0,-2.370150566E1,-7.430611610E0
9.470045380E-1,3.693620920E0,-2.333032036E1,-6.664609432E0
9.567175070E-1,1.632503271E0,-2.085972977E1,-7.253542900E0
9.664295900E-1,-1.937289000E0,-1.876242065E1,-8.787940025E0
9.761409960E-1,-4.975276470E0,-1.725643921E1,-8.503194809E0
9.858532360E-1,-6.055037498E0,-1.662204170E1,-6.379564285E0
9.955661520E-1,-6.040680885E0,-1.657418442E1,-4.031008720E0
1.005278288E0,-5.341677666E0,-1.598764420E1,-2.438884497E0
1.014989694E0,-4.041477680E0,-1.487199116E1,-1.560419440E0
1.024701829E0,-2.200499535E0,-1.398844147E1,-1.416550994E0
1.034414850E0,-1.063310504E0,-1.313390446E1,-1.170090318E0
1.044126986E0,-5.270192027E-1,-1.193689442E1,-6.768696904E-1
1.053838392E0,-1.055833027E-1,-1.061037350E1,-4.088735580E-1
1.063550527E0,1.384846121E-1,-9.154939651E0,-4.615156651E-1
1.073263548E0,-3.236292601E-1,-7.471887589E0,-8.946165442E-1
1.082975684E0,-1.343569875E0,-6.013761520E0,-9.786644578E-1
1.092687090E0,-2.535793781E0,-4.802394867E0,-1.812563092E-1
1.102399225E0,-3.210868835E0,-4.031607151E0,1.030110121E0
1.112112246E0,-3.452543974E0,-3.432803154E0,1.367797256E0
1.121824382E0,-3.570091486E0,-2.757728100E0,8.362914920E-1
1.131535788E0,-3.629911900E0,-2.073081732E0,-2.985046208E-1
1.141247923E0,-3.100799084E0,-1.543968797E0,-1.203589797E0
1.150960944E0,-2.226820469E0,-1.182353497E0,-9.978070259E-1
1.160673079E0,-1.305284739E0,-1.017248750E0,4.366901144E-2
1.170384486E0,-2.446661144E-1,-7.875377536E-1,-2.051845491E-1
1.180096621E0,2.174477577E-1,-1.249651670E0,-1.127019525E0
1.189809642E0,8.805587292E-1,-3.119343519E0,-1.677667737E0
1.199521777E0,1.950748682E0,-3.947559118E0,-5.027021408E0
1.209233184E0,2.937189817E0,-4.208675861E0,-1.220219898E1
1.218945319E0,4.675276279E0,-5.353043556E0,-1.660947990E1
1.228658340E0,5.764608860E0,-6.389733791E0,-1.620030594E1
1.238370475E0,5.371886730E0,-6.200401783E0,-5.730810165E0
1.248081882E0,3.890131474E0,-7.347161770E0,8.506484628E-1
1.257794121E0,3.428017616E0,-6.813562393E0,3.706781387E0
1.267507038E0,1.811964989E0,-5.781657696E0,8.650651932E0
1.277219173E0,-1.834397674E0,-8.558827400E0,4.566103935E0
1.286930579E0,-8.111668587E0,-1.175234795E1,-9.736096382E0
1.296642819E0,-5.734100342E0,-1.271725368E1,-5.867201328E0
1.306355788E0,-3.481257915E0,-1.589193153E1,4.925326347E0
1.316067923E0,-6.299105883E-1,-1.897299004E1,1.229193020E1
1.325779277E0,2.915654421E0,-1.904238129E1,9.316155434E0
1.335491517E0,3.798905134E0,-1.549203110E1,3.519842148E0
1.345204486E0,1.713859200E0,-1.535085487E1,4.124628007E-1
1.354916621E0,-1.077667475E0,-1.491506195E1,9.942178130E-1
1.364628027E0,-3.359223843E0,-1.420409393E1,7.115656137E-1
1.374340163E0,-4.994419098E0,-1.373240948E1,-1.134197950E0
1.384053184E0,-4.441378117E0,-1.390469265E1,-1.794916034E0
1.393765319E0,-1.846361756E0,-1.480738449E1,-2.568096876E0
1.403476725E0,-1.585244983E-1,-1.490070438E1,-3.537788391E0
1.413188965E0,5.048855543E-1,-1.417059517E1,-3.635894060E0
1.422901934E0,1.237388372E0,-1.306929779E1,-3.920938969E0
1.432614069E0,2.594717026E0,-1.259043407E1,-4.186542511E0
1.442325423E0,3.774976730E0,-1.319372463E1,-4.236791611E0
1.452037663E0,4.009772778E0,-1.366541004E1,-4.737190723E0
1.461750632E0,2.788834810E0,-1.279621696E1,-5.472385406E0
1.471462767E0,2.485544533E-1,-1.173081303E1,-7.296613693E0
1.481174173E0,-5.533402562E-1,-1.121844959E1,-1.003071213E1
1.490886413E0,-4.408775866E-1,-1.100788116E1,-1.152443218E1
1.500599382E0,6.436693072E-1,-1.085474110E1,-1.293709469E1
1.510311517E0,2.185544491E0,-9.892228127E0,-1.406949806E1
1.520022871E0,3.506980658E0,-8.515756607E0,-1.378445339E1
1.529735111E0,5.230710506E0,-7.457530975E0,-1.230987644E1
1.539448079E0,6.952046871E0,-7.009773731E0,-9.884450912E0
1.549160215E0,8.055736542E0,-6.729514599E0,-6.154638767E0
1.558871621E0,5.908178329E0,-6.763014317E0,-2.649751902E0
1.568583861E0,1.922034740E0,-5.309972763E0,-2.937189937E-1
1.578296829E0,-1.637887120E0,-3.653241873E0,-3.631108403E-1
1.588008965E0,-4.252345085E0,-2.451446772E0,-8.276175261E-1
1.597720319E0,-6.117250919E0,-2.154437780E0,4.220340848E-1
1.607432559E0,-6.581758022E0,-2.535195589E0,3.534198999E0
1.617145527E0,-5.815755367E0,-3.543172121E0,6.926922321E0
1.626857663E0,-5.116453171E0,-5.269294739E0,5.483152866E0
1.636569069E0,-4.077668667E0,-8.637790680E0,-3.056831062E-1
1.646281309E0,-2.708076954E0,-1.260239887E1,-7.813762188E0
1.655994277E0,-1.326820135E0,-1.680389595E1,-1.185015488E1
1.665706413E0,1.898106575E0,-2.042393684E1,-1.046620655E1
1.675417819E0,3.231507063E0,-2.247548485E1,-7.849654675E0
1.685129954E0,2.479861498E0,-2.273660088E1,-5.551348686E0
1.694843027E0,5.952146277E-2,-2.078286171E1,-4.236791611E0
1.704555111E0,-3.055335522E0,-1.872652817E1,-6.295815468E0
1.714266517E0,-4.994419098E0,-1.803948975E1,-7.655537128E0
1.723978757E0,-4.695316315E0,-1.778555107E1,-6.674180508E0
1.733691725E0,-4.417449474E0,-1.745982933E1,-4.991128922E0
1.743403861E0,-3.732803345E0,-1.600200081E1,-3.844368696E0
1.753115267E0,-2.554936409E0,-1.409611797E1,-3.384647608E0
1.762827507E0,-1.245165110E0,-1.292064381E1,-3.130709410E0
1.772540475E0,-5.964110494E-1,-1.146999550E1,-2.414956331E0
1.782252611E0,-7.570292354E-1,-9.897013664E0,-1.275374413E0
1.791964017E0,-1.060917735E0,-8.357531548E0,-4.016951025E-1
1.801676152E0,-1.269392371E0,-6.815955162E0,-2.195414752E-1
1.811389225E0,-1.441675663E0,-5.185545921E0,-4.351946115E-1
1.821101361E0,-1.695314884E0,-3.787240028E0,-7.510471940E-1
1.830812715E0,-2.186142683E0,-2.772084951E0,-1.306481123E0
1.840524954E0,-2.779861689E0,-2.171187401E0,-2.046162367E0
1.850237923E0,-3.253939629E0,-1.929512382E0,-2.656930447E0
1.859950059E0,-3.268296719E0,-1.984547257E0,-3.051746130E0
1.869661465E0,-2.866003275E0,-1.986940145E0,-2.572882652E0
1.879373704E0,-1.798206210E0,-2.106581211E0,-1.526919961E0
1.889086673E0,-5.054838061E-1,-1.821835399E0,-5.356931686E-1
1.898798809E0,3.370888829E-1,-1.319043517E0,2.521436810E-1
1.908510215E0,4.328017831E-1,-2.178365946E0,1.815255046E0
1.918222454E0,7.322037220E-1,-4.220640182E0,1.355833173E0
1.927935423E0,2.259721994E0,-5.894120216E0,-3.200400174E-1
1.937647559E0,4.586741924E0,-6.301199436E0,-2.642573595E0
1.947358965E0,6.265007973E0,-6.380162239E0,-9.501599312E0
1.957071100E0,9.070891380E0,-7.318448067E0,-1.926461601E1
1.966784121E0,1.004776096E1,-6.195616245E0,-1.359302711E1
1.976496257E0,7.955237865E0,-6.087938786E0,-4.615156651E0
1.986207663E0,2.309971094E0,-6.353841305E0,2.066800594E-1
1.995919902E0,-5.195715427E0,-4.031607151E0,7.807780266E0
2.005632871E0,-1.452533054E1,-5.913262844E0,7.752745152E0
2.015345007E0,-1.811665916E1,-8.297710419E0,-3.324826956E0
2.025056413E0,-1.080030441E1,-1.185763264E1,-7.339684486E0
2.034768652E0,-2.147857428E0,-1.477388477E1,4.542175770E0
2.044481621E0,4.201198578E0,-1.982064819E1,1.226800156E1
2.054193757E0,9.379565239E0,-2.122104645E1,9.009575844E0
2.063905163E0,8.709276199E0,-1.681825256E1,3.395415306E0
2.073617402E0,2.341077805E0,-1.521895027E1,2.473580390E-1
2.083330371E0,-4.486841679E0,-1.292303658E1,-1.275374413E0
2.093042507E0,-7.517949581E0,-1.137428284E1,-2.534597397E0
2.102753913E0,-6.553043842E0,-1.209242821E1,-2.345564365E0
2.112466152E0,-2.327319145E0,-1.435962772E1,-1.608275890E0
2.122179121E0,1.646860242E0,-1.551356697E1,-1.392622828E0
2.131891257E0,4.060021877E0,-1.530539131E1,-1.387837172E0
2.141602611E0,5.252245903E0,-1.460369587E1,-1.495514154E0
2.151314850E0,6.049654007E0,-1.378505135E1,-2.261815548E0
2.161027819E0,6.075974941E0,-1.412752438E1,-3.564109325E0
2.170739954E0,5.386243820E0,-1.500838184E1,-4.720440865E0
2.180451361E0,4.205984116E0,-1.524078465E1,-5.788238049E0
2.190163600E0,1.819143414E0,-1.433091354E1,-5.883950710E0
2.199876569E0,-1.393819153E-1,-1.348564911E1,-7.902296543E0
2.209588704E0,-6.777670383E-1,-1.247797203E1,-1.027717304E1
2.219300111E0,-9.601201117E-2,-1.178584766E1,-1.115832996E1
2.229012350E0,7.154539824E-1,-1.094327545E1,-1.184058380E1
2.238725319E0,1.577468276E0,-9.274580956E0,-1.298255825E1
2.248437454E0,2.860619545E0,-7.725526810E0,-1.374138260E1
2.258148861E0,5.446064472E0,-7.091129780E0,-1.306152153E1
2.267861100E0,7.852346420E0,-6.700800896E0,-9.647562027E0
2.277574069E0,7.983952045E0,-6.509375095E0,-4.832903385E0
2.287286204E0,5.518147945E0,-5.412863731E0,-1.253839016E0
2.296997611E0,1.620539188E0,-3.674777269E0,3.215355575E-1
2.306709850E0,-2.269891262E0,-2.001296997E0,-1.716850251E-1
2.316422819E0,-5.186143875E0,-1.201795220E0,-1.028913736E0
2.326134954E0,-6.352046967E0,-1.632503271E0,1.800599098E-1
2.335846309E0,-6.553043842E0,-2.807977438E0,2.600699186E0
2.345558548E0,-6.500401974E0,-4.737788677E0,3.452843189E0
2.355271569E0,-5.755934715E0,-8.051250458E0,2.514557600E0
2.364983652E0,-3.897907972E0,-1.214985561E1,-1.014556766E0
2.374695059E0,-1.944168471E-2,-1.687568092E1,-5.053342342E0
2.384407298E0,5.137390137E0,-2.015564156E1,-7.835297585E0
2.394120267E0,8.675776482E0,-2.238694954E1,-9.949356079E0
2.403832402E0,6.899405003E0,-2.277967072E1,-8.922237396E0
2.413543809E0,2.067996979E0,-2.144866371E1,-6.588038921E0
2.423256048E0,-3.038585663E0,-1.969592094E1,-5.680561066E0
2.432969017E0,-6.632007122E0,-1.821895218E1,-5.378766060E0
2.442681152E0,-7.388438225E0,-1.734018707E1,-4.581656933E0
2.452392559E0,-5.944967747E0,-1.678475380E1,-4.272684097E0
2.462104798E0,-4.343272209E0,-1.570499229E1,-4.078865528E0
2.471817767E0,-3.457329512E0,-1.399322701E1,-3.214757204E0
2.481529902E0,-2.645863533E0,-1.250668621E1,-3.027817965E0
2.491241309E0,-2.557329178E0,-1.112273693E1,-2.613560438E0
2.500953548E0,-2.291426897E0,-9.954441071E0,-1.287338614E0
2.510666517E0,-1.922932148E0,-8.869894028E0,-4.007977992E-2
2.520378652E0,-1.475175142E0,-7.799704552E0,4.028915167E-1
2.530090007E0,-1.226022482E0,-6.808477879E0,3.502494097E-1
2.539802246E0,-1.764706731E0,-5.889334679E0,4.845465720E-2
2.549515215E0,-2.612364054E0,-4.843072891E0,-1.621137410E-1
2.559227350E0,-3.110370398E0,-4.273282051E0,-4.007977992E-2
2.568938757E0,-2.938086987E0,-3.787240028E0,-9.272187948E-2
2.578650996E0,-2.044965982E0,-3.526422262E0,-8.347960114E-1
2.588363965E0,-1.415354609E0,-3.176771164E0,-1.730309844E0
2.598076100E0,-9.173483849E-1,-2.841476917E0,-2.704786777E0
2.607787507E0,-4.671986103E-1,-2.472982168E0,-2.939283609E0
2.617499746E0,1.504487246E-1,-2.128116608E0,-2.079961061E0
2.627212715E0,8.853443861E-1,-1.235294700E0,-1.770987868E0
2.636924850E0,1.878963947E0,-9.071788788E-1,-2.178066730E0
2.646636257E0,3.270091295E0,-2.702693224E0,-2.254637241E0
2.656348496E0,5.357530117E0,-4.313960075E0,-3.877868176E0
2.666061465E0,6.358327866E0,-4.318745613E0,-4.871487617E0
2.675773600E0,7.284948349E0,-4.838287354E0,-8.474480629E0
2.685485007E0,9.235996246E0,-6.121438503E0,-1.158425236E1
2.695197142E0,1.022722340E1,-6.226722717E0,-1.380359554E1
2.704910215E0,4.696811676E0,-5.858228207E0,-8.067401886E0
2.714622350E0,-3.957728624E0,-5.788836002E0,5.164608479E0
2.724333704E0,-1.142752266E1,-6.772585392E0,1.013240719E1
2.734045944E0,-1.587099457E1,-7.409674644E0,5.258227825E0
2.743758913E0,-1.179362488E1,-9.786943436E0,-2.743072033E0
2.753471048E0,-2.394617319E0,-1.505145264E1,2.246262312E0
2.763182454E0,4.402494431E0,-1.867149353E1,7.472486019E0
2.772894694E0,8.091629028E0,-2.017957115E1,7.807780266E0
2.782607663E0,7.232306480E0,-1.908305931E1,4.592424870E0
2.792319798E0,3.511766434E0,-1.754626846E1,1.556830287E0
2.802031204E0,-1.190130115E0,-1.751755524E1,7.426723242E-1
2.811743444E0,-4.297808647E0,-1.647368622E1,5.871388316E-1
2.821456413E0,-5.714957714E0,-1.574327755E1,1.070788145E0
2.831168548E0,-5.743970871E0,-1.530060482E1,-1.167697430E0
2.840879954E0,-4.489234447E0,-1.496531105E1,-4.311268330E0
2.850592194E0,-2.842075109E0,-1.445055485E1,-5.994319916E0
2.860305163E0,-6.179464459E-1,-1.374437332E1,-6.748358250E0
2.870017298E0,2.281257391E0,-1.296610737E1,-6.683752060E0
2.879728704E0,4.397708893E0,-1.352871990E1,-6.247959137E0
2.889440944E0,5.750251770E0,-1.457258892E1,-5.489135265E0
2.899153913E0,4.919344425E0,-1.407219028E1,-3.770191193E0
2.908866048E0,3.016152859E0,-1.281536007E1,-3.585644722E0
2.918577454E0,9.140582681E-1,-1.163270760E1,-5.879165173E0
2.928289694E0,-1.159023523E0,-9.932906151E0,-1.041835022E1
2.938002663E0,-1.975574136E0,-8.249854088E0,-1.473260880E1
2.947714798E0,-6.035895348E-1,-7.447959423E0,-1.592722607E1
2.957426152E0,1.534098387E0,-6.954739094E0,-1.512054539E1
2.967138392E0,3.588336706E0,-6.765407085E0,-1.354277802E1
2.976851413E0,6.030212402E0,-7.122236729E0,-1.153400326E1
2.986563548E0,7.428517818E0,-7.457530975E0,-9.022735596E0
2.996274902E0,7.766204834E0,-6.808477879E0,-4.916951656E0
3.005987142E0,5.855535984E0,-5.360221863E0,-1.189232826E0
3.015700111E0,1.392921925E0,-3.892524242E0,1.695613980E0
3.025412350E0,-2.526222467E0,-2.724228621E0,5.056931496E0
3.035123652E0,-5.073382378E0,-1.879263043E0,6.522236347E0
3.044835892E0,-6.064609051E0,-1.666002750E0,4.963611603E0
3.054548861E0,-7.130013466E0,-2.942274570E0,9.152546525E-1
3.064260996E0,-9.090632439E0,-5.499005318E0,-3.839582920E0
3.073972402E0,-9.528818130E0,-9.798908234E0,-7.097710133E0
3.083684642E0,-6.174678802E0,-1.537478256E1,-8.342875481E0
3.093397611E0,-1.800599098E-1,-2.132393837E1,-6.975676060E0
3.103109746E0,6.705586433E0,-2.378286171E1,-4.933701038E0
3.112821152E0,1.048086262E1,-2.317478561E1,-4.150650024E0
3.122533392E0,8.965607643E0,-2.043590164E1,-5.675775528E0
3.132246361E0,3.753441334E0,-1.760848236E1,-7.763513088E0
3.141958496E0,-2.272284269E0,-1.615275002E1,-8.215756416E0
3.151669902E0,-7.814659595E0,-1.619581985E1,-6.271887302E0
3.161382142E0,-1.078086281E1,-1.676082611E1,-3.214757204E0
3.171095111E0,-1.013689423E1,-1.705304909E1,-1.526919961E0
3.180807246E0,-5.561817169E0,-1.650240135E1,-1.071984529E0
3.190518652E0,-1.704886079E0,-1.591346741E1,-1.926521301E0
3.200230892E0,7.130611539E-1,-1.537238979E1,-2.424527645E0
3.209943861E0,1.752144337E0,-1.405065441E1,-1.548455358E0
3.219655996E0,1.587039590E0,-1.218335533E1,-3.777668774E-1
3.229367402E0,9.810572863E-1,-9.920941353E0,2.186441720E-1
3.239079642E0,2.222333997E-1,-7.502994537E0,3.000001311E-1
3.248792611E0,-7.259225845E-1,-5.324329376E0,4.435695112E-1
3.258504746E0,-1.812862277E0,-3.507279873E0,4.770690203E-1
3.268216152E0,-3.086441994E0,-2.149652004E0,6.517450809E-1
3.277928392E0,-3.857230186E0,-1.407577872E0,3.409772366E-2
3.287641361E0,-3.888336897E0,-1.302293777E0,-8.180462122E-1
3.297353496E0,-2.928216696E0,-1.460219979E0,-1.971984982E0
3.307064902E0,-1.432104349E0,-1.646860242E0,-2.711965322E0
3.316777142E0,-4.097708687E-2,-1.730608940E0,-2.412563324E0
3.326490111E0,6.604190469E-1,-7.468597889E-1,-1.814058661E0
3.336202246E0,-1.151545867E-1,1.725823283E-1,-2.022234201E0
3.345913652E0,-1.194915771E0,-1.735394597E0,-2.680858612E0
3.355625892E0,2.461616248E-1,-3.303590775E0,-3.971188307E0
3.365338861E0,3.006581545E0,-3.476173162E0,-4.287040710E0
3.375050996E0,5.010570526E0,-3.478565931E0,-7.375576496E0
3.384762402E0,7.529016495E0,-5.219045162E0,-1.001874828E1
3.394474642E0,9.276674271E0,-5.592325687E0,-6.288637161E0
3.404187611E0,7.133901596E0,-5.520540714E0,-2.146960020E0
3.413899746E0,3.981058598E0,-6.071189404E0,2.186441720E-1
3.423611152E0,6.293123364E-1,-4.996213913E0,3.558426380E0
3.433323392E0,-5.444568634E0,-6.533303261E0,-1.375873014E-2
3.443036361E0,-1.170030499E1,-1.269811153E1,-6.482455730E0
3.452748496E0,-7.778767109E0,-1.348564911E1,-2.652144909E0
3.462459902E0,-4.479662895E0,-1.713679695E1,3.776173353E0
3.472172142E0,3.658027649E-1,-1.916710663E1,1.042463112E1
3.481885111E0,4.196412563E0,-2.039043808E1,1.086760235E1
3.491597246E0,4.890630245E0,-1.729472351E1,5.674578667E0
3.501308652E0,4.294518471E0,-1.469492245E1,1.164108157E0
3.511020892E0,7.274180651E-1,-1.620299911E1,-1.246660590E0
3.520733861E0,-2.413759947E0,-1.587518215E1,-2.015055656E0
3.530445996E0,-4.132703781E0,-1.573609924E1,-1.988734722E0
3.540157402E0,-5.020740032E0,-1.559731483E1,-1.361516118E0
3.549869642E0,-3.720839262E0,-1.549442387E1,-1.852343798E0
3.559582611E0,-1.688136339E0,-1.485763359E1,-3.487539053E0
3.569294746E0,-3.092723191E-1,-1.358166122E1,-4.347160339E0
3.579006152E0,8.781659007E-1,-1.172602749E1,-4.782654285E0
3.588718392E0,1.957927108E0,-1.064387321E1,-4.936093807E0
3.598431413E0,2.115853310E0,-1.078774166E1,-4.165007114E0
3.608143496E0,1.594218135E0,-1.134556866E1,-4.088436604E0
3.617854902E0,-4.360919297E-1,-1.172602749E1,-5.419444084E0
3.627567142E0,-1.757528186E0,-1.039023399E1,-5.168197632E0
3.637280111E0,-2.009073734E0,-1.008126068E1,-6.676573277E0
3.646992350E0,-1.056132078E0,-1.007168961E1,-9.448957443E0
3.656703652E0,5.886343718E-1,-1.002383327E1,-1.115115166E1
3.666415892E0,2.365005970E0,-9.731908798E0,-1.235534000E1
3.676128913E0,3.765405416E0,-9.001500130E0,-1.263290691E1
3.685841048E0,5.283352375E0,-7.991429329E0,-1.206550884E1
3.695552402E0,6.506682873E0,-7.313662529E0,-1.085892868E1
3.705264694E0,7.270591736E0,-6.880561352E0,-9.008378983E0
3.714977663E0,7.064509869E0,-7.071987152E0,-6.607181549E0
3.724689798E0,5.563611984E0,-6.669693947E0,-4.272684097E0
3.734401204E0,3.337090254E0,-5.542076111E0,-2.230708838E0
3.744113444E0,9.858429432E-1,-4.529314041E0,-8.682954907E-1
3.753826413E0,-6.777670383E-1,-4.002593994E0,1.085145116E0
3.763538548E0,-2.143071890E0,-4.390530586E0,2.940479994E0
3.773249954E0,-4.740779877E0,-5.506184101E0,4.034597874E0
3.782962194E0,-6.620042801E0,-6.835097790E0,5.090431213E0
3.792675163E0,-7.900801182E0,-8.472386360E0,5.100002289E0
3.802387298E0,-8.348558426E0,-1.126391315E1,1.266999602E0
3.812098704E0,-6.608078957E0,-1.577199173E1,-4.820939541E0
3.821810944E0,1.983051747E-1,-2.021067810E1,-1.232662582E1
3.831523913E0,4.467100620E0,-2.199213409E1,-1.523540115E1
3.841236048E0,5.259424210E0,-2.171187401E1,-1.132822037E1
3.850947454E0,4.237090588E0,-2.090519333E1,-8.285447121E0
3.860659694E0,7.848458290E-1,-1.922932053E1,-7.919046402E0
3.870372663E0,-3.368795156E0,-1.776401711E1,-7.358827114E0
3.880084798E0,-6.050251961E0,-1.698365784E1,-5.529813290E0
3.889796204E0,-7.149155617E0,-1.605464363E1,-3.659822226E0
3.899508444E0,-6.236892223E0,-1.494616890E1,-2.558525562E0
3.909221413E0,-4.187738895E0,-1.365583897E1,-2.376671076E0
3.918933548E0,-2.312962294E0,-1.260239887E1,-2.309672117E0
3.928644954E0,-1.262213945E0,-1.141496086E1,-1.859522343E0
3.938357194E0,-4.001995921E-1,-1.020120144E1,-1.201196909E0
3.948070163E0,2.509472668E-1,-8.838788033E0,-8.180462122E-1
3.957782298E0,4.016951025E-1,-7.502994537E0,-4.184448719E-1
3.967493704E0,-1.992024779E-1,-6.214758396E0,-4.304089844E-1
3.977205944E0,-1.250249863E0,-4.888536453E0,-2.650051117E-1
3.986918913E0,-2.310569286E0,-3.940380573E0,1.848455518E-1
3.996631048E0,-2.947658300E0,-3.272484064E0,5.563312769E-2
4.006342454E0,-2.791825771E0,-2.764906645E0,-8.156534433E-1
4.016054694E0,-1.949253201E0,-2.266900301E0,-1.794916034E0
4.025767715E0,-7.642077208E-1,-1.850549221E0,-2.738286495E0
4.035479850E0,7.968099117E-1,-1.651645780E0,-2.613560438E0
4.045191204E0,2.666501760E0,-1.721037745E0,-1.625025630E0
4.054903444E0,4.007379532E0,-1.359721422E0,-5.548357368E-1
4.064616465E0,2.860619545E0,-1.575075507E0,5.560321808E-1
4.074328600E0,1.165603757E0,-2.286042929E0,1.621436477E0
4.084040007E0,5.712864175E-2,-3.212663412E0,1.547258973E0
4.093752246E0,3.562314808E-1,-3.935595036E0,1.947159469E-1
4.103465215E0,2.242972136E0,-4.486243248E0,-3.758227110E0
4.113177350E0,6.015855312E0,-5.417649746E0,-9.570991516E0
4.122888757E0,8.788239479E0,-5.432006359E0,-1.131147099E1
4.132600996E0,6.561717987E0,-4.876572609E0,-1.072732258E1
4.142313965E0,6.388836503E-1,-4.658825874E0,-5.477170944E0
4.152026100E0,-6.653542519E0,-5.664110184E0,2.490629196E0
4.161737507E0,-1.279442310E1,-9.573683739E0,4.531407952E-1
4.171449746E0,-1.263410378E1,-1.389033508E1,1.657029688E-1
4.181162715E0,-7.733303547E0,-1.725404549E1,3.773780346E0
4.190874850E0,4.498506486E-1,-2.121147537E1,7.944170952E0
4.200586257E0,5.857928753E0,-2.288256264E1,1.003190899E1
4.210298496E0,8.699705124E0,-1.953320885E1,8.631509781E0
4.220011465E0,6.846762657E0,-1.828116417E1,1.501795292E0
4.229723600E0,3.162115097E0,-1.779512215E1,-3.058924675E0
4.239435007E0,-6.179464459E-1,-1.693819237E1,-1.287338614E0
4.249147246E0,-2.827718258E0,-1.643300819E1,-8.467600942E-1
4.258860215E0,-3.921836376E0,-1.563320732E1,-1.589133382E0
4.268572350E0,-3.134298563E0,-1.462762356E1,-2.221137524E0
4.278283757E0,-1.429711580E0,-1.366062450E1,-3.468396425E0
4.287995996E0,-1.561316848E-1,-1.176431274E1,-4.823332310E0
4.297708965E0,8.446664214E-1,-9.655338287E0,-5.560919762E0
4.307421100E0,1.625324726E0,-8.556434631E0,-5.800201893E0
4.317132507E0,1.491027594E0,-8.391031265E0,-4.837689400E0
4.326844746E0,4.112663865E-1,-9.533005714E0,-3.320041418E0
4.336557715E0,-1.745564103E0,-1.181695461E1,-1.723131418E0
4.346269850E0,-2.901895761E0,-1.119930744E1,-5.931209326E-1
4.355981257E0,-2.559721947E0,-1.041176987E1,-4.387838364E0
4.365693496E0,-6.777670383E-1,-1.044526863E1,-1.128514957E1
4.375406517E0,1.347458243E0,-1.027777100E1,-1.475653744E1
4.385118652E0,2.635395050E0,-9.786943436E0,-1.528804302E1
4.394830007E0,3.621836185E0,-9.001500130E0,-1.433988667E1
4.404542246E0,5.221138954E0,-8.417351723E0,-1.275284767E1
4.414255267E0,7.655836105E0,-8.120641708E0,-1.071057320E1
4.423967402E0,9.202496529E0,-7.421638489E0,-8.613264084E0
4.433678757E0,8.517850876E0,-6.619444847E0,-6.061318874E0
4.443391048E0,5.831607819E0,-6.274878502E0,-3.897010803E0
4.453104017E0,2.503789902E0,-5.087141037E0,-2.206780672E0
4.462816152E0,-1.056132078E0,-4.134498596E0,-6.625127792E-1
4.472527559E0,-4.257130623E0,-3.452244759E0,4.148556292E-1
4.482239798E0,-6.591329098E0,-3.081058264E0,3.474378586E0
4.491952767E0,-6.955337048E0,-3.581457376E0,7.266703129E0
4.501664902E0,-7.594520092E0,-4.986642361E0,7.453343391E0
4.511376309E0,-8.564210892E0,-7.337590694E0,4.111168385E0
4.521088548E0,-8.595317841E0,-1.158006477E1,-2.824428082E0
4.530801517E0,-5.152345181E0,-1.631785393E1,-1.034417248E1
4.540513652E0,1.211067319E0,-2.096262169E1,-1.411256886E1
4.550225059E0,5.599503994E0,-2.466850662E1,-1.331785297E1
4.559937298E0,7.591229916E0,-2.567887497E1,-7.645965576E0
4.569650267E0,6.705586433E0,-2.462304306E1,-4.062115669E0
4.579362402E0,2.487040043E0,-2.138375854E1,-4.339982033E0
4.589073809E0,-2.542972326E0,-1.912852287E1,-6.875177860E0
4.598786048E0,-6.186643124E0,-1.768983841E1,-7.459325314E0
4.608499017E0,-8.463413239E0,-1.631067467E1,-5.860022545E0
4.618211152E0,-8.937491417E0,-1.471167183E1,-4.210470676E0
4.627922559E0,-6.665506363E0,-1.281536007E1,-3.082852840E0
4.637634798E0,-3.574877024E0,-1.149870968E1,-2.355135679E0
4.647347767E0,-1.604387641E0,-1.196082306E1,-1.713560104E0
4.657059902E0,-9.601201117E-2,-1.140538883E1,-5.620142221E-1
4.666771309E0,2.772683203E-1,-1.026341438E1,5.249254704E-1
4.676483548E0,4.809573591E-1,-8.944071770E0,1.027717352E0
4.686196517E0,1.695913076E-1,-7.268198967E0,1.219143152E0
4.695908652E0,-5.389832854E-1,-5.601896763E0,1.235892892E0
4.705620059E0,-1.475175142E0,-4.129712582E0,8.817551732E-1
4.715332298E0,-2.281855583E0,-2.930310488E0,-5.443671346E-2
4.725045267E0,-2.868396044E0,-2.022832394E0,-1.296909928E0
4.734757402E0,-3.318545818E0,-1.424327731E0,-2.793321371E0
4.744468809E0,-3.239582777E0,-1.072283626E0,-3.255435228E0
4.754181048E0,-2.126322031E0,-9.526425004E-1,-2.893819809E0
4.763894017E0,-8.647062778E-1,-1.036391258E0,-2.489133835E0
4.773606152E0,-4.097708687E-2,-5.910272002E-1,-1.210768223E0
4.783317559E0,-3.882354796E-1,-5.383850932E-1,-3.104687333E-1
4.793029798E0,-7.378866673E-1,-2.104188442E0,7.776673418E-3
4.802742767E0,-2.422732860E-1,-4.033999920E0,-3.726821244E-1
4.812454902E0,1.644467354E0,-5.341079235E0,-2.245065928E0
4.822166309E0,3.624228954E0,-6.166902065E0,-8.177471161E0
4.831878548E0,7.131508827E0,-7.804490089E0,-1.902533340E1
4.841591517E0,9.695717812E0,-6.851847649E0,-1.275763321E1
4.851303652E0,9.063713074E0,-6.712764740E0,-2.865405083E-1
4.861015059E0,6.559325218E0,-8.280961037E0,4.357928276E0
4.870727298E0,3.428017616E0,-7.076773167E0,8.944969177E0
4.880440267E0,-1.776670814E-1,-5.539683342E0,8.092824936E0
4.890152402E0,-1.382632732E1,-8.410173416E0,-1.251087284E1
4.899863809E0,-1.346471214E1,-7.076773167E0,-1.340638733E1
4.909576048E0,-8.901598930E0,-1.198714447E1,1.154536903E-1
4.919289017E0,-4.448556423E0,-1.608096504E1,9.409476280E0
4.929001152E0,1.443171144E0,-1.929631996E1,1.422174168E1
4.938712559E0,4.225126743E0,-2.013889313E1,1.019462109E1
4.948424798E0,6.353542328E0,-1.677518272E1,3.567997694E0
4.958137767E0,6.052046776E0,-1.600439453E1,-9.954141974E-1
4.967849902E0,2.606681108E0,-1.613839149E1,-2.058425665E0
4.977561309E0,-7.689933777E-1,-1.516391563E1,-2.302493572E0
4.987273548E0,-3.342474222E0,-1.469731522E1,-2.534597397E0
4.996986517E0,-2.882753134E0,-1.461565971E1,-2.640180588E0
5.006698652E0,-3.858426586E-2,-1.535564041E1,-3.573680639E0
5.016410059E0,2.219043970E0,-1.536521149E1,-3.733999729E0
5.026122298E0,3.298804998E0,-1.431416416E1,-3.755834341E0
5.035835267E0,3.188436270E0,-1.303579903E1,-5.019842625E0
5.045547402E0,2.604288340E0,-1.187468147E1,-6.288637161E0
5.055258809E0,6.963114142E-1,-1.124477100E1,-6.305386543E0
5.064971048E0,-2.832503796E0,-1.141496086E1,-5.182554722E0
5.074684017E0,-6.138786316E0,-1.120409298E1,-4.564907551E0
5.084396152E0,-6.921837807E0,-1.010518932E1,-5.603990555E0
5.094107559E0,-5.049454212E0,-9.928120613E0,-8.644371033E0
5.103819798E0,-2.126322031E0,-9.851550102E0,-1.199851036E1
5.113532767E0,1.055533886E0,-1.014108181E1,-1.474696636E1
5.123244902E0,3.523730516E0,-1.038784122E1,-1.543161201E1
5.132956309E0,4.909772873E0,-9.918548584E0,-1.386132240E1
5.142668548E0,5.237888813E0,-8.984749794E0,-1.218544960E1
5.152381517E0,4.766203403E0,-7.718348503E0,-1.057418251E1
5.162093652E0,4.052843571E0,-6.767799854E0,-7.473682404E0
5.171805059E0,3.004188776E0,-5.882156372E0,-4.026223183E0
5.181517298E0,1.622931957E0,-4.764110088E0,-1.287338614E0
5.191230267E0,-5.676971674E-1,-3.531208038E0,-2.578266263E-1
5.200942402E0,-2.497508526E0,-2.899203777E0,4.606183618E-2
5.210653809E0,-3.409473181E0,-3.457030535E0,2.066800594E0
5.220366048E0,-4.623531342E0,-4.862215519E0,3.950849295E0
5.230079017E0,-5.887540340E0,-6.420840263E0,3.926921129E0
5.239791152E0,-5.782256126E0,-9.265008926E0,3.479164124E0
5.249502559E0,-4.965705395E0,-1.273878956E1,5.991029739E-1
5.259214798E0,-2.839682341E0,-1.717747498E1,-3.784548044E0
5.268927767E0,1.668395638E0,-2.149652100E1,-9.321838379E0
5.278639902E0,5.393422127E0,-2.362463760E1,-1.269272804E1
5.288351309E0,5.532505035E0,-2.303570366E1,-1.156511021E1
5.298063548E0,2.848655462E0,-2.143430710E1,-9.563813210E0
5.307776517E0,-1.417747378E0,-1.949731636E1,-8.069794655E0
5.317488652E0,-5.815755367E0,-1.747927094E1,-7.009175777E0
5.327200059E0,-8.717351913E0,-1.645215034E1,-5.261518002E0
5.336912298E0,-9.028418541E0,-1.566670704E1,-4.062115669E0
5.346625267E0,-7.051050186E0,-1.494856167E1,-2.810070992E0
5.356337402E0,-3.292224884E0,-1.421127319E1,-1.775773525E0
5.366048809E0,4.486542661E-3,-1.405304718E1,-1.141376376E0
5.375761048E0,9.523434043E-1,-1.301904869E1,-1.453639716E-1
5.385474017E0,6.173482537E-1,-1.136949635E1,6.230311990E-1
5.395186152E0,-5.084747914E-3,-9.712766647E0,9.511470199E-1
5.404897559E0,-8.479565382E-1,-7.991429329E0,9.750752449E-1
5.414609798E0,-1.635494232E0,-6.382555485E0,6.278168559E-1
5.424322767E0,-2.389831543E0,-5.017749310E0,-4.725824669E-2
5.434034902E0,-3.050549746E0,-3.873381615E0,-2.051845491E-1
5.443746309E0,-3.342474222E0,-2.791227579E0,-2.626122832E-1
5.453458548E0,-3.234797001E0,-1.974975944E0,-8.324031830E-1
5.463171517E0,-2.808575630E0,-1.548754454E0,-1.574776411E0
5.472883652E0,-2.289033890E0,-1.228116274E0,-2.036591291E0
5.482595059E0,-1.199701428E0,-1.184746265E0,-1.720738530E0
5.492307298E0,-5.084747914E-3,-1.393221021E0,-8.252246976E-1
5.502020267E0,6.484549642E-1,-1.110568762E0,7.450651526E-1
5.511732402E0,-1.728814393E-1,-6.909275055E-2,1.578365684E0
5.521443809E0,-1.544566989E0,-6.487540603E-1,1.765005827E0
5.531156048E0,-1.369890928E0,-2.420340061E0,9.918249846E-1
5.540869017E0,1.359422326E0,-3.626920938E0,-7.127620578E-1
5.550581152E0,4.237090588E0,-4.440779686E0,-4.636692047E0
5.560292559E0,6.229115486E0,-4.538885593E0,-1.417478180E1
5.570004798E0,8.996713638E0,-5.654539108E0,-2.240818596E1
5.579717767E0,8.355138779E0,-6.241079807E0,-1.779961014E1
5.589429902E0,5.527719498E0,-6.770192623E0,-1.036810017E1
5.599141309E0,1.615753531E0,-7.816454411E0,-2.558525562E0
5.608853548E0,-2.447259426E0,-8.843573570E0,9.869196892E0
5.618566517E0,-8.484949112E0,-1.282253838E1,1.208854008E1
5.628278652E0,-9.306285858E0,-1.339232922E1,3.654139280E0
5.637990059E0,-3.871587038E0,-1.503709602E1,-2.283350945E0
5.647702298E0,2.927618504E0,-1.712961960E1,2.667698145E0
5.657415267E0,7.706085205E0,-1.849412537E1,9.179764748E0
5.667127402E0,7.469195843E0,-1.785733604E1,7.290631294E0
5.676838809E0,2.625823736E0,-1.617428398E1,4.968397141E0
5.686551048E0,-2.586043119E0,-1.467338657E1,4.412963390E0
5.696264017E0,-6.574579239E0,-1.291585827E1,3.598206937E-1
5.705976152E0,-9.354142189E0,-1.119212914E1,-4.169792652E0
5.715687559E0,-9.571888924E0,-1.108205891E1,-5.151448250E0
5.725399798E0,-5.961717606E0,-1.296371460E1,-4.019044876E0
5.735112767E0,-1.973181367E0,-1.453430367E1,-2.640180588E0
5.744824902E0,8.105687052E-2,-1.471645737E1,-9.978070259E-1
5.754536309E0,1.294816136E0,-1.404108334E1,-3.152543902E-1
5.764248548E0,2.166401863E0,-1.307169056E1,-1.232303619E0
5.773961517E0,2.812762976E0,-1.249232864E1,-2.695215702E0
5.783673652E0,3.018545866E0,-1.267896938E1,-3.892225027E0
5.793385059E0,2.688336134E0,-1.318176079E1,-4.607978344E0
5.803097298E0,1.675574064E0,-1.330858040E1,-5.149055004E0
5.812810267E0,3.275175989E-1,-1.280818176E1,-7.066603661E0
5.822522402E0,-1.633101404E-1,-1.209960651E1,-9.712167740E0
5.832233809E0,-5.437689424E-1,-1.156570816E1,-1.148614693E1
5.841946048E0,-5.413761139E-1,-1.119452190E1,-1.286291695E1
5.851659017E0,6.723831892E-1,-1.067258739E1,-1.470389557E1
5.861371152E0,2.137687922E0,-9.774979591E0,-1.582911968E1
5.871082559E0,3.935595036E0,-8.965607643E0,-1.462493229E1
5.880794798E0,5.664110184E0,-8.139784813E0,-1.099053383E1
5.890507767E0,6.396613121E0,-7.155735970E0,-6.681358814E0
5.900219902E0,5.874678612E0,-6.104688644E0,-3.389433384E0
5.909931257E0,4.052843571E0,-4.359423637E0,-1.004985452E0
5.919643548E0,8.662018180E-1,-2.606980324E0,4.627120793E-1
5.929356517E0,-2.212463617E0,-1.948654890E0,1.623829246E0
5.939068652E0,-4.092025757E0,-1.694716692E0,3.888635874E0
5.948780059E0,-5.296213627E0,-2.616551638E0,5.964409351E0
5.958492194E0,-6.608078957E0,-3.837489367E0,4.616353035E0
5.968205267E0,-6.624828815E0,-6.516553402E0,-6.984050870E-1
5.977917402E0,-6.016752720E0,-1.073958588E1,-5.560919762E0
5.987628757E0,-4.908277512E0,-1.570738506E1,-6.755536556E0
5.997340996E0,-1.092024446E0,-1.984457588E1,-8.680263519E0
6.007054017E0,1.800000787E0,-2.253081894E1,-1.016471100E1
6.016766152E0,3.408874989E0,-2.323699951E1,-7.275078297E0
6.026477507E0,2.973082066E0,-2.129043770E1,-5.855237007E0
6.036189746E0,2.270190418E-1,-1.920060730E1,-7.694121361E0
6.045902767E0,-2.732005358E0,-1.779273033E1,-8.572586060E0
6.055614902E0,-4.893920422E0,-1.730429459E1,-6.939784050E0
6.065326257E0,-6.181857109E0,-1.698126411E1,-4.598406792E0
6.075038496E0,-5.614459038E0,-1.650957870E1,-2.723929405E0
6.084751517E0,-3.589233875E0,-1.551835251E1,-1.615454435E0
6.094463600E0,-1.348355532E0,-1.462523079E1,-1.301695466E0
6.104175007E0,-4.384847581E-1,-1.380180073E1,-8.635098934E-1
6.113887246E0,-9.840483218E-2,-1.245165062E1,5.982056609E-4
6.123600215E0,-2.949153781E-1,-1.085474110E1,4.052843451E-1
6.133312350E0,-5.198407173E-1,-9.274580956E0,2.186441720E-1
6.143023757E0,-1.053739309E0,-7.656135082E0,-3.583251834E-1
6.152735996E0,-1.815255046E0,-6.018547058E0,-4.686941206E-1
6.162448965E0,-2.233999014E0,-4.900500774E0,-1.884347796E-1
6.172161100E0,-2.533401012E0,-3.890131474E0,-4.950151742E-1
6.181872507E0,-2.669791937E0,-2.788834810E0,-1.902593136E0
6.191584746E0,-2.526222467E0,-2.003689766E0,-3.528217077E0
6.201297715E0,-2.238784790E0,-1.500898004E0,-4.682155609E0
6.211009850E0,-1.808076620E0,-1.069890857E0,-4.378267288E0
6.220721257E0,-1.372283816E0,-8.617152572E-1,-2.793321371E0
6.230433496E0,-7.091727853E-1,-9.574281573E-1,-7.654041648E-1
6.240146465E0,-2.327020019E-1,-7.731808424E-1,-8.315058798E-2
6.249858600E0,-5.629115105E-1,-1.503290772E0,2.330010980E-1
6.259570007E0,-7.426723242E-1,-3.693919897E0,1.974078640E-2
6.269282246E0,1.139282703E0,-5.551647663E0,-1.459621787E0
6.278995215E0,3.954737663E0,-5.611468315E0,-4.251148701E0
6.288707350E0,8.117949486E0,-6.035296917E0,-1.133300591E1
6.298418757E0,1.247767258E1,-6.885347366E0,-1.317398453E1
6.308130996E0,1.026550865E1,-5.293222904E0,-5.065306664E0
6.317843965E0,4.953142643E0,-5.463113308E0,-2.879462957E0
6.327556100E0,2.030908167E-1,-3.425624609E0,-4.304089546E0
6.337267507E0,-7.019943237E0,-2.908775091E0,2.361117840E0
6.346979746E0,-1.263888931E1,-7.376174927E0,1.042074203E0
6.356692715E0,-1.243998623E1,-9.956833839E0,-1.337587833E0
6.366404850E0,-6.687041759E0,-1.600200081E1,4.290929317E0
6.376116257E0,7.130611539E-1,-1.839602089E1,6.024230003E0
6.385828496E0,6.044569016E0,-2.029233170E1,8.834898949E0
6.395541465E0,7.232306480E0,-1.914048767E1,6.048158169E0
6.405253600E0,5.084748268E0,-1.512323761E1,4.506283283E0
6.414965007E0,1.012463093E0,-1.511605930E1,2.361117840E0
6.424677142E0,-3.663411379E0,-1.511127281E1,1.226321608E-1
6.434390215E0,-5.619245052E0,-1.380897903E1,-1.883450508E0
6.444102350E0,-5.305785179E0,-1.373480225E1,-2.731107950E0
6.453813704E0,-2.964408159E0,-1.453908920E1,-2.257030010E0
6.463525944E0,-7.833502889E-1,-1.499163246E1,-2.505883455E0
6.473238913E0,7.633104324E-1,-1.468295765E1,-2.498705149E0
6.482951048E0,2.036890268E0,-1.398844147E1,-2.515454769E0
6.492662454E0,3.260519981E0,-1.293021584E1,-4.064508438E0
6.502374694E0,4.067200184E0,-1.261675549E1,-5.773880959E0
6.512087663E0,3.590729475E0,-1.303101349E1,-6.714858532E0
6.521799798E0,1.249352574E0,-1.312672615E1,-7.514360428E0
6.531511204E0,-9.891330600E-1,-1.215224934E1,-7.650751114E0
6.541223444E0,-2.289033890E0,-1.017697334E1,-6.867999077E0
6.550936413E0,-2.607578516E0,-9.468399048E0,-7.509574890E0
6.560648548E0,-1.269392371E0,-8.932107925E0,-9.005986214E0
6.570359954E0,5.599204898E-1,-8.300103188E0,-1.029870892E1
6.580072194E0,1.361815214E0,-7.687242031E0,-1.077039337E1
6.589785163E0,1.500598907E0,-6.899703979E0,-1.038724327E1
6.599497298E0,1.438385487E0,-5.989833355E0,-1.038485050E1
6.609208704E0,2.149652004E0,-5.748157978E0,-1.019103146E1
6.618920944E0,3.765405416E0,-6.121438503E0,-8.373981476E0
6.628633913E0,4.627419949E0,-6.662515640E0,-5.347659588E0
6.638346048E0,3.916452408E0,-6.813562393E0,-2.333600283E0
6.648057454E0,2.099103689E0,-6.013761520E0,-7.127620578E-1
6.657769694E0,-4.001995921E-1,-4.950749874E0,6.326025128E-1
6.667482663E0,-2.380260229E0,-5.048855782E0,3.318845034E0
6.677194798E0,-4.221238136E0,-5.125426292E0,4.925326347E0
6.686906204E0,-5.137988567E0,-5.736194134E0,5.669793129E0
6.696618444E0,-5.198108196E0,-7.502994537E0,3.690031528E0
6.706331413E0,-4.707280159E0,-9.403793335E0,-2.697608471E0
6.716043548E0,-3.308974504E0,-1.265264797E1,-9.317052841E0
6.725754954E0,2.093719784E-3,-1.748644829E1,-1.238405323E1
6.735467194E0,2.755335331E0,-2.212852478E1,-1.126840019E1
6.745180163E0,2.640180588E0,-2.401975250E1,-7.239185810E0
6.754892298E0,1.412064433E0,-2.378286171E1,-4.708476543E0
6.764603652E0,-6.275177598E-1,-2.216680908E1,-5.556134224E0
6.774315944E0,-2.693720102E0,-2.040240288E1,-6.494419575E0
6.784028913E0,-4.872385025E0,-1.899452591E1,-5.544169903E0
6.793741048E0,-6.794719219E0,-1.728754616E1,-3.288934708E0
6.803452402E0,-6.727719784E0,-1.591346741E1,-2.221137524E0
6.813164642E0,-5.152345181E0,-1.488395500E1,-2.223530531E0
6.822877611E0,-3.019443035E0,-1.394537067E1,-2.369492531E0
6.832589746E0,-1.740778446E0,-1.268375492E1,-1.914557219E0
6.842301152E0,-1.008275628E0,-1.135274696E1,-1.016949654E0
6.852013392E0,2.174477577E-1,-1.033041382E1,-1.812563092E-1
6.861726361E0,7.800601721E-1,-9.085547447E0,1.130608693E-1
6.871438496E0,-6.011966988E-2,-7.311269760E0,-1.136590727E-2
6.881149902E0,-1.704886079E0,-5.740979671E0,1.130608693E-1
6.890862142E0,-3.452543974E0,-4.486243248E0,4.172484577E-1
6.900575111E0,-4.228416920E0,-3.526422262E0,2.736790776E-1
6.910287246E0,-4.000799656E0,-2.865405083E0,-1.083948612E0
6.919998652E0,-3.194119215E0,-2.477767944E0,-2.896212816E0
6.929710892E0,-2.274677038E0,-2.116152525E0,-4.224827290E0
6.939423861E0,-1.566102386E0,-1.663609982E0,-4.289433479E0
6.949135996E0,-9.939187169E-1,-1.110568762E0,-3.154637575E0
6.958847402E0,-5.389832854E-1,-7.971090674E-1,-1.684846282E0
6.968559642E0,1.935195327E-1,-1.292124242E-1,-7.606185079E-1
6.978272611E0,3.993022740E-1,1.965105534E-1,-5.261218548E-1
6.987984746E0,8.709874153E-1,-1.278365493E0,5.895316601E-1
6.997696152E0,1.821536183E0,-3.736990690E0,1.142572761E0
7.007408392E0,3.416053534E0,-5.386542797E0,-8.946165442E-1
7.017121361E0,6.221937180E0,-5.621039391E0,-8.960522652E0
7.026833496E0,1.101954651E1,-6.954739094E0,-2.055015945E1
7.036544902E0,1.051436138E1,-6.600302219E0,-1.318594837E1
7.046257142E0,6.935297489E0,-8.163712502E0,-6.705287457E0
7.055970111E0,1.627717614E0,-8.994320869E0,1.616650820E0
7.065682246E0,-4.712066174E0,-9.748658180E0,1.329751396E1
7.075393652E0,-1.161416245E1,-1.139103222E1,1.279950714E1
7.085105892E0,-1.325414371E1,-1.124477100E1,1.772184253E0
7.094818861E0,-1.007468033E1,-1.039501953E1,-4.239184380E0
7.104530996E0,-3.943371773E0,-1.314586830E1,-2.053340912E0
7.114242402E0,2.329113722E0,-1.628196144E1,2.698804855E0
7.123954642E0,6.739085674E0,-1.588953876E1,3.699602842E0
7.133667611E0,6.018248081E0,-1.502273846E1,2.562413931E0
7.143379746E0,1.893320918E0,-1.562602901E1,-1.884347796E-1
7.153091100E0,-2.238784790E0,-1.546331692E1,-1.052842021E0
7.162803340E0,-4.436592102E0,-1.531974792E1,-7.701897621E-1
7.172516361E0,-3.435794115E0,-1.527428436E1,-2.769692242E-1
7.182228496E0,-2.289033890E0,-1.560688686E1,-3.559323549E-1
7.191939850E0,-9.173483849E-1,-1.536999702E1,-1.541276932E0
7.201652090E0,8.614161611E-1,-1.444098377E1,-3.506681681E0
7.211365059E0,2.750549555E0,-1.288475132E1,-5.041378021E0
7.221077194E0,3.866203070E0,-1.159920788E1,-5.716453075E0
7.230788600E0,3.909274101E0,-1.210439205E1,-5.022235394E0
7.240500840E0,3.040081263E0,-1.297567940E1,-3.559323788E0
7.250213809E0,1.215852976E0,-1.386401463E1,-2.603989124E0
7.259925944E0,-1.247856975E0,-1.190339565E1,-2.199602127E0
7.269637350E0,-3.191726208E0,-1.003579712E1,-3.913760424E0
7.279349590E0,-4.331307888E0,-9.231510162E0,-8.342875481E0
7.289062559E0,-4.611268520E0,-8.027321815E0,-1.358345604E1
7.298774694E0,-2.813361168E0,-7.249056339E0,-1.522343636E1
7.308486100E0,3.320041299E-2,-7.603493214E0,-1.420349598E1
7.318198340E0,3.633800268E0,-8.168498039E0,-1.253480148E1
7.327911309E0,7.016653538E0,-8.166105270E0,-1.015513897E1
7.337623444E0,8.896215439E0,-7.615457058E0,-7.418647289E0
7.347334850E0,9.044570923E0,-6.755835533E0,-5.086842060E0
7.357047090E0,7.095616341E0,-6.083153248E0,-3.444468260E0
7.366760059E0,4.122235298E0,-4.584648132E0,-2.743072033E0
7.376472194E0,4.040879309E-1,-3.457030535E0,-2.515454769E0
7.386183600E0,-2.983550787E0,-2.980559587E0,-1.969592094E0
7.395895840E0,-5.250750065E0,-3.212663412E0,5.512465239E-1
7.405608809E0,-6.301797390E0,-4.443172455E0,4.882255554E0
7.415320944E0,-6.775576591E0,-5.587540150E0,7.460521698E0
7.425032350E0,-6.818647385E0,-7.747062206E0,4.843970299E0
7.434744590E0,-5.705386639E0,-1.167577839E1,-1.648953915E0
7.444457559E0,-2.296212435E0,-1.681586075E1,-6.590431690E0
7.454169694E0,4.172484398E0,-2.077807617E1,-7.509574890E0
7.463881100E0,8.204091072E0,-2.357199478E1,-1.001156998E1
7.473593340E0,7.617550850E0,-2.314607239E1,-1.025803089E1
7.483306309E0,3.724727631E0,-2.160180473E1,-8.302197456E0
7.493018444E0,-6.466603279E-1,-2.008146477E1,-7.476075172E0
7.502729850E0,-5.157131195E0,-1.837448502E1,-7.160222530E0
7.512442090E0,-7.987242222E0,-1.719661903E1,-6.369993210E0
7.522155059E0,-9.761220932E0,-1.668904114E1,-4.832903385E0
7.531867194E0,-8.832207680E0,-1.622214127E1,-3.118745327E0
7.541578600E0,-5.245964527E0,-1.541306782E1,-1.988734722E0
7.551290840E0,-1.692921996E0,-1.428305721E1,-1.613061547E0
7.561003809E0,2.150549293E-1,-1.371326637E1,-1.502991676E0
7.570715944E0,1.237388372E0,-1.259522057E1,-1.098305583E0
7.580427350E0,1.031605721E0,-1.077817059E1,-5.907281041E-1
7.590139590E0,4.474578202E-1,-8.960822105E0,-1.381855011E-1
7.599852559E0,-7.926224917E-2,-7.253841877E0,5.982056609E-4
7.609564694E0,-1.053739309E0,-5.654539108E0,-1.022931710E-1
7.619276048E0,-2.238784790E0,-4.249353886E0,-2.051845491E-1
7.628988288E0,-3.392723322E0,-3.049951553E0,-2.913261652E-1
7.638701309E0,-3.864408493E0,-2.209472656E0,-4.040879309E-1
7.648413444E0,-3.651447296E0,-1.642074585E0,-1.062413216E0
7.658124798E0,-2.810968399E0,-1.010070205E0,-2.266601324E0
7.667837038E0,-1.973181367E0,-5.407779217E-1,-3.161816120E0
7.677550007E0,-1.142273664E0,-4.474578202E-1,-2.936890602E0
7.687262142E0,-7.447660714E-2,2.994019389E-1,-1.553241014E0
7.696973548E0,-4.719842672E-1,1.283450246E0,-4.040879309E-1
7.706685788E0,-1.144666553E0,-7.612167001E-1,2.808575630E-1
7.716398757E0,6.430710852E-2,-3.308376312E0,1.824527234E-1
7.726110892E0,2.963510752E0,-4.373780727E0,-3.176472187E-1
7.735822298E0,4.064807415E0,-4.701896667E0,-2.621038198E0
7.745534538E0,5.249852657E0,-5.075176716E0,-1.295623684E1
7.755247507E0,6.418148518E0,-5.709873199E0,-1.880728722E1
7.764959642E0,5.278566837E0,-4.599005222E0,-9.559027672E0
7.774671048E0,3.463909864E0,-6.447161674E0,-3.590430260E0
7.784383288E0,1.847857237E0,-6.830312252E0,3.556033611E0
7.794096257E0,1.136889815E0,-7.184450150E0,1.098245811E1
7.803808392E0,-5.015954494E0,-1.096241760E1,7.080062866E0
7.813519798E0,-8.341380119E0,-1.201825047E1,-8.141578674E0
7.823232038E0,-4.094418526E0,-1.341865063E1,-5.204090118E0
7.832945007E0,-1.005882859E0,-1.530299854E1,4.834399223E0
7.842657142E0,1.969891191E0,-1.881506348E1,1.126002502E1
7.852368548E0,4.517350197E0,-1.994746780E1,8.904291153E0
7.862080684E0,4.165306091E0,-1.657657814E1,4.666602135E0
7.871793757E0,2.060818434E0,-1.457737446E1,2.650948286E0
7.881505892E0,-2.464009047E0,-1.480259895E1,5.847460628E-1
7.891217246E0,-5.051846981E0,-1.354816151E1,-1.924128532E0
7.900929486E0,-6.088537216E0,-1.305733395E1,-4.509872437E0
7.910642507E0,-4.561018944E0,-1.379222965E1,-4.009473324E0
7.920354642E0,-1.894218206E0,-1.481695557E1,-3.104388237E0
7.930065996E0,4.112663865E-1,-1.487677670E1,-2.740679264E0
7.939778236E0,1.936391711E0,-1.420170116E1,-2.484348059E0
7.949491204E0,2.867797852E0,-1.308844090E1,-3.786941051E0
7.959203340E0,3.052045345E0,-1.244207954E1,-4.739583492E0
7.968914746E0,2.623430967E0,-1.258086300E1,-4.646263599E0
7.978626986E0,1.397707582E0,-1.242772293E1,-4.948058128E0
7.988339954E0,-1.175474152E-1,-1.275793171E1,-5.761917114E0
7.998052090E0,-9.771689177E-1,-1.216899872E1,-6.003890991E0
8.007763496E0,-1.072881818E0,-1.187228870E1,-6.441777706E0
8.017475736E0,-2.446661144E-1,-1.150110245E1,-7.976474285E0
8.027188704E0,5.096712112E-1,-1.055055332E1,-1.059332466E1
8.036900840E0,1.062712312E0,-9.432506561E0,-1.336331654E1
8.046612246E0,1.778465390E0,-8.304888725E0,-1.447418404E1
8.056324486E0,3.099901676E0,-7.383353233E0,-1.314527035E1
8.066037454E0,4.680061817E0,-6.779763699E0,-1.045424175E1
8.075749590E0,5.786144257E0,-6.394519329E0,-7.155436993E0
8.085460996E0,5.776573181E0,-6.712764740E0,-4.359124660E0
8.095173236E0,4.687240601E0,-6.207580090E0,-2.419741869E0
8.104886204E0,2.784049034E0,-5.106283665E0,-1.263410330E0
8.114598340E0,3.849453330E-1,-3.713062525E0,-9.667003751E-1
8.124309746E0,-1.994716763E0,-3.042773008E0,-4.663013220E-1
8.134021986E0,-3.787838221E0,-3.579064369E0,2.059622049E0
8.143734954E0,-4.472484589E0,-4.986642361E0,4.989932537E0
8.153447090E0,-5.171487808E0,-7.074379921E0,6.107978821E0
8.163158444E0,-6.407081604E0,-1.014347458E1,2.524128675E0
8.172870684E0,-5.899504185E0,-1.311236858E1,-3.073281527E0
8.182583704E0,-1.322034478E0,-1.614078522E1,-6.712465763E0
8.192295788E0,3.030509949E0,-2.031147575E1,-1.009531879E1
8.202007194E0,4.026522160E0,-2.190569305E1,-1.202243805E1
8.211719434E0,3.037688255E0,-2.152762794E1,-9.776774406E0
8.221432402E0,1.613360643E0,-2.042393684E1,-7.363612652E0
8.231144538E0,-1.202094316E0,-1.888445473E1,-6.554539204E0
8.240855944E0,-4.214059830E0,-1.788365746E1,-6.068497181E0
8.250568184E0,-6.905087948E0,-1.708894157E1,-4.356731892E0
8.260281152E0,-8.384450912E0,-1.567627811E1,-3.690928936E0
8.269993288E0,-7.513164043E0,-1.388794231E1,-3.281756163E0
8.279704694E0,-4.757529736E0,-1.254736328E1,-2.388635159E0
8.289416934E0,-2.763111830E0,-1.227428246E1,-2.065604210E0
8.299129902E0,-1.295713425E0,-1.159681511E1,-1.112662554E0
8.308842038E0,-9.340981245E-1,-1.051226807E1,-3.655036688E-1
8.318553444E0,-8.024929166E-1,-9.351150513E0,-6.161518395E-2
8.328265684E0,-9.317052960E-1,-8.156534195E0,7.956135273E-2
8.337978652E0,-1.283749342E0,-6.897311211E0,-1.884347796E-1
8.347690788E0,-1.556531072E0,-5.865406513E0,-3.343969584E-1
8.357402194E0,-1.872682810E0,-4.993820667E0,9.631111473E-2
8.367114329E0,-2.131107569E0,-4.163212299E0,8.267202377E-1
8.376827402E0,-2.648256540E0,-3.303590775E0,7.525427341E-1
8.386539538E0,-2.767897606E0,-2.595016241E0,2.736790776E-1
8.396250892E0,-2.073679924E0,-2.286042929E0,-6.601199508E-1
8.405963132E0,-5.270192027E-1,-1.819442511E0,-1.828415632E0
8.415676100E0,1.426421404E0,-1.311864972E0,-2.700001240E0
8.425388236E0,3.207578659E0,-2.656033039E-1,-3.351148129E0
8.435099642E0,2.374577284E0,4.190430641E-1,-2.747857809E0
8.444811882E0,8.901300430E-1,-2.006082773E0,-3.969094455E-1
8.454524850E0,7.944171429E-1,-5.321936607E0,-1.782951951E0
8.464236986E0,2.329113722E0,-5.221437931E0,-7.696514130E0
8.473948392E0,5.515755177E0,-5.171188831E0,-1.312134171E1
8.483660632E0,7.742276669E0,-6.365805626E0,-7.507182121E0
8.493373600E0,6.547360897E0,-6.672086716E0,-3.544966698E0
8.503085736E0,4.555634975E0,-5.992226124E0,-1.866700768E0
8.512797142E0,3.186043262E0,-4.790431023E0,1.101894855E0
8.522509382E0,-3.716053486E0,-6.559624195E0,1.609173268E-1
8.532222350E0,-1.112812042E1,-9.600004196E0,-4.224827290E0
8.541934486E0,-1.021346474E1,-1.188664532E1,3.309273720E0
8.551645892E0,-5.827719688E0,-1.723011780E1,3.242274761E0
8.561358132E0,2.496611357E0,-1.909502411E1,6.103193283E0
8.571071100E0,6.214758396E0,-2.072303963E1,6.922136784E0
8.580783236E0,4.720739841E0,-1.795544243E1,4.283750534E0
8.590494590E0,2.096710920E0,-1.602832222E1,1.666900039E0
8.600206829E0,-2.542374134E-1,-1.606900024E1,2.289333105E0
8.609919850E0,-2.109572172E0,-1.534367657E1,1.528116345E0
8.619631934E0,-3.548556089E0,-1.461805248E1,-2.127817631E0
8.629343340E0,-3.716053486E0,-1.431655693E1,-3.487539053E0
8.639055579E0,-2.521436930E0,-1.432134247E1,-3.418147087E0
8.648768548E0,-8.982058167E-1,-1.397169113E1,-3.597608805E0
8.658480684E0,5.455635786E-1,-1.292542934E1,-4.174578190E0
8.668192090E0,1.622931957E0,-1.140299606E1,-5.117948532E0
8.677904329E0,1.893320918E0,-1.024427223E1,-5.948556900E0
8.687617298E0,1.244566917E0,-1.037587738E1,-6.499205589E0
8.697329434E0,-9.364909530E-1,-1.089302635E1,-7.203293324E0
8.707040840E0,-3.945764542E0,-1.089063358E1,-7.684549809E0
8.716753079E0,-4.419842720E0,-9.458827972E0,-5.967699528E0
8.726466048E0,-3.419044495E0,-9.700801849E0,-5.168197632E0
8.736178184E0,-1.870290041E0,-9.727123260E0,-6.271887302E0
8.745889590E0,6.430710852E-2,-9.480362892E0,-8.948558807E0
8.755601829E0,2.027318954E0,-8.841180801E0,-1.199851036E1
8.765314798E0,3.571586847E0,-8.003393173E0,-1.349970722E1
8.775026934E0,4.926821709E0,-7.371089935E0,-1.359781265E1
8.784738340E0,5.874678612E0,-6.995417118E0,-1.175922775E1
8.794450579E0,6.609873295E0,-7.131807804E0,-8.653942108E0
8.804163548E0,5.896214008E0,-7.294519901E0,-5.005486012E0
8.813875684E0,3.698406458E0,-6.564409733E0,-2.019841433E0
8.823587038E0,6.317051649E-1,-5.353043556E0,-2.147558331E-1
8.833299277E0,-2.688934565E0,-3.973880291E0,1.578365684E0
8.843012298E0,-4.388735771E0,-3.416053534E0,4.649852753E0
8.852724382E0,-4.173381805E0,-4.768895626E0,7.649854183E0
8.862435788E0,-3.986442566E0,-5.348257542E0,6.488736629E0
8.872148027E0,-3.658625841E0,-7.189235687E0,-1.884347796E-1
8.881860996E0,-1.599601984E0,-1.077577782E1,-7.971688747E0
8.891573132E0,7.274180651E-1,-1.446730518E1,-9.408279419E0
8.901284538E0,3.121437073E0,-1.916710663E1,-9.695418358E0
8.910996777E0,3.868596077E0,-2.274138641E1,-9.410672188E0
8.920709746E0,2.108675003E0,-2.324178505E1,-6.664609432E0
8.930421882E0,6.628118753E-1,-2.233909225E1,-4.962415218E0
8.940133288E0,-3.738785386E-1,-2.071825409E1,-6.130710602E0
8.949845527E0,-2.078465462E0,-1.938724709E1,-7.184150696E0
8.959558496E0,-4.261916161E0,-1.822373772E1,-6.140282154E0
8.969270632E0,-5.842076302E0,-1.683260918E1,-4.428516388E0
8.978982038E0,-6.258427620E0,-1.516391563E1,-3.229114056E0
8.988694277E0,-5.195715427E0,-1.315543938E1,-2.431705952E0
8.998407246E0,-3.759124279E0,-1.152742290E1,-1.682453394E0
9.008119382E0,-2.679363251E0,-1.116102219E1,-1.258624673E0
9.017830788E0,-1.417747378E0,-1.027298546E1,-1.429711580E-1
9.027543027E0,-7.713862062E-1,-9.274580956E0,6.302096844E-1
9.037255996E0,-6.634100676E-1,-7.984251022E0,8.195417523E-1
9.046968132E0,-1.001097202E0,-6.710371971E0,9.415757060E-1
9.056679538E0,-1.860718727E0,-5.664110184E0,1.384546995E0
9.066391777E0,-2.729612350E0,-4.790431023E0,1.928016901E0
9.076104746E0,-3.335295677E0,-3.882952929E0,1.554437399E0
9.085816882E0,-3.316153049E0,-3.131307602E0,1.752742529E-1
9.095528288E0,-2.825325251E0,-2.671586514E0,-2.168495417E0
9.105240527E0,-2.174178362E0,-2.097009897E0,-4.359124660E0
9.114953496E0,-2.133500576E0,-1.615753531E0,-4.737190723E0
9.124665632E0,-1.771885157E0,-1.280758262E0,-3.341576815E0
9.134377038E0,-8.575277925E-1,-6.726822853E-1,-2.015055656E0
9.144089277E0,-6.610172391E-1,6.203392744E-1,-1.668096542E0
9.153802246E0,-7.857431173E-1,-9.167501926E-1,2.641077936E-1
9.163514382E0,-1.274178028E-1,-3.437588930E0,1.101894855E0
9.173225788E0,1.290030479E0,-4.867001057E0,-1.016949654E0
9.182937923E0,2.582752943E0,-4.400101662E0,-8.919844627E0
9.192650996E0,5.453242779E0,-5.185545921E0,-1.985354805E1
9.202363079E0,6.437291145E0,-5.707480431E0,-1.407428360E1
9.212074486E0,5.338387489E0,-6.066403389E0,-7.131508827E0
9.221786725E0,3.200400352E0,-6.095117569E0,-2.414956331E0
9.231499694E0,9.858429432E-1,-5.388935566E0,2.622234583E0
9.241211829E0,-2.755933523E0,-7.481459141E0,1.025683403E1
9.250923236E0,-8.137989998E0,-1.141256714E1,6.356832504E0
9.260635475E0,-8.233702660E0,-1.308844090E1,1.006181955E0
9.270348444E0,-3.560520172E0,-1.388315678E1,-1.768594980E0
9.280060579E0,-9.122636169E-2,-1.652872086E1,5.068895817E0
9.289771986E0,3.669692516E0,-1.898495483E1,8.003992081E0
9.299484225E0,5.331208706E0,-1.754866219E1,4.992325306E0
9.309197194E0,4.967499733E0,-1.575045586E1,2.787339211E0
9.318909329E0,1.445564032E0,-1.660050583E1,1.698006749E0
9.328620736E0,-2.356033087E0,-1.507777405E1,9.559326172E-1
9.338332975E0,-4.197309971E0,-1.387119293E1,-1.012163997E0
9.348045944E0,-2.854039192E0,-1.378265858E1,-1.921735644E0
9.357758079E0,-7.689933777E-1,-1.463480282E1,-2.654537678E0
9.367469486E0,7.585247755E-1,-1.534367657E1,-2.335993052E0
9.377181725E0,2.269293070E0,-1.536281872E1,-1.531705618E0
9.386894694E0,3.492623806E0,-1.468295765E1,-2.225923300E0
9.396606829E0,3.923630953E0,-1.381855106E1,-3.168994427E0
9.406318236E0,3.363411427E0,-1.273161125E1,-3.241078377E0
9.416030475E0,2.348256350E0,-1.199910831E1,-3.825226068E0
9.425743444E0,-1.896311939E-1,-1.115623665E1,-5.766702652E0
9.435455579E0,-3.524627686E0,-1.094088268E1,-7.332505703E0
9.445166986E0,-4.477270126E0,-8.501399994E0,-7.507182121E0
9.454879225E0,-3.725624800E0,-8.539685249E0,-8.359624863E0
9.464592194E0,-1.680957913E0,-9.039784431E0,-1.041356373E1
9.474304329E0,-4.983053207E-1,-9.475577354E0,-1.211815071E1
9.484015736E0,8.781659007E-1,-9.384650230E0,-1.262812138E1
9.493727975E0,2.647359133E0,-8.745467186E0,-1.193151093E1
9.503440944E0,4.701597214E0,-8.268997192E0,-1.046620655E1
9.513153079E0,6.626623154E0,-8.091927528E0,-8.338089943E0
9.522864486E0,7.849953651E0,-8.001000404E0,-5.702096462E0
9.532576725E0,6.827620506E0,-7.857132435E0,-3.693321705E0
9.542289694E0,4.833202839E0,-7.517351627E0,-2.522633314E0
9.552001829E0,2.245364904E0,-6.408876419E0,-1.900200248E0
9.561713236E0,-2.757728100E-1,-5.096712112E0,-1.390229940E0
9.571425475E0,-2.866003275E0,-4.203890324E0,6.038886309E-1
9.581138444E0,-4.606482506E0,-4.646861553E0,4.863112926E0
9.590850579E0,-5.880361557E0,-5.896512985E0,7.511070251E0
9.600561986E0,-6.627221584E0,-8.235497475E0,5.519045353E0
9.610274225E0,-7.132406235E0,-1.173559856E1,-4.399802685E-1
9.619987194E0,-2.636292458E0,-1.398604870E1,-5.946164131E0
9.629699329E0,2.877369165E0,-1.874088669E1,-1.033938694E1
9.639410736E0,5.731109142E0,-2.201845551E1,-1.280788231E1
9.649122975E0,4.984249592E0,-2.339731979E1,-1.006660461E1
9.658835944E0,2.776870728E0,-2.230798721E1,-5.268696308E0
9.668548079E0,-9.795617461E-1,-1.961217308E1,-3.408575773E0
9.678259434E0,-5.336891651E0,-1.824048615E1,-4.021437645E0
9.687971673E0,-7.347760201E0,-1.652393532E1,-4.148257256E0
9.697684694E0,-8.394021988E0,-1.543938923E1,-3.897010803E0
9.707396829E0,-7.477271557E0,-1.383290768E1,-2.912962437E0
9.717108184E0,-5.198108196E0,-1.254736328E1,-1.948056698E0
9.726820423E0,-2.966800928E0,-1.177388382E1,-1.459621787E0
9.736533444E0,-9.819545746E-1,-1.097916794E1,-9.451649189E-1
9.746245527E0,-3.499503136E-1,-1.005494022E1,-3.753740489E-1
9.755956934E0,-2.470589429E-1,-9.123832703E0,1.417747438E-1
9.765669173E0,-2.159522474E-1,-8.082356453E0,5.512465239E-1
9.775382142E0,-6.729813814E-1,-6.731907368E0,5.512465239E-1
9.785094277E0,-1.218844056E0,-5.788836002E0,8.099704385E-1
9.794805684E0,-2.341675997E0,-4.912465096E0,6.780661345E-1
9.804517923E0,-3.155833960E0,-4.172783375E0,-3.631108403E-1
9.814230892E0,-3.605983734E0,-3.317947626E0,-1.794916034E0
9.823943027E0,-3.708875179E0,-2.472982168E0,-3.339184046E0
9.833654434E0,-2.822932482E0,-1.955833435E0,-4.138685703E0
9.843366673E0,-1.968395710E0,-1.400399446E0,-3.370290756E0
9.853079642E0,-1.089631557E0,-7.827520967E-1,-1.864308000E0
9.862791777E0,-1.704886109E-1,-2.416750938E-1,-4.854438901E-1
9.872503184E0,-1.944168471E-2,-6.846463680E-1,7.740781307E-1
9.882215423E0,7.537391186E-1,-3.064308405E0,4.818546474E-1
9.891928392E0,2.510968208E0,-5.951548100E0,-2.649751902E0
9.901640527E0,4.579563618E0,-6.380162239E0,-5.752345562E0
9.911351934E0,6.372684956E0,-5.178367138E0,-1.268554878E1
9.921064173E0,8.867501259E0,-6.466304302E0,-1.300887966E1
9.930777142E0,9.487542152E0,-6.140581131E0,-6.113960743E0
9.940489277E0,7.328019142E0,-7.311269760E0,-2.364706993E0
9.950200684E0,3.384946823E0,-7.074379921E0,5.997909069E0
9.959912923E0,-1.048953652E0,-9.375079155E0,1.448973751E1
9.969625892E0,-7.580163002E0,-1.006451130E1,7.230811119E0
9.979338027E0,-9.744471550E0,-9.178867340E0,-7.995616913E0
9.989049434E0,-9.117252350E0,-9.942477226E0,-5.287838936E0
9.998761673E0,-6.057430744E0,-1.191775227E1,3.891028643E0
1.000847464E1,-2.277069807E0,-1.715354729E1,7.999206066E0
1.001818678E1,2.171187401E0,-1.848933983E1,9.442975044E0
1.002789818E1,4.347160339E0,-1.636122322E1,6.196513176E0
1.003761042E1,4.859523773E0,-1.462523079E1,1.030110121E0
1.004732339E1,1.962712765E0,-1.465873051E1,-1.213161111E0
1.005703553E1,-1.659422517E0,-1.515673637E1,-1.572383523E0
1.006674693E1,-1.985145450E0,-1.547528172E1,-1.395015597E0
1.007645917E1,-6.753742099E-1,-1.600918007E1,-1.428515077E0
1.008617214E1,1.025922745E-1,-1.616949844E1,-1.668096542E0
1.009588428E1,9.595218897E-1,-1.551356697E1,-2.893819809E0
1.010559568E1,1.972284079E0,-1.413948822E1,-5.000699997E0
1.011530792E1,2.846262455E0,-1.258804131E1,-6.463313103E0
1.012502089E1,2.752942562E0,-1.241545963E1,-6.291029930E0
1.013473303E1,1.912463546E0,-1.239631653E1,-5.364409447E0
1.014444443E1,3.394817114E-1,-1.177388382E1,-4.330410957E0
1.015415667E1,-1.377069473E0,-1.056730270E1,-4.323232174E0
1.016386964E1,-2.389831543E0,-9.746265411E0,-5.019842625E0
1.017358178E1,-3.076870918E0,-9.707980156E0,-6.159424782E0
1.018329318E1,-2.810968399E0,-9.384650230E0,-7.978867054E0
1.019300542E1,-1.793420553E0,-8.776574135E0,-1.012403297E1
1.020271839E1,-2.350948304E-1,-8.005785942E0,-1.210857964E1
1.021243053E1,1.826321840E0,-7.095915318E0,-1.309262848E1
1.022214188E1,4.143770695E0,-6.782156467E0,-1.279831123E1
1.023185417E1,6.509075642E0,-7.079165936E0,-1.126361465E1
1.024156714E1,7.497909546E0,-7.584350586E0,-8.452944756E0
1.025127928E1,6.710371971E0,-7.826025486E0,-5.180161953E0
1.026099063E1,4.701597214E0,-7.507780075E0,-1.656132340E0
1.027070287E1,1.869392633E0,-6.461518288E0,1.097109199E0
1.028041589E1,-9.987043738E-1,-5.314758301E0,1.923231244E0
1.029012803E1,-2.808575630E0,-4.759324074E0,3.041277647E0
1.029983938E1,-3.976871252E0,-5.353043556E0,5.729613781E0
1.030955162E1,-4.936991215E0,-6.449554443E0,6.347260952E0
1.031926464E1,-4.664209366E0,-8.606683731E0,1.678864241E0
1.032897672E1,-1.946860313E0,-1.121127129E1,-6.470491409E0
1.033868813E1,1.282852054E0,-1.412991714E1,-9.860523224E0
1.034840037E1,3.181257725E0,-1.858266068E1,-1.006660461E1
1.035811334E1,2.020140409E0,-2.128565216E1,-8.768797874E0
1.036782548E1,-9.364909530E-1,-2.166401863E1,-5.079663277E0
1.037753688E1,-3.483650684E0,-2.080918121E1,-2.917748213E0
1.038724912E1,-5.595316887E0,-1.956431580E1,-3.633501291E0
1.039696209E1,-6.256034851E0,-1.848694801E1,-4.071686745E0
1.040667423E1,-5.480461121E0,-1.781426620E1,-4.210470676E0
1.041638563E1,-4.228416920E0,-1.696690750E1,-4.071686745E0
1.042609787E1,-2.770290375E0,-1.608335686E1,-3.214757204E0
1.043581084E1,-1.465603828E0,-1.504905987E1,-2.072782516E0
1.044552298E1,-1.173380375E0,-1.378744411E1,-1.644168258E0
1.045523438E1,-1.384247899E0,-1.239631653E1,-1.320838094E0
1.046494662E1,-1.283749342E0,-1.123519993E1,-8.491529226E-1
1.047465959E1,-7.115656137E-1,-1.013390255E1,-4.064807594E-1
1.048437172E1,-6.924230456E-1,-8.965607643E0,-1.070788130E-1
1.049408313E1,-1.118345499E0,-7.689634800E0,5.982056609E-4
1.050379537E1,-1.982752681E0,-6.375376701E0,-6.400800496E-2
1.051350834E1,-2.899502754E0,-5.254937649E0,1.513460279E-1
1.052322048E1,-3.668197155E0,-4.203890324E0,4.845465720E-2
1.053293188E1,-4.084847450E0,-3.243770123E0,-2.650051117E-1
1.054264412E1,-3.876372576E0,-2.327019930E0,-7.917252183E-1
1.055235709E1,-3.280260801E0,-1.642074585E0,-1.325623751E0
1.056206922E1,-2.609971285E0,-1.338186026E0,-1.117448211E0
1.057178063E1,-2.090429783E0,-1.280758262E0,3.382852972E-1
1.058149287E1,-1.029811025E0,-1.098604679E0,1.640578985E0
1.059120584E1,2.389831543E-1,-1.314257860E0,8.506484628E-1
1.060091798E1,1.526919961E0,-2.810370207E0,-1.488335729E0
1.061062938E1,3.966701746E0,-5.231009483E0,-5.328516960E0
1.062034162E1,6.198009014E0,-5.379364491E0,-1.016949654E1
1.063005459E1,9.135498047E0,-5.987440586E0,-1.895833397E1
1.063976673E1,1.063430214E1,-7.136593342E0,-1.425613785E1
1.064947813E1,8.304888725E0,-7.519744396E0,-3.315255880E0
1.065919037E1,4.814060211E0,-7.684848785E0,1.054038405E0
1.066890334E1,1.630110383E0,-6.284449577E0,5.528616905E0
1.067861548E1,-1.477568030E0,-5.585147381E0,1.288325596E1
1.068832688E1,-9.088239670E0,-7.036095142E0,3.046063185E0
1.069803912E1,-1.254078388E1,-7.091129780E0,-9.980463028E0
1.070775209E1,-1.049372387E1,-9.442078590E0,-4.330410957E0
1.071746422E1,-6.040680885E0,-1.409372520E1,5.286941528E0
1.072717563E1,1.878963947E0,-1.714876175E1,1.121934700E1
1.073688787E1,7.485945702E0,-1.919582176E1,1.114516926E1
1.074660084E1,8.273483276E0,-1.748166275E1,6.026622772E0
1.075631298E1,5.668895721E0,-1.575763416E1,7.932206988E-1
1.076602438E1,-1.175474152E-1,-1.539153290E1,-1.706381679E0
1.077573662E1,-4.999204636E0,-1.470927906E1,-2.364706993E0
1.078544959E1,-6.332904339E0,-1.472363567E1,-2.793321371E0
1.079516172E1,-5.394319534E0,-1.518784332E1,-1.919342875E0
1.080487313E1,-2.866003275E0,-1.572174168E1,-2.216351986E0
1.081458537E1,-3.188436031E-1,-1.546092415E1,-3.932903051E0
1.082429834E1,1.538884044E0,-1.391426373E1,-6.791429043E0
1.083401048E1,2.403291225E0,-1.181934738E1,-9.369994164E0
1.084372188E1,2.678465843E0,-1.085234833E1,-9.920642853E0
1.085343412E1,1.874178290E0,-1.099591732E1,-7.595716476E0
1.086314709E1,-4.504488707E-1,-1.136231804E1,-3.748655796E0
1.087285923E1,-2.243570328E0,-1.139103222E1,-1.107876897E0
1.088257063E1,-1.966002941E0,-1.190339565E1,-2.302493572E0
1.089228287E1,2.581257522E-1,-1.190339565E1,-7.933403492E0
1.090199584E1,1.821536183E0,-1.063908768E1,-1.396899986E1
1.091170798E1,2.764906645E0,-9.298508644E0,-1.596072483E1
1.092141938E1,3.181257725E0,-8.312067986E0,-1.450768375E1
1.093113162E1,3.798905134E0,-7.550850868E0,-1.175683498E1
1.094084459E1,4.763810635E0,-7.162914753E0,-8.333304405E0
1.095055672E1,5.618646622E0,-7.351947784E0,-5.778666496E0
1.096026813E1,5.786144257E0,-6.810870647E0,-3.975973845E0
1.096998037E1,4.426422596E0,-5.673681736E0,-1.668096542E0
1.097969334E1,1.132104158E0,-4.215854168E0,4.363910258E-1
1.098940548E1,-2.550150633E0,-2.673979282E0,1.449153185E0
1.099911683E1,-5.238786221E0,-1.850549221E0,2.875873804E0
1.100882912E1,-6.291927338E0,-2.097009897E0,5.330012321E0
1.101854209E1,-6.227321148E0,-2.970988512E0,6.409773827E0
1.102825423E1,-6.584150791E0,-4.249353886E0,2.617448807E0
1.103796563E1,-6.701398849E0,-7.565207958E0,-4.749154568E0
1.104767787E1,-6.105287075E0,-1.287039471E1,-1.064118099E1
1.105739084E1,-2.832503796E0,-1.780469513E1,-9.702596664E0
1.106710298E1,1.608574986E0,-2.221227264E1,-7.820940971E0
1.107681438E1,5.216353416E0,-2.430240440E1,-5.979663849E0
1.108652662E1,6.015855312E0,-2.313410759E1,-4.825725079E0
1.109623959E1,3.243770123E0,-2.034018898E1,-5.489135265E0
1.110595172E1,-2.781656384E-1,-1.822373772E1,-7.375576496E0
1.111566313E1,-3.543770313E0,-1.730908012E1,-7.289434910E0
1.112537537E1,-5.451747417E0,-1.750559044E1,-5.074877739E0
1.113508834E1,-6.385546207E0,-1.757737541E1,-3.166601658E0
1.114480048E1,-6.431009769E0,-1.664118385E1,-2.115853310E0
1.115451188E1,-4.834099770E0,-1.521177197E1,-2.072782516E0
1.116422412E1,-3.019443035E0,-1.363669586E1,-1.957628012E0
1.117393709E1,-1.762313843E0,-1.271486092E1,-1.692024708E0
1.118364922E1,-5.485545993E-1,-1.146520996E1,-1.201196909E0
1.119336063E1,3.729812205E-1,-9.889835358E0,-2.889333367E-1
1.120307287E1,8.207381964E-1,-8.539685249E0,7.163512707E-1
1.121278584E1,4.280161560E-1,-6.880561352E0,1.425225019E0
1.122249798E1,-4.336991012E-1,-5.262115955E0,1.654935956E0
1.123220938E1,-1.743171334E0,-4.129712582E0,1.544866085E0
1.124192162E1,-3.134298563E0,-3.095415115E0,1.130608678E0
1.125163459E1,-4.031906128E0,-2.235793591E0,4.845465720E-2
1.126134673E1,-3.998406649E0,-1.800299883E0,-1.397408366E0
1.127105813E1,-3.261118174E0,-1.606182218E0,-2.450848579E0
1.128077037E1,-1.922932148E0,-1.577468276E0,-2.108675003E0
1.129048339E1,-7.208377868E-2,-1.625324726E0,-5.667998791E-1
1.130019553E1,1.278066397E0,-9.454640746E-1,-1.549352705E-1
1.130990693E1,8.925228715E-1,-1.474576950E0,-8.315058798E-2
1.131961917E1,1.081854939E0,-2.027618170E0,-1.244267821E0
1.132933214E1,2.192722797E0,-2.688336134E0,-4.368695736E0
1.133904428E1,3.540480137E0,-3.277269602E0,-7.720442295E0
1.134875568E1,5.460421085E0,-3.842274904E0,-1.325773335E1
1.135846792E1,7.732705593E0,-4.869394302E0,-1.607797432E1
1.136818089E1,6.544968128E0,-4.771288395E0,-9.920642853E0
1.137789303E1,4.680061817E0,-6.564409733E0,-5.513063431E0
1.138760443E1,1.084247708E0,-7.948358536E0,1.623829246E0
1.139731667E1,-3.821337700E0,-1.051705360E1,1.216032505E1
1.140702964E1,-8.461020470E0,-1.362473202E1,9.859625816E0
1.141674178E1,-8.872885704E0,-1.457737446E1,-3.449253798E0
1.142645318E1,-5.080560684E0,-1.246122169E1,-5.393123150E0
1.143616542E1,-1.228415370E0,-1.322961712E1,4.013062477E0
1.144587844E1,3.209971666E0,-1.665793419E1,8.665008545E0
1.145559058E1,6.073582172E0,-1.753669739E1,8.327322006E0
1.146530199E1,5.283352375E0,-1.563799286E1,5.289334297E0
1.147501422E1,1.019641519E0,-1.498445320E1,-4.725824669E-2
1.148472719E1,-4.127918243E0,-1.463719559E1,-2.654537678E0
1.149443933E1,-7.223333359E0,-1.402911949E1,-3.628715515E0
1.150415074E1,-6.469295025E0,-1.418734455E1,-2.213959217E0
1.151386298E1,-3.668197155E0,-1.502034569E1,-1.473978758E0
1.152357594E1,-1.125523925E0,-1.573370647E1,-1.952842355E0
1.153328808E1,1.177567840E0,-1.535324764E1,-2.022234201E0
1.154299949E1,2.906083107E0,-1.396690559E1,-1.658525229E0
1.155271172E1,3.904488325E0,-1.188185978E1,-1.584347725E0
1.156242475E1,3.880560160E0,-1.051944637E1,-2.142174482E0
1.157213688E1,2.690729141E0,-9.379864693E0,-3.705285788E0
1.158184829E1,8.255237937E-1,-8.944071770E0,-5.807380676E0
1.159156053E1,-1.417747378E0,-9.717552185E0,-7.349255562E0
1.160127350E1,-3.402294636E0,-1.108923721E1,-9.027522087E0
1.161098563E1,-2.629113913E0,-9.839586258E0,-8.948558807E0
1.162069704E1,-9.508479238E-1,-1.020359421E1,-9.331410408E0
1.163040928E1,1.481456280E0,-1.049073315E1,-9.480064392E0
1.164012230E1,3.506980658E0,-1.039262676E1,-8.390731812E0
1.164983443E1,4.026522160E0,-1.008604622E1,-7.447361469E0
1.165954584E1,3.997808456E0,-9.142974854E0,-8.376375198E0
1.166925808E1,5.022534847E0,-7.876275063E0,-1.015274620E1
1.167897105E1,6.037390709E0,-6.763014317E0,-1.043509960E1
1.168868318E1,6.458826542E0,-6.655336857E0,-8.462516785E0
1.169839459E1,6.037390709E0,-7.941180229E0,-5.630311489E0
1.170810683E1,4.627419949E0,-7.502994537E0,-2.757428885E0
1.171781985E1,1.514955878E0,-6.193223000E0,-1.440479279E0
1.172753199E1,-1.755135417E0,-4.644468784E0,-1.241874933E0
1.173724339E1,-4.362414837E0,-3.691527128E0,7.597211599E-1
1.174695563E1,-4.781457901E0,-4.191926003E0,5.758327484E0
1.175666860E1,-4.834099770E0,-6.054439545E0,8.284251213E0
1.176638084E1,-5.490032673E0,-6.935596466E0,6.033801556E0
1.177609219E1,-4.724030018E0,-9.195617676E0,-4.040879309E-1
1.178580443E1,-2.808575630E0,-1.415145206E1,-7.382755280E0
1.179551740E1,-3.188436031E-1,-1.739761543E1,-8.831310272E0
1.180522954E1,1.776072621E0,-2.055315018E1,-9.285946846E0
1.181494094E1,1.933998942E0,-2.211655998E1,-8.541479111E0
1.182465324E1,1.187139153E0,-2.166880417E1,-7.861618996E0
1.183436620E1,-1.032203913E0,-1.982064819E1,-8.752047539E0
1.184407834E1,-4.060919285E0,-1.832662773E1,-8.819346428E0
1.185378975E1,-6.574579239E0,-1.765155411E1,-7.042675018E0
1.186350199E1,-7.800302505E0,-1.681586075E1,-4.703691006E0
1.187321501E1,-7.448557854E0,-1.525753403E1,-3.231507063E0
1.188292714E1,-5.341677666E0,-1.341865063E1,-2.261815548E0
1.189263855E1,-2.834896564E0,-1.220249844E1,-2.005484581E0
1.190235079E1,-1.341177106E0,-1.177866936E1,-1.885843396E0
1.191206381E1,-8.455637097E-1,-1.069651508E1,-1.488335729E0
1.192177594E1,-9.963115454E-1,-9.470791817E0,-7.797610760E-1
1.193148735E1,-1.197308660E0,-8.163712502E0,-2.793620527E-1
1.194119959E1,-1.338784218E0,-6.791728020E0,-3.415754437E-1
1.195091256E1,-1.556531072E0,-5.467898846E0,-7.869395614E-1
1.196062480E1,-1.692921996E0,-4.263710976E0,-1.476371527E0
1.197033615E1,-1.937289000E0,-3.260519981E0,-1.799701691E0
1.198004839E1,-2.420938253E0,-2.427518606E0,-1.833201289E0
1.198976136E1,-2.636292458E0,-1.857727647E0,-2.235494614E0
1.199947360E1,-2.617149830E0,-1.591825247E0,-2.615953445E0
1.200918495E1,-2.430509567E0,-1.517647743E0,-2.534597397E0
1.201889719E1,-1.887039781E0,-1.656431437E0,-1.888236165E0
1.202861016E1,-1.520638824E0,-1.429113269E0,-1.019342422E0
1.203832240E1,-1.255035520E0,-1.199103236E0,-1.241874933E0
1.204803376E1,-6.777670383E-1,-3.188735247E0,-1.373480201E0
1.205774600E1,1.012463093E0,-5.757729530E0,-2.302493572E0
1.206745902E1,3.576372623E0,-5.762515068E0,-6.015855312E0
1.207717115E1,7.715656757E0,-7.033702374E0,-1.406231976E1
1.208688256E1,1.054816055E1,-7.608278751E0,-1.128754234E1
1.209659480E1,1.105543900E1,-5.987440586E0,-7.582256794E-1
1.210630782E1,7.759026527E0,-7.491030216E0,4.757828712E0
1.211601995E1,4.864309311E0,-6.861418724E0,8.205287933E0
1.212573136E1,1.603789330E0,-4.144069672E0,8.832506180E0
1.213544360E1,-1.074257755E1,-2.025225163E0,-5.134698391E0
1.214515662E1,-1.931606102E1,-5.827121258E0,-1.844836426E1
1.215486876E1,-1.488933849E1,-8.448458672E0,-2.024626970E0
1.216458016E1,-9.167501450E0,-1.439552021E1,5.748756409E0
1.217429245E1,2.300399780E0,-1.810648918E1,1.013479996E1
1.218400542E1,9.700503349E0,-2.158744812E1,8.169395447E0
1.219371756E1,1.027747250E1,-1.929153442E1,3.819244146E0
1.220342902E1,6.875476837E0,-1.595653820E1,2.303689957E0
1.221314126E1,1.089033365E0,-1.660050583E1,2.239083767E0
1.222285422E1,-2.205285072E0,-1.654307938E1,1.152144074E0
1.223256647E1,-2.810968399E0,-1.626999664E1,-1.155733347E0
1.224227782E1,-2.044965982E0,-1.635165215E1,-3.082852840E0
1.225199006E1,-7.594220638E-1,-1.627956963E1,-4.550550461E0
1.226170308E1,1.073779166E-1,-1.601875114E1,-4.529015064E0
1.227141522E1,1.500598907E0,-1.549203110E1,-4.900201797E0
1.228112662E1,2.644966364E0,-1.432852077E1,-5.003093243E0
1.229083886E1,3.064009428E0,-1.284885979E1,-5.515456200E0
1.230055188E1,2.601895571E0,-1.172363472E1,-5.532206059E0
1.231026402E1,2.533400953E-1,-1.145085239E1,-5.472385406E0
1.231997542E1,-3.914657831E0,-1.119691467E1,-5.962913990E0
1.232968772E1,-6.622435570E0,-9.473184586E0,-6.750751019E0
1.233940068E1,-6.844968319E0,-8.288139343E0,-8.764012337E0
1.234911292E1,-4.786243439E0,-8.302495956E0,-1.061007500E1
1.235882428E1,-1.417747378E0,-8.762217522E0,-1.058853912E1
1.236853652E1,1.953141451E0,-9.003892899E0,-1.083978558E1
1.237824954E1,3.983451605E0,-8.601898193E0,-1.090678501E1
1.238796167E1,5.091926575E0,-7.660920620E0,-1.056939697E1
1.239767308E1,5.956034660E0,-6.607480526E0,-9.719346046E0
1.240738537E1,6.056832314E0,-5.733801365E0,-8.120043755E0
1.241709834E1,5.175675392E0,-5.154438972E0,-6.061318874E0
1.242681058E1,3.356232882E0,-4.464707851E0,-3.286541939E0
1.243652193E1,8.183453679E-1,-4.086641788E0,-8.443672657E-1
1.244623417E1,-1.968395710E0,-4.244568348E0,1.712363720E0
1.245594719E1,-4.505984306E0,-4.100998878E0,4.274179459E0
1.246565933E1,-5.755934715E0,-5.010570526E0,6.914659023E0
1.247537074E1,-6.301797390E0,-5.405685425E0,5.624329567E0
1.248508303E1,-6.739684105E0,-7.021738052E0,5.129613280E-1
1.249479600E1,-6.126822472E0,-1.147238827E1,-5.261518002E0
1.250450824E1,-3.404687405E0,-1.659811401E1,-8.057829857E0
1.251421959E1,2.748156786E0,-1.928674889E1,-7.689335346E0
1.252393183E1,7.167401314E0,-2.167358971E1,-8.050651550E0
1.253364485E1,7.747062206E0,-2.174776649E1,-7.373183727E0
1.254335699E1,4.857131004E0,-2.020110512E1,-7.131508827E0
1.255306839E1,3.227319419E-1,-1.825005913E1,-8.239983559E0
1.256278068E1,-4.601696968E0,-1.709851265E1,-8.412266731E0
1.257249365E1,-7.886444569E0,-1.683500290E1,-6.724429607E0
1.258220589E1,-8.702995300E0,-1.711286926E1,-4.282255173E0
1.259191725E1,-7.094120979E0,-1.708654785E1,-2.481955290E0
1.260162949E1,-3.486043453E0,-1.653350639E1,-1.732702732E0
1.261134251E1,-3.523431420E-1,-1.522612858E1,-1.282552958E0
1.262105464E1,6.412764788E-1,-1.406022549E1,-8.635098934E-1
1.263076610E1,1.325922847E0,-1.225035477E1,-2.889333367E-1
1.264047834E1,1.514955878E0,-1.022991467E1,6.158527136E-1
1.265019136E1,1.582253933E0,-8.508578300E0,1.128215909E0
1.265990350E1,1.096211910E0,-6.818347931E0,1.449153185E0
1.266961490E1,8.344969153E-2,-5.269294739E0,1.523330688E0
1.267932719E1,-1.458425403E0,-3.937987804E0,1.843968987E0
1.268904016E1,-3.404687405E0,-2.767299414E0,2.485843658E0
1.269875240E1,-5.011168957E0,-1.754537225E0,2.179263115E0
1.270846376E1,-5.602495193E0,-1.096211910E0,4.674977362E-1
1.271817600E1,-4.721637249E0,-9.574281573E-1,-1.670489311E0
1.272788902E1,-2.913859844E0,-1.218544960E0,-3.281756163E0
1.273760115E1,-5.318048596E-1,-1.503290772E0,-2.752643347E0
1.274731261E1,1.706680775E0,-9.454640746E-1,-1.598704576E0
1.275702485E1,4.426721931E-1,-3.517449200E-1,-1.052842021E0
1.276673787E1,-1.503889084E0,-9.693922997E-1,-7.893323898E-1
1.277645001E1,-1.194915771E0,-1.524826288E0,-2.134995937E0
1.278616141E1,-1.968096644E-1,-2.769692183E0,-5.527420521E0
1.279587370E1,7.298108935E-1,-3.035594702E0,-9.044271469E0
1.280558667E1,1.919641972E0,-3.361018419E0,-1.506551075E1
1.281529891E1,4.680061817E0,-4.991427898E0,-2.005723763E1
1.282501027E1,6.186044693E0,-4.943571568E0,-1.439492226E1
1.283472256E1,4.455136776E0,-6.847062111E0,-8.324031830E-1
1.284443553E1,1.388136268E0,-9.956833839E0,1.036241722E1
1.285414777E1,-2.586043119E0,-1.234846020E1,2.152852440E1
1.286385912E1,-6.347260952E0,-1.504905987E1,1.085324574E1
1.287357136E1,-6.320940018E0,-1.454626751E1,-8.132007599E0
1.288328438E1,-9.508479238E-1,-1.167817116E1,-5.424229622E0
1.289299652E1,2.257328987E0,-1.262632656E1,6.163013935E0
1.290270798E1,4.438386917E0,-1.658854294E1,1.062323570E1
1.291242022E1,5.525326729E0,-1.947099686E1,5.971588135E0
1.292213324E1,3.770191193E0,-1.820698738E1,3.861417472E-1
1.293184537E1,2.006980032E-1,-1.772333908E1,-3.238685369E0
1.294155678E1,-2.971586704E0,-1.750080490E1,-2.580060959E0
1.295126907E1,-2.705684185E0,-1.668425560E1,-1.272981644E0
1.296098209E1,-8.383852243E-1,-1.674168205E1,-1.095912814E0
1.297069422E1,8.805587292E-1,-1.677518272E1,-1.639382601E0
1.298040563E1,1.754537225E0,-1.612403488E1,-3.133102179E0
1.299011792E1,1.862214208E0,-1.475474262E1,-4.694119930E0
1.299983089E1,1.685145378E0,-1.274357510E1,-5.613562107E0
1.300954313E1,1.301994562E0,-1.114905834E1,-5.373980522E0
1.301925449E1,1.127318621E0,-1.134317589E1,-3.947260141E0
1.302896678E1,3.538386524E-1,-1.168056393E1,-3.628715515E0
1.303867975E1,-8.240283132E-1,-1.169252777E1,-4.684548378E0
1.304839199E1,-3.308077157E-1,-9.837192535E0,-5.642275810E0
1.305810334E1,3.035893738E-1,-9.169296265E0,-7.471289635E0
1.306781558E1,8.590233326E-1,-8.637790680E0,-9.827023506E0
1.307752860E1,1.165603757E0,-8.142177582E0,-1.100249767E1
1.308724074E1,1.742573142E0,-7.723134041E0,-1.128275681E1
1.309695219E1,2.810370207E0,-7.725526810E0,-1.154118156E1
1.310666443E1,4.914558411E0,-7.845168114E0,-1.068185902E1
1.311637745E1,7.184450150E0,-7.641777992E0,-8.172685623E0
1.312608959E1,7.292127132E0,-6.854240417E0,-5.268696308E0
1.313580105E1,5.209175110E0,-5.338686466E0,-2.719143867E0
1.314551329E1,2.034497499E0,-3.701098442E0,-9.089735150E-1
1.315522631E1,-1.534995675E0,-2.623729944E0,-1.788634956E-1
1.316493844E1,-4.031906128E0,-2.235793591E0,7.235297561E-1
1.317464990E1,-5.140381336E0,-2.140080690E0,3.101098061E0
1.318436214E1,-5.255535603E0,-2.982952595E0,6.031408787E0
1.319407516E1,-6.279963017E0,-4.167997837E0,5.629115105E0
1.320378730E1,-7.620841026E0,-5.192724228E0,-3.050848842E-2
1.321349876E1,-6.816254616E0,-8.103892326E0,-7.112366199E0
1.322321100E1,-4.771886349E0,-1.466351604E1,-1.058136082E1
1.323292402E1,-9.173483849E-1,-1.920060730E1,-8.124829292E0
1.324263615E1,3.171686411E0,-2.313410759E1,-6.592824459E0
1.325234756E1,4.550849438E0,-2.437179565E1,-5.529813290E0
1.326205985E1,3.277269602E0,-2.244198418E1,-5.287838936E0
1.327177287E1,-8.165507019E-2,-1.949253082E1,-7.021139622E0
1.328148501E1,-3.771088600E0,-1.782144356E1,-8.675477982E0
1.329119641E1,-5.889933109E0,-1.754626846E1,-7.660322666E0
1.330090870E1,-6.502794743E0,-1.769462395E1,-4.684548378E0
1.331062172E1,-6.837790012E0,-1.751516342E1,-2.357528448E0
1.332033386E1,-5.403890610E0,-1.636122322E1,-9.762716293E-1
1.333004527E1,-2.942872763E0,-1.481695557E1,-7.821539044E-1
1.333975756E1,-7.857431173E-1,-1.424237919E1,-9.690931439E-1
1.334947058E1,9.379864931E-1,-1.296132183E1,-4.519443810E-1
1.335918272E1,1.385743380E0,-1.110598755E1,8.913264424E-2
1.336889412E1,9.714859724E-1,-9.119047165E0,3.167499006E-1
1.337860641E1,2.093719784E-3,-7.182057381E0,3.406781256E-1
1.338831943E1,-9.029914737E-1,-5.314758301E0,2.569293380E-1
1.339803157E1,-1.747956991E0,-3.746562004E0,1.971087605E-1
1.340774298E1,-2.389831543E0,-2.537588358E0,1.058823988E-1
1.341745527E1,-2.827718258E0,-1.744965911E0,-3.343969584E-1
1.342716829E1,-2.971586704E0,-1.254437327E0,-1.153340459E0
1.343688042E1,-2.674577475E0,-1.010070205E0,-2.290529490E0
1.344659183E1,-1.822433591E0,-1.060319543E0,-2.831606388E0
1.345630412E1,-5.150550604E-1,-1.074676514E0,-2.556132793E0
1.346601714E1,1.215852976E0,-1.321436286E0,-2.118246317E0
1.347572928E1,2.637787819E0,-2.202294111E0,-1.742274046E0
1.348544068E1,2.997010469E0,-3.296412230E0,-1.967199326E0
1.349515298E1,3.016152859E0,-4.457529545E0,-3.621536970E0
1.350486594E1,3.758227110E0,-6.265306950E0,-5.778666496E0
1.351457818E1,5.113461971E0,-5.616253853E0,-7.040282249E0
1.352428954E1,6.727121830E0,-6.114260197E0,-1.257308674E1
1.353400183E1,8.587242126E0,-6.729514599E0,-1.089242744E1
1.354371485E1,7.710870743E0,-7.024130821E0,-3.113959551E0
1.355342699E1,3.823132277E0,-7.737491131E0,6.311368942E0
1.356313839E1,-1.362712502E0,-8.479565620E0,1.565085506E1
1.357285068E1,-8.092526436E0,-9.363115311E0,1.312044430E1
1.358256370E1,-1.332592869E1,-7.136593342E0,-2.676073074E0
1.359227584E1,-1.079791164E1,-6.794120789E0,-1.112961674E1
1.360198725E1,-5.700600624E0,-1.086431217E1,-3.343969584E0
1.361169954E1,-1.032203913E0,-1.377787304E1,6.301797390E0
1.362141256E1,3.061616659E0,-1.630110359E1,1.024965572E1
1.363112469E1,3.490231037E0,-1.761805344E1,8.236394882E0
1.364083610E1,1.412064433E0,-1.595653820E1,4.220340848E-1
1.365054839E1,-5.868397355E-1,-1.493181133E1,-4.818546772E0
1.366026141E1,-2.609971285E0,-1.640429497E1,-4.399802685E0
1.366997355E1,-1.961217284E0,-1.733300972E1,-1.397408366E0
1.367968501E1,-9.840483218E-2,-1.805624008E1,1.465603858E-1
1.368939725E1,9.499505758E-1,-1.809452438E1,-1.086341500E0
1.369911027E1,1.596610904E0,-1.709611893E1,-3.573680639E0
1.370882240E1,1.941177368E0,-1.536042595E1,-5.338088036E0
1.371853386E1,2.436790705E0,-1.322004604E1,-6.506383896E0
1.372824610E1,2.970689297E0,-1.199432278E1,-6.798607349E0
1.373795912E1,3.145365477E0,-1.243250847E1,-5.639883041E0
1.374767126E1,2.271686077E0,-1.254975700E1,-4.359124660E0
1.375738272E1,5.599204898E-1,-1.158485126E1,-3.276970625E0
1.376709495E1,-1.269392371E0,-1.037109184E1,-4.212863445E0
1.377680798E1,-2.621935368E0,-8.723932266E0,-8.761619568E0
1.378652011E1,-2.935694218E0,-7.179664135E0,-1.301845074E1
1.379623157E1,-1.587637782E0,-6.636194706E0,-1.423699570E1
1.380594381E1,6.388836503E-1,-6.813562393E0,-1.373181057E1
1.381565683E1,3.344268799E0,-7.412067413E0,-1.328435326E1
1.382536907E1,6.188437462E0,-8.192426682E0,-1.242233849E1
1.383508042E1,7.737491131E0,-8.522934914E0,-1.030110168E1
1.384479272E1,7.335197926E0,-8.072785378E0,-7.025925636E0
1.385450568E1,5.051248550E0,-7.282555580E0,-3.399004459E0
1.386421792E1,1.522134304E0,-5.676074505E0,-3.873381615E-1
1.387392928E1,-2.066501379E0,-3.818346739E0,1.461117268E0
1.388364157E1,-5.284249783E0,-2.223829508E0,2.930908680E0
1.389335454E1,-6.507580280E0,-2.295614243E0,6.914659023E0
1.390306678E1,-7.419844151E0,-2.772084951E0,9.210871696E0
1.391277813E1,-8.537590981E0,-3.722633839E0,5.406582832E0
1.392249042E1,-8.006384850E0,-6.650551319E0,-4.986343384E0
1.393220339E1,-5.516353607E0,-1.163749313E1,-1.356909943E1
1.394191563E1,-1.788634896E0,-1.765633965E1,-1.195065403E1
1.395162699E1,2.963510752E0,-2.429043961E1,-7.919046402E0
1.396133928E1,7.722835064E0,-2.784078979E1,-4.730011940E0
1.397105230E1,9.310173988E0,-2.596631241E1,-2.359921217E0
1.398076443E1,6.274579048E0,-2.190090752E1,-4.320839405E0
1.399047589E1,5.670989752E-1,-1.856351852E1,-7.880761147E0
1.400018813E1,-5.094917774E0,-1.640190125E1,-8.290233612E0
1.400990115E1,-8.844171524E0,-1.513998699E1,-6.075675964E0
1.401961329E1,-9.888040543E0,-1.465155220E1,-3.401397467E0
1.402932475E1,-7.982456207E0,-1.395972729E1,-2.204387903E0
1.403903699E1,-4.668995380E0,-1.287278748E1,-1.830808401E0
1.404875001E1,-2.531008244E0,-1.265504074E1,-1.701596022E0
1.405846225E1,-8.407780528E-1,-1.244447231E1,-1.596311808E0
1.406817360E1,2.605185509E-1,-1.166620636E1,-8.395816684E-1
1.407788589E1,7.226324677E-1,-1.063190937E1,-6.640082598E-2
1.408759886E1,9.092726111E-1,-9.255437851E0,3.837489188E-1
1.409731110E1,6.867401004E-1,-7.680063248E0,4.435695112E-1
1.410702245E1,-2.159522474E-1,-6.061617851E0,2.617149651E-1
1.411673475E1,-1.460818172E0,-4.677968502E0,3.598206937E-1
1.412644772E1,-2.552543640E0,-3.521636724E0,2.569293380E-1
1.413615995E1,-3.558127165E0,-2.501696110E0,-1.381855011E-1
1.414587131E1,-4.596911430E0,-1.603789330E0,-1.040877819E0
1.415558360E1,-4.834099770E0,-1.144068360E0,-2.146960020E0
1.416529662E1,-4.649852753E0,-9.047860503E-1,-2.285743713E0
1.417500876E1,-4.053740501E0,-5.886343718E-1,-1.328016520E0
1.418472016E1,-2.495115757E0,5.294119939E-2,-1.747059584E0
1.419443245E1,-6.370890141E-1,-1.208973646E0,-2.443670034E0
1.420414548E1,1.610967875E0,-3.971487284E0,-2.647359133E0
1.421385761E1,3.791726589E0,-5.798407555E0,-4.174578190E0
1.422356907E1,5.402993679E0,-6.396912098E0,-7.272685528E0
1.423328131E1,5.865107536E0,-5.147260666E0,-1.360499096E1
1.424299433E1,8.314460754E0,-5.724229813E0,-1.789532280E1
1.425270657E1,7.533802032E0,-4.864608288E0,-5.137091160E0
1.426241792E1,5.530112267E0,-6.181259155E0,5.991029739E-1
1.427213022E1,2.594717026E0,-4.462315083E0,6.986742973E0
1.428184318E1,-1.735992789E0,-4.644468784E0,1.559821224E1
1.429155542E1,-9.734899521E0,-7.605885983E0,6.969993114E0
1.430126678E1,-1.186301613E1,-8.309675217E0,-1.394985676E1
1.431097907E1,-6.708577156E0,-1.149153042E1,-1.004746246E1
1.432069209E1,-2.207678080E0,-1.547049522E1,1.963909149E0
1.433040422E1,3.119044304E0,-1.968874359E1,1.107577801E1
1.434011568E1,5.656931877E0,-2.094108582E1,9.608079910E0
1.434982792E1,4.878666401E0,-1.786690712E1,2.461915493E0
1.435954094E1,1.912463546E0,-1.623649788E1,-2.240280151E0
1.436925308E1,-2.078465462E0,-1.602114487E1,-1.057627559E0
1.437896454E1,-3.534198999E0,-1.552313805E1,-1.105484009E0
1.438867678E1,-3.194119215E0,-1.512802315E1,-2.084746838E0
1.439838980E1,-2.169392824E0,-1.500838184E1,-2.568096876E0
1.440810204E1,-1.379462242E0,-1.486002636E1,-3.444468260E0
1.441781339E1,-8.838488460E-1,-1.434287834E1,-3.518645763E0
1.442752568E1,-8.048857450E-1,-1.330618763E1,-3.353540897E0
1.443723870E1,-3.140579760E-1,-1.157767200E1,-5.151448250E0
1.444695084E1,7.202396393E-1,-1.061994553E1,-7.224828720E0
1.445666230E1,1.455135226E0,-1.127348518E1,-7.511967659E0
1.446637454E1,1.618146300E0,-1.171884918E1,-6.645466805E0
1.447608756E1,5.240281820E-1,-1.180259800E1,-5.912664890E0
1.448579969E1,-8.024929166E-1,-1.055533886E1,-5.840879917E0
1.449551115E1,-1.075274706E0,-9.006285667E0,-5.812166214E0
1.450522339E1,-4.241278172E-1,-8.735896111E0,-7.452147007E0
1.451493641E1,2.437688112E-1,-8.249854088E0,-1.076082230E1
1.452464865E1,4.713860750E-1,-7.780561924E0,-1.328674603E1
1.453436001E1,1.077069283E0,-7.502994537E0,-1.349013615E1
1.454407230E1,2.276471615E0,-7.270591736E0,-1.192193985E1
1.455378532E1,3.755834341E0,-7.174878597E0,-9.367601395E0
1.456349745E1,4.902594566E0,-7.251449108E0,-6.954140663E0
1.457320891E1,5.103890896E0,-7.567600727E0,-4.926522732E0
1.458292115E1,3.940380573E0,-7.088737011E0,-2.800499916E0
1.459263417E1,2.336292267E0,-6.212365627E0,-6.580262445E-3
1.460234631E1,1.767697781E-1,-5.144867897E0,2.586342096E0
1.461205777E1,-2.088036776E0,-4.330709934E0,4.635495663E0
1.462177001E1,-2.468794823E0,-4.558028221E0,7.977670670E0
1.463148303E1,-2.808575630E0,-4.455136776E0,7.901100159E0
1.464119527E1,-3.495913982E0,-4.562813759E0,2.231905222E0
1.465090662E1,-4.793421745E0,-6.719943523E0,-7.200900555E0
1.466061891E1,-5.983253002E0,-1.084277630E1,-1.212054443E1
1.467033193E1,-5.178965569E0,-1.504666710E1,-9.707382202E0
1.468004407E1,-2.863610506E0,-1.928196335E1,-7.468896866E0
1.468975553E1,-8.288139701E-1,-2.170469666E1,-5.168197632E0
1.469946777E1,1.223031521E0,-2.194876480E1,-4.267898083E0
1.470918079E1,2.362613201E0,-2.030190277E1,-6.621538639E0
1.471889303E1,1.380957723E0,-1.861645889E1,-9.329017639E0
1.472860438E1,-6.514459848E-1,-1.766591072E1,-8.582157135E0
1.473831667E1,-2.092822552E0,-1.697887039E1,-5.239982605E0
1.474802964E1,-3.670589924E0,-1.619103432E1,-2.814856768E0
1.475774188E1,-4.517948151E0,-1.472602844E1,-1.641775489E0
1.476745329E1,-3.371187925E0,-1.306690502E1,-1.351944804E0
1.477716553E1,-2.047358990E0,-1.226949692E1,-1.220339537E0
1.478687855E1,-1.554138303E0,-1.115145111E1,-9.113663435E-1
1.479659068E1,-1.276570916E0,-1.001186943E1,-3.152543902E-1
1.480630214E1,-9.675976634E-1,-8.927322388E0,9.152546525E-2
1.481601443E1,-9.125627279E-1,-7.916952610E0,2.449652255E-1
1.482572740E1,-1.204487085E0,-6.700800896E0,2.832503915E-1
1.483543964E1,-1.877468467E0,-5.817550182E0,-1.615155302E-2
1.484515100E1,-2.363211393E0,-4.957928658E0,-7.319046259E-1
1.485486329E1,-2.351247311E0,-4.234996796E0,-2.050948143E0
1.486457631E1,-2.296212435E0,-3.497708559E0,-3.461217880E0
1.487428844E1,-2.111965179E0,-2.791227579E0,-4.665405750E0
1.488399990E1,-2.260320187E0,-2.125723839E0,-4.596014023E0
1.489371214E1,-2.061715841E0,-1.805085540E0,-3.626322746E0
1.490342516E1,-1.084846020E0,-1.287936807E0,-2.750250578E0
1.491313740E1,-5.222335458E-1,-2.464607358E-1,-2.522633314E0
1.492284876E1,7.627122104E-2,-1.620539188E0,-1.799701691E0
1.493256105E1,1.330708504E0,-4.230211258E0,-2.704786777E0
1.494227407E1,3.538087368E0,-4.565206528E0,-6.451348782E0
1.495198620E1,6.949654102E0,-5.676074505E0,-1.371506119E1
1.496169766E1,9.133105278E0,-6.157330990E0,-1.124686432E1
1.497140990E1,6.705586433E0,-5.664110184E0,-2.338984162E-1
1.498112292E1,3.095116138E0,-5.336293697E0,4.922933578E0
1.499083516E1,8.039883971E-1,-3.097808123E0,6.287440777E0
1.500054652E1,-2.665006161E0,-1.412363529E0,6.328118801E0
1.501025881E1,-1.206670570E1,-4.383351803E0,-4.756333351E0
1.501997183E1,-1.453490162E1,-7.351947784E0,-1.379163170E1
1.502968396E1,-9.555138588E0,-1.408176136E1,-4.208376706E-1
1.503939542E1,-3.888336897E0,-1.915992928E1,4.527818680E0
