"Time (s)","Gyroscope x (rad/s)","Gyroscope y (rad/s)","Gyroscope z (rad/s)"
4.867490200E-2,1.088835225E-1,6.765133142E-2,6.134433746E-1
5.838787100E-2,-7.597413063E-1,8.719844371E-2,5.279247165E-1
6.810000700E-2,-1.553842664E0,1.030804738E-1,3.788780272E-1
7.781136100E-2,-2.244100094E0,1.324011385E-1,1.846285909E-1
8.752360000E-2,-2.806079626E0,1.922641695E-1,-6.093201414E-2
9.723656900E-2,-3.241002798E0,2.777827978E-1,-3.284831047E-1
1.069486520E-1,-3.585520744E0,4.170559645E-1,-5.618267655E-1
1.166600590E-1,-3.838564157E0,5.184566379E-1,-7.279772162E-1
1.263721940E-1,-3.965620518E0,4.268295169E-1,-8.061656952E-1
1.360852150E-1,-4.150096416E0,6.032116711E-2,-7.744016051E-1
1.457973500E-1,-4.440859795E0,-5.566345453E-1,-6.558972597E-1
1.555087040E-1,-4.663208008E0,-1.190693974E0,-3.785725832E-1
1.652209440E-1,-4.796372890E0,-1.567128658E0,1.382041872E-1
1.749339130E-1,-4.809811115E0,-1.856670260E0,7.272136807E-1
1.846460480E-1,-4.589906216E0,-1.871330619E0,1.182905674E0
1.943574020E-1,-4.043808937E0,-1.183363795E0,1.300188422E0
2.040696420E-1,-3.319191217E0,-3.941491842E-1,8.506048322E-1
2.137826110E-1,-2.942909479E0,-5.818320066E-2,5.390727147E-2
2.234946940E-1,-2.985668659E0,-1.644706279E-1,-6.180247068E-1
2.332061000E-1,-3.160371065E0,-4.662291706E-1,-9.368869662E-1
2.429182360E-1,-3.228785992E0,-5.810684562E-1,-8.941276670E-1
2.526312570E-1,-3.066300631E0,-4.662291706E-1,-5.960342288E-1
2.623433920E-1,-2.725447655E0,-3.355078697E-1,-2.099787444E-1
2.720547460E-1,-2.357717752E0,-3.171824515E-1,1.101052165E-1
2.817669860E-1,-2.059624195E0,-3.550549746E-1,2.860292196E-1
2.914799540E-1,-1.817728758E0,-3.501681983E-1,2.921377122E-1
3.011920900E-1,-1.556286097E0,-3.061871827E-1,1.528645307E-1
3.109034440E-1,-1.203216434E0,-1.913478971E-1,-5.848862603E-2
3.206156840E-1,-7.182036638E-1,8.231166750E-2,-2.295258641E-1
3.303286000E-1,-1.611109674E-1,4.720322192E-1,-3.272614181E-1
3.400407360E-1,3.862081766E-1,8.617527485E-1,-3.712424338E-1
3.497521420E-1,8.590039611E-1,1.196497083E0,-3.712424338E-1
3.594642770E-1,1.270714998E0,1.490925431E0,-3.162661791E-1
3.691772980E-1,1.655548811E0,1.770693541E0,-1.794363856E-1
3.788894340E-1,2.003884315E0,1.947839141E0,2.947338112E-2
3.886007880E-1,2.240893126E0,1.875759244E0,2.506000996E-1
3.983130270E-1,2.334963560E0,1.497033954E0,3.984251320E-1
4.080259960E-1,2.330076933E0,8.825215697E-1,4.228590131E-1
4.177380790E-1,2.262883663E0,2.338017821E-1,3.691044450E-1
4.274494860E-1,2.227454424E0,-2.927485406E-1,3.116848171E-1
4.371617250E-1,2.333741903E0,-6.617003083E-1,2.689255178E-1
4.468746420E-1,2.523104668E0,-6.959077120E-1,2.689255178E-1
4.565867770E-1,2.700250387E0,-4.027010500E-1,3.239017725E-1
4.662981320E-1,2.749118090E0,-1.070509851E-1,3.348970115E-1
4.760103710E-1,2.523104668E0,1.250709742E-1,1.992889196E-1
4.857233400E-1,1.937912941E0,3.510844707E-1,-4.504998401E-2
4.954354230E-1,9.750649333E-1,4.085040987E-1,-3.260397315E-1
5.051468290E-1,2.481566966E-1,4.378247857E-1,-6.449019909E-1
5.148590690E-1,2.823641598E-1,5.978667736E-1,-8.171609044E-1
5.245719860E-1,6.427640319E-1,1.373642802E0,-8.208259940E-1
5.342841210E-1,7.527165413E-1,1.913631797E0,-8.171609044E-1
5.439955270E-1,7.307260633E-1,3.339807391E-1,-7.291989326E-1
5.537076630E-1,8.078455180E-2,-1.961735964E0,-3.455868363E-1
5.634206840E-1,-3.675773442E-1,-2.461409092E0,2.092151903E-2
5.731328190E-1,9.422318637E-2,-1.315306902E0,5.963396430E-1
5.828441730E-1,1.019045949E0,-4.173613787E-1,1.065623045E0
5.925564130E-1,1.798639774E0,-1.363716573E-1,8.762603998E-1
6.022693820E-1,1.967233539E0,-6.519267559E-1,3.544441164E-1
6.119814650E-1,1.772984147E0,-1.266439080E0,-9.269607067E-2
6.216928710E-1,1.726407051E0,-1.523147583E0,-3.199312389E-1
6.314050070E-1,1.963568568E0,-1.417929173E0,-2.673983872E-1
6.411180270E-1,2.275100708E0,-9.414683580E-1,-2.061609551E-2
6.508301630E-1,2.615953445E0,-4.894413650E-1,2.176143378E-1
6.605415170E-1,2.868844271E0,-1.168245375E-1,3.153499067E-1
6.702537570E-1,2.970244884E0,1.800472289E-1,3.263451457E-1
6.799667250E-1,3.011782408E0,3.718532622E-1,3.141281903E-1
6.896788090E-1,3.023999453E0,5.184566379E-1,3.373403847E-1
6.993902150E-1,3.054541826E0,6.931589246E-1,3.654393852E-1
7.091023500E-1,3.109518051E0,8.764131069E-1,2.786990702E-1
7.188153710E-1,3.077754021E0,1.037676811E0,1.186570823E-1
7.285275070E-1,2.868844271E0,1.064554095E0,8.567132801E-2
7.382388610E-1,2.502335787E0,8.434273601E-1,2.444916219E-1
7.479511000E-1,2.058860779E0,5.037962794E-1,4.546230733E-1
7.576640690E-1,1.588355541E0,2.118112892E-1,5.938962698E-1
7.673762040E-1,1.104564548E0,4.566083103E-2,6.500942111E-1
7.770875590E-1,5.682406425E-1,2.977880463E-2,6.012263894E-1
7.867997980E-1,-5.726693198E-2,6.765133142E-2,4.888305068E-1
7.965127670E-1,-7.853968740E-1,1.043021679E-1,3.752129376E-1
8.062248500E-1,-1.581941724E0,9.330692142E-2,2.432699203E-1
8.159362570E-1,-2.330840349E0,-2.031067200E-2,6.368082762E-2
8.256483920E-1,-2.927027464E0,-2.206685692E-1,-1.757712960E-1
8.353614130E-1,-3.357063770E0,-4.149180055E-1,-4.140017331E-1
8.450735480E-1,-3.694404125E0,-5.847335458E-1,-5.667135715E-1
8.547849020E-1,-3.971728802E0,-9.194778204E-1,-6.216897964E-1
8.644971420E-1,-4.225841522E0,-1.466796994E0,-5.752654076E-1
8.742101110E-1,-4.437194347E0,-2.039924383E0,-4.628695250E-1
8.839222460E-1,-4.412760735E0,-2.265937805E0,-3.089359999E-1
8.936336000E-1,-4.236836433E0,-1.912868142E0,-4.504998401E-2
9.033458400E-1,-4.074351311E0,-1.191915751E0,3.544441164E-1
9.130588090E-1,-3.983945847E0,-4.967715442E-1,7.711946368E-1
9.227708920E-1,-3.883766890E0,-4.840964451E-2,1.036302328E0
9.324822980E-1,-3.726168394E0,1.262926757E-1,9.336800575E-1
9.421945380E-1,-3.558643341E0,-1.693574041E-1,4.546230733E-1
9.519075070E-1,-3.412039995E0,-7.521057129E-1,-7.192726433E-2
9.616195900E-1,-3.242224455E0,-1.011104941E0,-4.066715539E-1
9.713309960E-1,-3.065078735E0,-7.386670709E-1,-4.604261220E-1
9.810432360E-1,-2.867164373E0,-1.669140160E-1,-3.028275371E-1
9.907561520E-1,-2.628933907E0,3.975088596E-1,-1.073564067E-1
1.000468288E0,-2.360161066E0,7.554653287E-1,1.114796288E-2
1.010179694E0,-2.073062897E0,8.825215697E-1,6.490252167E-2
1.019891829E0,-1.773747683E0,8.422056437E-1,8.078455180E-2
1.029604850E0,-1.459772229E0,7.676823139E-1,4.413371533E-2
1.039316986E0,-1.109145880E0,7.200362086E-1,-2.061609551E-2
1.049028392E0,-7.096518278E-1,7.029324770E-1,-8.170082420E-2
1.058740527E0,-2.845021188E-1,7.285880446E-1,-1.611109674E-1
1.068453548E0,1.333174109E-1,8.324320912E-1,-2.551814318E-1
1.078165684E0,5.059342384E-1,1.021794796E0,-3.052709103E-1
1.087877090E0,8.443436027E-1,1.223374367E0,-2.722851634E-1
1.097589225E0,1.185196400E0,1.341878772E0,-1.635543555E-1
1.107302246E0,1.543152928E0,1.330883503E0,-2.916795574E-2
1.117014382E0,1.860946178E0,1.212379098E0,8.811471611E-2
1.126725788E0,2.069855928E0,9.729269743E-1,1.895153672E-1
1.136437923E0,2.127275467E0,6.296308041E-1,2.811424434E-1
1.146150944E0,2.084516287E0,2.692309320E-1,3.385621011E-1
1.155863079E0,2.071077585E0,-2.275406010E-2,3.703261614E-1
1.165574486E0,2.178586721E0,-1.925695986E-1,3.849864900E-1
1.175286621E0,2.376501322E0,-2.886253223E-2,4.179722369E-1
1.184999642E0,2.592741251E0,4.989095032E-1,4.839437306E-1
1.194711777E0,2.738122940E0,1.021794796E0,4.949389994E-1
1.204423184E0,2.578080893E0,1.242921472E0,3.923166394E-1
1.214135319E0,1.924474239E0,1.025459886E0,1.785201132E-1
1.223848340E0,1.037371397E0,4.292729199E-1,-1.684411317E-1
1.233560475E0,3.715478480E-1,-8.750387281E-2,-5.349494815E-1
1.243271882E0,5.120427012E-1,-5.818320066E-2,-7.230904698E-1
1.252984121E0,1.082574010E0,8.312104344E-1,-7.682931423E-1
1.262697038E0,1.412431598E0,1.615538239E0,-8.220477104E-1
1.272409173E0,1.535822749E0,1.197718740E0,-9.026795626E-1
1.282120579E0,8.638907075E-1,-6.018372774E-1,-8.941276670E-1
1.291832819E0,-3.529170156E-1,-2.210961580E0,-6.656708121E-1
1.301545788E0,-4.738647640E-1,-1.895764470E0,-4.249969721E-1
1.311257923E0,2.261662036E-1,-8.730534315E-1,1.956238300E-1
1.320969277E0,1.168092728E0,-6.372663975E-1,6.759024858E-1
1.330681517E0,1.761988878E0,-9.048175216E-1,5.633538961E-1
1.340394486E0,1.788866162E0,-1.473058224E0,2.542651594E-1
1.350106621E0,1.681204319E0,-1.773594975E0,-2.290677279E-3
1.359818027E0,1.900040388E0,-1.542694807E0,-9.758284688E-2
1.369530163E0,2.353289127E0,-7.740961909E-1,1.969982497E-2
1.379243184E0,2.744231224E0,6.765133142E-2,2.738122940E-1
1.388955319E0,3.023999453E0,6.332958937E-1,4.595098495E-1
1.398666725E0,3.169380903E0,9.607100487E-1,4.888305068E-1
1.408378965E0,3.175489426E0,1.131747246E0,4.839437306E-1
1.418091934E0,3.100966215E0,1.120751977E0,5.499152541E-1
1.427804069E0,2.995900393E0,1.076771021E0,6.586460471E-1
1.437515423E0,2.889612913E0,1.046228647E0,6.734591126E-1
1.447227663E0,2.800429344E0,9.594883323E-1,5.230379701E-1
1.456940632E0,2.719797373E0,8.544226289E-1,3.031329513E-1
1.466652767E0,2.565863848E0,6.125270724E-1,1.455343664E-1
1.476364173E0,2.190803766E0,1.898207814E-1,1.345391124E-1
1.486076413E0,1.559034944E0,-2.206685692E-1,2.066190839E-1
1.495789382E0,7.857022882E-1,-5.957288146E-1,3.190149665E-1
1.505501517E0,-5.971032009E-2,-8.791618943E-1,4.204156399E-1
1.515212871E0,-9.283351302E-1,-9.781191945E-1,4.766135812E-1
1.524925111E0,-1.745648742E0,-9.011524320E-1,4.839437306E-1
1.534638079E0,-2.481108904E0,-6.910209656E-1,3.776563108E-1
1.544350215E0,-3.101729631E0,-3.892624080E-1,1.223221645E-1
1.554061621E0,-3.542761326E0,-8.872556686E-2,-2.490729690E-1
1.563773861E0,-3.779922724E0,1.531699449E-1,-5.593833923E-1
1.573486829E0,-3.893540382E0,1.592784226E-1,-7.279772162E-1
1.583198965E0,-4.074351311E0,-1.107160673E-1,-7.756233215E-1
1.592910319E0,-4.387104988E0,-6.067240238E-1,-7.059867382E-1
1.602622559E0,-4.723071098E0,-1.167481780E0,-4.982986450E-1
1.612335527E0,-4.880669594E0,-1.694184899E0,-2.026485801E-1
1.622047663E0,-4.743839741E0,-2.050919771E0,9.422318637E-2
1.631759069E0,-4.517826557E0,-1.835901380E0,3.972034156E-1
1.641471309E0,-4.316246510E0,-9.585720897E-1,6.562026739E-1
1.651184277E0,-4.114666939E0,2.374668717E-1,8.774821162E-1
1.660896413E0,-3.815351963E0,1.242921472E0,1.000873208E0
1.670607819E0,-3.413261652E0,1.606986403E0,7.589777112E-1
1.680319954E0,-3.133493662E0,1.203827262E0,2.615953386E-1
1.690033027E0,-2.991777182E0,3.510844707E-1,-2.197522968E-1
1.699745111E0,-2.793862581E0,-3.428380191E-1,-4.653128982E-1
1.709456517E0,-2.577622652E0,-4.466820657E-1,-3.846810758E-1
1.719168757E0,-2.343057394E0,-1.094943732E-1,-1.391204596E-1
1.728881725E0,-2.080393076E0,2.362451702E-1,3.191677108E-2
1.738593861E0,-1.798181653E0,4.231644273E-1,6.978929788E-2
1.748305267E0,-1.523300409E0,4.451549351E-1,3.436015919E-2
1.758017507E0,-1.248419046E0,4.353813827E-1,-1.817270555E-2
1.767730475E0,-9.454388618E-1,5.331169367E-1,-9.269607067E-2
1.777442611E0,-5.801522136E-1,7.652388811E-1,-1.611109674E-1
1.787154017E0,-1.525591016E-1,1.029124975E0,-1.928750277E-1
1.796866152E0,3.006895781E-1,1.216044188E0,-1.928750277E-1
1.806579225E0,7.356128097E-1,1.306449533E0,-1.696628332E-1
1.816291361E0,1.143658757E0,1.352873921E0,-1.256818175E-1
1.826002715E0,1.530935884E0,1.410293579E0,-5.238015205E-2
1.835714954E0,1.886601806E0,1.497033954E0,6.856760383E-2
1.845427923E0,2.184695244E0,1.580109119E0,2.383831441E-1
1.855140059E0,2.407043695E0,1.597212911E0,4.399627447E-1
1.864851465E0,2.515774488E0,1.462826490E0,6.342121959E-1
1.874563704E0,2.510887623E0,1.106091619E0,7.748597264E-1
1.884276673E0,2.433920860E0,5.538857579E-1,8.017370105E-1
1.893988809E0,2.353289127E0,-5.696150661E-2,7.369872332E-1
1.903700215E0,2.372836113E0,-4.637857676E-1,6.710157394E-1
1.913412454E0,2.534099817E0,-6.177192926E-1,6.415423155E-1
1.923125423E0,2.644052267E0,-4.344651103E-1,6.268820167E-1
1.932837559E0,2.617175102E0,-1.033858955E-1,4.937172830E-1
1.942548965E0,2.516996145E0,1.214058921E-1,1.870719790E-1
1.952261100E0,2.159039736E0,3.657447994E-1,-2.185306102E-1
1.961974121E0,1.473516345E0,8.287670016E-1,-7.719582319E-1
1.971686257E0,1.329356313E0,1.655854225E0,-1.303395391E0
1.981397663E0,1.629893184E0,2.479276419E0,-1.630809426E0
1.991109902E0,1.655548811E0,3.025373697E0,-1.710219622E0
2.000822871E0,1.528492570E0,1.808565974E0,-1.417012930E0
2.010535007E0,8.871029615E-1,-1.207797766E0,-8.525900841E-1
2.020246413E0,-6.093201414E-2,-2.941534996E0,-1.598892659E-1
2.029958652E0,-1.342336833E-1,-1.668529272E0,4.485146105E-1
2.039671621E0,7.392778993E-1,-1.908897609E-2,1.036302328E0
2.049383757E0,1.770540833E0,4.439332485E-1,1.208561301E0
2.059095163E0,2.239671469E0,-3.252761811E-2,6.783458591E-1
2.068807402E0,2.154152870E0,-8.657232523E-1,1.847812906E-2
2.078520371E0,1.955016613E0,-1.378834963E0,-2.319692522E-1
2.088232507E0,1.918365836E0,-1.263995647E0,4.535540938E-2
2.097943913E0,2.045422077E0,-6.128324866E-1,6.158867478E-1
2.107656152E0,2.256775141E0,-2.641914412E-2,1.104717255E0
2.117369121E0,2.513330936E0,2.961082160E-1,1.246433854E0
2.127081257E0,2.784547329E0,5.648810267E-1,1.146254897E0
2.136792611E0,3.004452229E0,7.554653287E-1,9.996515512E-1
2.146504850E0,3.137616873E0,8.373188972E-1,8.811471462E-1
2.156217819E0,3.141282082E0,8.397622705E-1,7.626428008E-1
2.165929954E0,3.016669273E0,7.737907767E-1,5.938962698E-1
2.175641361E0,2.808981180E0,6.332958937E-1,4.143071473E-1
2.185353600E0,2.537765026E0,3.742966652E-1,2.640387416E-1
2.195066569E0,2.234784603E0,-7.040014863E-2,2.127275616E-1
2.204778704E0,1.752215385E0,-5.236487985E-1,2.774773538E-1
2.214490111E0,1.049588323E0,-9.390249252E-1,3.837648034E-1
2.224202350E0,2.848075330E-1,-1.337297320E0,4.656183124E-1
2.233915319E0,-4.677563012E-1,-1.622104883E0,5.254813433E-1
2.243627454E0,-1.219098449E0,-1.714953661E0,5.816792846E-1
2.253338861E0,-1.944784999E0,-1.515817523E0,5.877877474E-1
2.263051100E0,-2.580066204E0,-9.940012097E-1,4.204156399E-1
2.272764069E0,-2.995442152E0,-3.623851240E-1,5.635065958E-2
2.282476204E0,-3.144489050E0,1.898207814E-1,-3.944546282E-1
2.292187611E0,-3.150597334E0,5.209000111E-1,-7.780666947E-1
2.301899850E0,-3.165257692E0,5.502206683E-1,-9.869764447E-1
2.311612819E0,-3.313082933E0,3.229855001E-1,-9.930849075E-1
2.321324954E0,-3.617437363E0,-1.571404636E-1,-8.391514421E-1
2.331036309E0,-3.972950459E0,-9.402466416E-1,-6.400152445E-1
2.340748548E0,-4.195299149E0,-1.802915692E0,-4.066715539E-1
2.350461569E0,-4.285704136E0,-2.388107300E0,-7.559234649E-2
2.360173652E0,-4.263713837E0,-2.418649673E0,3.031329513E-1
2.369885059E0,-4.075572968E0,-1.741830945E0,6.659762263E-1
2.379597298E0,-3.698069334E0,-7.411104441E-1,9.080244303E-1
2.389310267E0,-3.295979023E0,1.971509457E-1,8.066238165E-1
2.399022402E0,-3.182361603E0,5.844281316E-1,2.579302490E-1
2.408733809E0,-3.337516785E0,9.330692142E-2,-3.797942698E-1
2.418446048E0,-3.459686279E0,-6.714738607E-1,-7.548545003E-1
2.428159017E0,-3.377832651E0,-1.052642584E0,-7.218687534E-1
2.437871152E0,-3.066300631E0,-9.280297160E-1,-3.846810758E-1
2.447582559E0,-2.610608578E0,-5.627430081E-1,-4.138490185E-2
2.457294798E0,-2.207449198E0,-2.243336588E-1,1.027750522E-1
2.467007767E0,-1.898360610E0,3.466558084E-2,8.444963396E-2
2.476719902E0,-1.616149187E0,2.484621257E-1,2.825168520E-2
2.486431309E0,-1.344932914E0,5.318952799E-1,-1.328592747E-2
2.496143548E0,-1.049282908E0,8.825215697E-1,3.817795310E-3
2.505856517E0,-6.876612902E-1,1.225817680E0,3.924693540E-2
2.515568652E0,-2.930539846E-1,1.446944475E0,5.512896553E-2
2.525280007E0,8.689302206E-2,1.533684731E0,3.313846514E-2
2.534992246E0,4.350759685E-1,1.533684731E0,-5.955760833E-3
2.544705215E0,7.624900937E-1,1.494590521E0,6.261184346E-3
2.554417350E0,1.088682532E0,1.413958669E0,1.076618284E-1
2.564128757E0,1.408766508E0,1.282015681E0,2.628170252E-1
2.573840996E0,1.711746693E0,1.126860499E0,4.204156399E-1
2.583553965E0,1.951351523E0,9.851438999E-1,5.157077909E-1
2.593266100E0,2.082072973E0,7.957812548E-1,5.584670901E-1
2.602977507E0,2.106506824E0,5.245651007E-1,5.523586273E-1
2.612689746E0,2.101619959E0,2.154763639E-1,5.157077909E-1
2.622402715E0,2.155374527E0,-7.162184268E-2,4.949389994E-1
2.632114850E0,2.248223305E0,-1.437018216E-1,5.389199853E-1
2.641826257E0,2.310529709E0,6.887302548E-2,6.134433746E-1
2.651538496E0,2.264105320E0,3.865135908E-1,5.767925382E-1
2.661251465E0,2.025874853E0,6.503996253E-1,3.214583695E-1
2.670963600E0,1.716633558E0,5.441122055E-1,-4.993676394E-2
2.680675007E0,1.395327806E0,3.596363366E-1,-4.701996744E-1
2.690387142E0,1.165649295E0,9.765920639E-1,-9.588775039E-1
2.700100215E0,7.710419297E-1,1.643637300E0,-1.376697063E0
2.709812350E0,3.568875194E-1,1.627755284E0,-1.493979692E0
2.719523704E0,3.715478480E-1,2.619007528E-1,-1.233758807E0
2.729235944E0,4.546230733E-1,-1.517039180E0,-6.839962006E-1
2.738948913E0,3.605526090E-1,-2.791266441E0,1.491994411E-1
2.748661048E0,4.081986845E-1,-2.294036865E0,8.225058317E-1
2.758372454E0,8.956547976E-1,-1.119835734E0,1.152363300E0
2.768084694E0,1.501615286E0,-5.334223509E-1,1.079061627E0
2.777797663E0,1.984337330E0,-4.772244096E-1,5.853443742E-1
2.787509798E0,2.193247080E0,-7.215633392E-1,5.146388337E-2
2.797221204E0,2.268992186E0,-9.536852837E-1,-2.759502530E-1
2.806933444E0,2.422925711E0,-1.034317136E0,-4.030064642E-1
2.816646413E0,2.692920208E0,-8.021951914E-1,-3.174878657E-1
2.826358548E0,3.025221109E0,-5.150969625E-1,-7.681404054E-2
2.836069954E0,3.168159246E0,-2.609844804E-1,2.151709497E-1
2.845782194E0,3.093636036E0,3.588727489E-2,4.741701782E-1
2.855495163E0,2.943367481E0,3.388675153E-1,7.015580535E-1
2.865207298E0,2.797985792E0,6.332958937E-1,8.628217578E-1
2.874918704E0,2.692920208E0,8.373188972E-1,8.762603998E-1
2.884630944E0,2.628170252E0,9.961391687E-1,7.003363967E-1
2.894343913E0,2.562198877E0,1.057223916E0,3.544441164E-1
2.904056048E0,2.506000996E0,8.299887180E-1,2.702999115E-2
2.913767454E0,2.377722979E0,4.463766217E-1,-1.806580722E-1
2.923479694E0,2.023431540E0,1.104106456E-1,-2.136438340E-1
2.933192663E0,1.282931924E0,-2.206685692E-1,-5.115845799E-2
2.942904798E0,2.066190839E-1,-6.311579347E-1,2.163926363E-1
2.952616152E0,-8.819107413E-1,-9.475768209E-1,4.595098495E-1
2.962328392E0,-1.799403310E0,-1.084406614E0,6.232169271E-1
2.972041413E0,-2.522646427E0,-1.140604496E0,6.623111367E-1
2.981753548E0,-3.046753407E0,-1.095401883E0,4.827220440E-1
2.991464902E0,-3.365615606E0,-9.023740888E-1,9.544488788E-2
3.001177142E0,-3.456021070E0,-6.714738607E-1,-4.176668227E-1
3.010890111E0,-3.484120131E0,-5.566345453E-1,-8.611419201E-1
3.020602350E0,-3.586742401E0,-6.152759194E-1,-1.071273327E0
3.030313652E0,-3.618659258E0,-8.192988634E-1,-1.021183848E0
3.040025892E0,-3.606442213E0,-1.072189689E0,-7.744016051E-1
3.049738861E0,-3.657753468E0,-1.130831003E0,-4.689779878E-1
3.059450996E0,-3.811686993E0,-8.241856694E-1,-5.360184610E-2
3.069162402E0,-4.093898296E0,-3.513898849E-1,5.877877474E-1
3.078874642E0,-4.377331257E0,-1.437018216E-1,1.303853512E0
3.088587611E0,-4.424977779E0,-3.293993771E-1,1.758323789E0
3.098299746E0,-4.090233326E0,-4.845545888E-1,1.704569221E0
3.108011152E0,-3.536652803E0,-4.637857676E-1,1.099830508E0
3.117723392E0,-3.019876242E0,-4.662291706E-1,2.371614426E-1
3.127436361E0,-2.661919594E0,-2.756448388E-1,-4.946335554E-1
3.137148496E0,-2.466448545E0,2.105895877E-1,-8.892409205E-1
3.146859902E0,-2.329618692E0,7.835643291E-1,-9.173398614E-1
3.156572142E0,-2.119487286E0,1.228261113E0,-6.290199757E-1
3.166285111E0,-1.811620235E0,1.387081385E0,-1.940967143E-1
3.175997246E0,-1.528187156E0,1.214822531E0,1.699682474E-1
3.185708652E0,-1.298508525E0,8.373188972E-1,2.823641598E-1
3.195420892E0,-1.094485521E0,5.648810267E-1,2.457133085E-1
3.205133861E0,-8.403730989E-1,5.465555787E-1,1.430909634E-1
3.214845996E0,-4.799732268E-1,6.797202826E-1,2.092151903E-2
3.224557402E0,-5.726693198E-2,8.006680608E-1,-9.513945878E-2
3.234269642E0,3.446705639E-1,8.605310917E-1,-2.148655206E-1
3.243982611E0,6.977402568E-1,8.996253014E-1,-3.101576865E-1
3.253694746E0,1.043479800E0,9.839222431E-1,-3.394783735E-1
3.263406152E0,1.400214672E0,1.148851037E0,-2.710634768E-1
3.273118392E0,1.749771953E0,1.293010950E0,-9.147437662E-2
3.282831361E0,2.019766569E0,1.327218413E0,1.394258887E-1
3.292543496E0,2.165148020E0,1.142742515E0,3.495573401E-1
3.302254902E0,2.195690393E0,7.505785823E-1,4.619532526E-1
3.311967142E0,2.174921751E0,2.655658424E-1,4.607315361E-1
3.321680111E0,2.209129095E0,-1.840177327E-1,3.935383558E-1
3.331392246E0,2.342293739E0,-4.625640810E-1,3.556658030E-1
3.341103652E0,2.514552832E0,-3.880407214E-1,4.399627447E-1
3.350815892E0,2.593962908E0,7.986827940E-2,5.890094638E-1
3.360528861E0,2.466906548E0,5.966450572E-1,5.914528370E-1
3.370240996E0,2.156596184E0,5.441122055E-1,3.800997138E-1
3.379952402E0,1.592020631E0,-8.093725890E-3,2.947338112E-2
3.389664642E0,1.087460876E0,1.495048702E-1,-4.494308829E-1
3.399377611E0,1.049588323E0,7.860077024E-1,-8.538117409E-1
3.409089746E0,1.304922462E0,1.393189907E0,-1.012632012E0
3.418801152E0,1.347681761E0,1.914853454E0,-1.034622550E0
3.428513392E0,1.056918502E0,8.959602118E-1,-1.026070714E0
3.438226361E0,3.788780272E-1,-1.274990916E0,-8.403730989E-1
3.447938496E0,-1.940967143E-1,-2.561588049E0,-4.372139275E-1
3.457649902E0,1.418692768E-1,-2.103452444E0,-1.452289373E-1
3.467362142E0,9.103151560E-1,-9.927794933E-1,3.617742956E-1
3.477075111E0,1.655548811E0,-4.503471553E-1,7.101099491E-1
3.486787246E0,2.031983376E0,-7.765395641E-1,5.816792846E-1
3.496498652E0,1.890266895E0,-1.598892689E0,2.872509360E-1
3.506210892E0,1.513832211E0,-2.185306072E0,2.092151903E-2
3.515923861E0,1.337908268E0,-2.246390820E0,-1.049130186E-1
3.525635996E0,1.479624748E0,-1.794363856E0,-6.826218218E-2
3.535347402E0,1.832847238E0,-1.138161182E0,6.978929788E-2
3.545059642E0,2.301977873E0,-5.847335458E-1,2.139492482E-1
3.554772611E0,2.746674776E0,-7.162184268E-2,2.664821148E-1
3.564484746E0,3.025221109E0,4.622586668E-1,2.701472044E-1
3.574196152E0,3.108296394E0,8.409839869E-1,2.945810854E-1
3.583908392E0,3.027664423E0,1.007134438E0,3.312319219E-1
3.593621413E0,2.872509241E0,1.082879424E0,3.361186981E-1
3.603333496E0,2.765000105E0,1.093874693E0,2.945810854E-1
3.613044902E0,2.670929670E0,1.063332319E0,2.481566966E-1
3.622757142E0,2.502335787E0,9.790354371E-1,2.933593988E-1
3.632470111E0,2.320303202E0,6.919372082E-1,4.057552814E-1
3.642182350E0,2.006327868E0,3.388675153E-1,5.242596865E-1
3.651893652E0,1.506502032E0,1.091889441E-1,6.146650314E-1
3.661605892E0,9.078717232E-1,7.788302377E-3,6.746807694E-1
3.671318913E0,2.188360244E-1,-1.786728203E-2,6.930062175E-1
3.681031048E0,-5.496098399E-1,-5.940489471E-2,6.685723066E-1
3.690742402E0,-1.343711257E0,-1.339282542E-1,5.535803437E-1
3.700454694E0,-2.092609882E0,-1.840177327E-1,3.434488773E-1
3.710167663E0,-2.743773222E0,-2.084516287E-1,5.635065958E-2
3.719879798E0,-3.242224455E0,-2.170034945E-1,-2.735068500E-1
3.729591204E0,-3.574525356E0,-1.779092699E-1,-5.716003180E-1
3.739303444E0,-3.790918112E0,-1.058292910E-1,-7.829535007E-1
3.749016413E0,-3.982724190E0,-7.284353673E-2,-8.953493834E-1
3.758728548E0,-4.119554043E0,-1.998997629E-1,-9.600991607E-1
3.768439954E0,-4.216067791E0,-5.395308137E-1,-1.029735804E0
3.778152194E0,-4.311359882E0,-9.817842841E-1,-9.845330715E-1
3.787865163E0,-4.357784271E0,-1.406933904E0,-7.243121266E-1
3.797577298E0,-4.363893032E0,-1.846896648E0,-2.454078794E-1
3.807288704E0,-4.366336346E0,-2.157207012E0,4.081986845E-1
3.817000944E0,-4.283260822E0,-2.099787474E0,1.031415582E0
3.826713913E0,-4.156204700E0,-1.293316364E0,1.197566032E0
3.836426048E0,-4.035256863E0,-4.466820657E-1,9.874345660E-1
3.846137454E0,-3.745715380E0,-1.449235082E-1,5.792359114E-1
3.855849694E0,-3.383941174E0,-1.131594554E-1,1.052184403E-1
3.865562663E0,-3.115168333E0,-6.551336497E-2,-1.867665499E-1
3.875274798E0,-2.892819881E0,9.941539168E-2,-2.026485801E-1
3.884986204E0,-2.630155563E0,3.009949923E-1,-3.038965166E-2
3.894698444E0,-2.308849812E0,4.488200247E-1,1.748550236E-1
3.904411413E0,-1.977770686E0,5.477772951E-1,3.129065037E-1
3.914123548E0,-1.672347069E0,6.503996253E-1,3.495573401E-1
3.923834954E0,-1.358371615E0,7.689039707E-1,3.006895781E-1
3.933547194E0,-9.796462655E-1,8.971819282E-1,2.273878902E-1
3.943260163E0,-5.202891231E-1,1.095096469E0,1.357607991E-1
3.952972298E0,-1.084253844E-2,1.383416295E0,1.969982497E-2
3.962683704E0,5.083776116E-1,1.665627718E0,-9.269607067E-2
3.972395944E0,1.009272337E0,1.889197826E0,-1.488940120E-1
3.982108913E0,1.488176584E0,1.989376783E0,-1.097997949E-1
3.991821048E0,1.935469508E0,1.931957126E0,2.092151903E-2
4.001532454E0,2.286095858E0,1.758476496E0,2.115058601E-1
4.011244694E0,2.469350100E0,1.473821759E0,3.984251320E-1
4.020957715E0,2.481566906E0,1.058445573E0,5.303681493E-1
4.030669850E0,2.369171143E0,5.832064152E-1,5.780141950E-1
4.040381204E0,2.238449812E0,1.226275861E-1,5.340332389E-1
4.050093444E0,2.189582109E0,-2.133384049E-1,4.277457893E-1
4.059806465E0,2.259218693E0,-2.817533016E-1,3.300102353E-1
4.069518600E0,2.426590681E0,-1.339282542E-1,2.958027720E-1
4.079230007E0,2.603736401E0,6.276455522E-2,3.067980409E-1
4.088942246E0,2.652604103E0,8.719844371E-2,2.811424434E-1
4.098655215E0,2.548760176E0,-1.937913001E-1,1.931804419E-1
4.108367350E0,2.286095858E0,-4.002576768E-1,6.261184346E-3
4.118078757E0,1.884158373E0,3.466558084E-2,-3.492519259E-1
4.127790996E0,1.402657986E0,4.109475017E-1,-7.768449783E-1
4.137503965E0,7.466080785E-1,5.954233408E-1,-1.110367656E0
4.147216100E0,1.491994411E-1,4.321744293E-2,-1.182447553E0
4.156927507E0,-3.161134571E-2,-1.613553047E0,-1.015075445E0
4.166639746E0,9.422318637E-2,-2.179197550E0,-6.094728708E-1
4.176352715E0,6.464291215E-1,-1.530477762E0,2.336490713E-2
4.186064850E0,1.460077643E0,-3.733803928E-1,7.174401283E-1
4.195776257E0,2.152931213E0,4.964661002E-1,1.087613583E0
4.205488496E0,2.366727591E0,1.409530044E-1,9.349017143E-1
4.215201465E0,2.161483049E0,-1.207797766E0,4.460712075E-1
4.224913600E0,1.614011168E0,-2.146211863E0,-1.572931744E-2
4.234625007E0,1.248724461E0,-2.136438370E0,-2.319692522E-1
4.244337246E0,1.477181435E0,-1.592784286E0,-1.806580722E-1
4.254050215E0,1.984337330E0,-8.473978639E-1,-1.068982761E-3
4.263762350E0,2.465684891E0,-3.000787199E-1,1.834068894E-1
4.273473757E0,2.860292196E0,6.566607859E-3,2.432699203E-1
4.283185996E0,3.138838530E0,3.034383655E-1,1.895153672E-1
4.292898965E0,3.265894890E0,5.868715048E-1,1.333174109E-1
4.302611100E0,3.236574173E0,7.713474035E-1,9.422318637E-2
4.312322507E0,3.082640648E0,8.996253014E-1,3.191677108E-2
4.322034746E0,2.903051615E0,9.851438999E-1,-8.399149403E-3
4.331747715E0,2.796764135E0,1.069440842E0,3.191677108E-2
4.341459850E0,2.828528166E0,1.046228647E0,1.931804419E-1
4.351171257E0,2.933593988E0,7.163711190E-1,4.094203711E-1
4.360883496E0,2.713688850E0,2.411319613E-1,5.987830162E-1
4.370596517E0,1.991667509E0,-7.650861889E-2,6.905628443E-1
4.380308652E0,1.055696726E0,-2.096733153E-1,7.394306064E-1
4.390020007E0,8.078455180E-2,-3.416163325E-1,7.834116220E-1
4.399732246E0,-8.696937561E-1,-5.505260825E-1,7.944068313E-1
4.409445267E0,-1.722436547E0,-6.995728016E-1,6.942279339E-1
4.419157402E0,-2.393146753E0,-6.555918455E-1,4.081986845E-1
4.428868757E0,-2.902593374E0,-3.758237660E-1,-1.206423342E-2
4.438581048E0,-3.281318665E0,3.100049868E-2,-4.188885093E-1
4.448294017E0,-3.595294237E0,3.278722763E-1,-7.084301114E-1
4.458006152E0,-3.908200741E0,2.716743052E-1,-8.599202037E-1
4.467717559E0,-4.283260822E0,-2.719797492E-1,-9.100096822E-1
4.477429798E0,-4.793929100E0,-1.257887244E0,-8.464815617E-1
4.487142767E0,-5.164102554E0,-2.422314882E0,-6.510104537E-1
4.496854902E0,-5.121343613E0,-3.183430433E0,-4.017847776E-1
4.506566309E0,-4.825693130E0,-3.201756001E0,-1.084253844E-2
4.516278548E0,-4.506831169E0,-2.664210320E0,6.366555691E-1
4.525991517E0,-4.308916569E0,-1.812689185E0,1.405254126E0
4.535703652E0,-4.167200089E0,-6.348230243E-1,1.959903479E0
4.545415059E0,-4.109780312E0,5.477772951E-1,1.967233539E0
4.555127298E0,-4.223397732E0,9.985825419E-1,1.450456858E0
4.564840267E0,-4.219732761E0,5.221216679E-1,6.317687631E-1
4.574552402E0,-3.931412935E0,-9.239064902E-2,-1.965401024E-1
4.584263809E0,-3.482898474E0,-3.367295563E-1,-6.534538269E-1
4.593976048E0,-3.051640272E0,-1.070509851E-1,-6.876612902E-1
4.603689017E0,-2.625268698E0,3.865135908E-1,-5.105155706E-1
4.613401152E0,-2.194010735E0,8.360971808E-1,-2.380777150E-1
4.623112559E0,-1.829945683E0,1.097539783E0,6.490252167E-2
4.632824798E0,-1.539182425E0,1.154959440E0,2.457133085E-1
4.642537767E0,-1.280183196E0,1.106091619E0,2.970244884E-1
4.652249902E0,-9.845330715E-1,1.154959440E0,2.664821148E-1
4.661961309E0,-5.996993184E-1,1.304006219E0,1.834068894E-1
4.671673548E0,-1.659977436E-1,1.367534280E0,9.666658193E-2
4.681386517E0,2.701472044E-1,1.283237338E0,-1.328592747E-2
4.691098652E0,7.099572420E-1,1.112200141E0,-1.244601309E-1
4.700810059E0,1.157097459E0,9.350544214E-1,-1.977618039E-1
4.710522298E0,1.601794243E0,8.104416132E-1,-2.124221325E-1
4.720235267E0,2.000219345E0,8.031114340E-1,-1.635543555E-1
4.729947402E0,2.306864738E0,8.764131069E-1,-4.749337584E-2
4.739658809E0,2.454689741E0,9.350544214E-1,1.296523362E-1
4.749371048E0,2.476680279E0,8.764131069E-1,3.177932799E-1
4.759084017E0,2.432699203E0,6.528429985E-1,4.448495209E-1
4.768796152E0,2.380166292E0,3.620797098E-1,5.120427012E-1
4.778507559E0,2.400935173E0,8.719844371E-2,5.706840754E-1
4.788219798E0,2.466906548E0,-6.872031838E-3,6.525375843E-1
4.797932767E0,2.493783951E0,9.086353332E-2,7.174401283E-1
4.807644902E0,2.471793413E0,2.203631550E-1,7.101099491E-1
4.817356309E0,2.376501322E0,2.704526186E-1,5.963396430E-1
4.827068548E0,1.891488552E0,-7.284353673E-2,3.593308926E-1
4.836781517E0,8.614473343E-1,-5.615213513E-1,-1.647760421E-1
4.846493652E0,5.291464329E-1,-2.927485406E-1,-7.719582319E-1
4.856205059E0,1.107007980E0,5.355603099E-1,-1.151905179E0
4.865917298E0,1.769319057E0,1.702278614E0,-1.396244168E0
4.875630267E0,2.282430887E0,2.177517653E0,-1.520856977E0
4.885342402E0,2.078407764E0,4.023956358E-1,-1.452442050E0
4.895053809E0,3.336753249E-1,-2.201188087E0,-9.075663090E-1
4.904766048E0,-5.728220344E-1,-2.636111259E0,-5.044071078E-1
4.914479017E0,8.444963396E-2,-1.283542752E0,5.024218559E-2
4.924191152E0,1.114338160E0,-1.498102844E-1,8.493831158E-1
4.933902559E0,2.088181257E0,4.199574888E-2,1.174353838E0
4.943614798E0,2.470571756E0,-6.470399499E-1,9.593356252E-1
4.953327767E0,2.237228155E0,-1.663642526E0,4.631749392E-1
4.963039902E0,1.870719671E0,-2.274489880E0,-5.604523420E-2
4.972751309E0,1.879271626E0,-1.982504725E0,-3.223746419E-1
4.982463548E0,2.198133945E0,-1.157708287E0,-2.649549842E-1
4.992176517E0,2.565863848E0,-4.222481549E-1,-3.894151375E-2
5.001888652E0,2.877396107E0,-3.206948051E-3,1.101052165E-1
5.011600059E0,3.061871767E0,2.435753495E-1,4.413371533E-2
5.021312298E0,3.187706470E0,3.950654566E-1,-1.464506239E-1
5.031025267E0,3.263451576E0,4.695888162E-1,-3.064926267E-1
5.040737402E0,3.215805292E0,5.819846988E-1,-3.834593594E-1
5.050448809E0,3.044768095E0,7.224795818E-1,-4.066715539E-1
5.060161048E0,2.848075390E0,8.312104344E-1,-3.443651497E-1
5.069874017E0,2.651382446E0,6.907155514E-1,-1.269035190E-1
5.079586152E0,2.402156830E0,2.105895877E-1,2.225011140E-1
5.089297559E0,2.014879704E0,-3.843756318E-1,5.829010010E-1
5.099009798E0,1.420983434E0,-8.351809382E-1,8.567132950E-1
5.108722767E0,7.014053464E-1,-1.001331329E0,1.026528835E0
5.118434902E0,-7.925742865E-2,-9.500201941E-1,1.057071209E0
5.128146309E0,-8.599202037E-1,-8.926005363E-1,9.373451471E-1
5.137858548E0,-1.563616276E0,-9.268079996E-1,7.198835015E-1
5.147571517E0,-2.197675705E0,-9.121476412E-1,4.656183124E-1
5.157283652E0,-2.753546715E0,-7.093463540E-1,2.469350100E-1
5.166995059E0,-3.166479588E0,-4.650074840E-1,7.834116369E-2
5.176707298E0,-3.430365562E0,-3.232909143E-1,-5.604523420E-2
5.186420267E0,-3.613772392E0,-3.245126009E-1,-1.623326540E-1
5.196132402E0,-3.819017172E0,-4.173613787E-1,-1.684411317E-1
5.205843809E0,-4.052360535E0,-5.163186193E-1,-6.215370819E-2
5.215556048E0,-4.194077492E0,-6.055023670E-1,7.467607409E-2
5.225269017E0,-4.269822121E0,-6.812474132E-1,2.457133085E-1
5.234981152E0,-4.400543690E0,-7.459971905E-1,5.169295073E-1
5.244692559E0,-4.543481827E0,-9.145910740E-1,8.225058317E-1
5.254404798E0,-4.632665634E0,-1.172368646E0,1.123042703E0
5.264117767E0,-4.483618736E0,-1.034317136E0,1.363716483E0
5.273829902E0,-4.190412045E0,-2.157817930E-1,1.358829737E0
5.283541309E0,-3.944851637E0,5.636593103E-1,1.065623045E0
5.293253548E0,-3.727390051E0,7.175928354E-1,6.171084642E-1
5.302966517E0,-3.568417072E0,3.205420971E-1,1.882936656E-1
5.312678652E0,-3.447469234E0,-1.815743446E-1,-5.726693198E-2
5.322390059E0,-3.269101858E0,-3.452814221E-1,-3.649812192E-2
5.332102298E0,-2.978338480E0,-1.754658818E-1,1.748550236E-1
5.341815267E0,-2.637485743E0,1.934858710E-1,4.570664763E-1
5.351527402E0,-2.262425423E0,5.770979524E-1,6.427640319E-1
5.361238809E0,-1.872704983E0,8.263236284E-1,6.219952106E-1
5.370951048E0,-1.475654244E0,9.668185115E-1,4.045335948E-1
5.380664017E0,-1.019962192E0,1.106091619E0,1.467560530E-1
5.390376152E0,-5.068505406E-1,1.269798756E0,-7.681404054E-2
5.400087559E0,1.481304597E-2,1.402963400E0,-2.515163720E-1
5.409799798E0,5.181511641E-1,1.462826490E0,-3.700207174E-1
5.419512767E0,9.921686649E-1,1.486038685E0,-4.408790171E-1
5.429224902E0,1.434422135E0,1.533684731E0,-4.506525695E-1
5.438936309E0,1.857281089E0,1.603321314E0,-3.859027624E-1
5.448648548E0,2.250666618E0,1.727934241E0,-2.539597452E-1
5.458361517E0,2.543873310E0,1.854990363E0,-8.780929446E-2
5.468073652E0,2.669708014E0,1.885532737E0,7.711946964E-2
5.477785059E0,2.639165640E0,1.736486077E0,2.041756958E-1
5.487497298E0,2.534099817E0,1.380972981E0,2.383831441E-1
5.497210267E0,2.447359562E0,8.666395545E-1,1.882936656E-1
5.506922402E0,2.490118742E0,3.107685447E-1,1.467560530E-1
5.516633809E0,2.670929670E0,3.344388679E-2,2.359397560E-1
5.526346048E0,2.883504391E0,1.934858710E-1,4.240806997E-1
5.536059017E0,2.973909855E0,6.003101468E-1,5.731274486E-1
5.545771152E0,2.915268660E0,9.546015263E-1,4.900522232E-1
5.555482559E0,2.608623266E0,1.012021184E0,2.017323077E-1
5.565194798E0,1.709303379E0,6.320741773E-1,-2.124221325E-1
5.574907767E0,6.659762263E-1,4.647020400E-1,-7.438592315E-1
5.584619902E0,2.774773538E-1,9.546015263E-1,-1.089598775E0
5.594331309E0,3.471139669E-1,1.806122661E0,-1.195886254E0
5.604043548E0,5.157077909E-1,2.544026136E0,-1.142131686E0
5.613756517E0,8.528954983E-1,1.584995866E0,-9.112313986E-1
5.623468652E0,8.321266770E-1,-8.302941322E-1,-5.276193023E-1
5.633180059E0,3.910949528E-1,-2.513942003E0,-8.903098851E-2
5.642892298E0,1.357607991E-1,-2.141324997E0,2.970244884E-1
5.652605267E0,2.799207568E-1,-1.450914979E0,5.767925382E-1
5.662317402E0,6.219952106E-1,-1.826127887E0,4.631749392E-1
5.672028809E0,8.736643195E-1,-2.537154198E0,-3.771981969E-2
5.681741048E0,1.179087877E0,-2.863346577E0,-4.188885093E-1
5.691454017E0,1.721520305E0,-2.753394127E0,-4.885250926E-1
5.701166152E0,2.209129095E0,-2.163315535E0,-2.832804024E-1
5.710877559E0,2.464463234E0,-1.394716978E0,1.125486046E-1
5.720589798E0,2.634278774E0,-7.924215794E-1,5.132644176E-1
5.730302767E0,2.850518703E0,-2.609844804E-1,7.027797699E-1
5.740014902E0,3.080197334E0,2.411319613E-1,7.027797699E-1
5.749726309E0,3.239017487E0,5.221216679E-1,6.623111367E-1
5.759438548E0,3.258564711E0,5.037962794E-1,6.183301210E-1
5.769151517E0,3.168159246E0,3.901786804E-1,5.731274486E-1
5.778863652E0,3.098522663E0,4.940227270E-1,5.169295073E-1
5.788575059E0,3.115626335E0,9.216157794E-1,4.155288339E-1
5.798287298E0,3.149833918E0,1.384638071E0,2.677038014E-1
5.808000267E0,3.082640648E0,1.487260342E0,1.430909634E-1
5.817712402E0,2.738122940E0,1.086544514E0,6.001574174E-2
5.827423809E0,2.071077585E0,4.292729199E-1,2.214321308E-2
5.837136048E0,1.225512266E0,-1.901262105E-1,5.879404768E-2
5.846849017E0,3.300102353E-1,-6.409314871E-1,1.760767251E-1
5.856561152E0,-5.850389600E-1,-7.875348330E-1,3.336753249E-1
5.866272559E0,-1.503753185E0,-6.433748603E-1,4.717268050E-1
5.875984798E0,-2.340614080E0,-4.393518865E-1,4.863871336E-1
5.885697767E0,-2.988111973E0,-3.672719002E-1,3.263451457E-1
5.895409902E0,-3.418148518E0,-4.332434237E-1,4.657710344E-2
5.905121257E0,-3.689517498E0,-5.774033666E-1,-2.539597452E-1
5.914833548E0,-3.880101681E0,-8.339592218E-1,-4.628695250E-1
5.924546517E0,-4.085346699E0,-1.294538021E0,-5.031854510E-1
5.934258652E0,-4.384661674E0,-1.901872993E0,-4.115583301E-1
5.943970059E0,-4.654655933E0,-2.423536539E0,-2.515163720E-1
5.953682194E0,-4.713297367E0,-2.549371004E0,-1.084253844E-2
5.963395267E0,-4.668094635E0,-2.058249950E0,4.301891923E-1
5.973107402E0,-4.719406128E0,-9.842276573E-1,9.923213720E-1
5.982818757E0,-4.765830517E0,-1.021642014E-1,1.467560530E0
5.992530996E0,-4.504387856E0,3.193204105E-1,1.721673012E0
6.002244017E0,-4.113445282E0,8.935168386E-1,1.654479742E0
6.011956152E0,-3.845894337E0,1.211157441E0,1.283084631E0
6.021667507E0,-3.535431147E0,7.970029712E-1,7.162184119E-1
6.031379746E0,-3.173809528E0,2.606790662E-1,2.151709497E-1
6.041092767E0,-2.906258583E0,1.409530044E-1,-3.894151375E-2
6.050804902E0,-2.675358295E0,4.671454430E-1,-7.803573459E-2
6.060516257E0,-2.409028769E0,9.423846006E-1,1.847812906E-2
6.070228496E0,-2.117043972E0,1.290567517E0,1.663031727E-1
6.079941517E0,-1.825058937E0,1.394411564E0,2.530434728E-1
6.089653600E0,-1.551399350E0,1.267355323E0,2.163926363E-1
6.099365007E0,-1.294843435E0,1.062110662E0,9.910997003E-2
6.109077246E0,-9.845330715E-1,9.277243018E-1,-1.695101149E-2
6.118790215E0,-5.752654076E-1,8.727480173E-1,-1.110214889E-1
6.128502350E0,-1.122431830E-1,8.666395545E-1,-1.769929975E-1
6.138213757E0,3.593308926E-1,8.739697337E-1,-2.331909388E-1
6.147925996E0,7.954758406E-1,8.544226289E-1,-2.747285664E-1
6.157638965E0,1.219403863E0,8.079982400E-1,-2.808370292E-1
6.167351100E0,1.671430826E0,8.177717924E-1,-2.539597452E-1
6.177062507E0,2.118723631E0,9.301676750E-1,-1.769929975E-1
6.186774746E0,2.464463234E0,1.118308663E0,-6.093201414E-2
6.196487715E0,2.652604103E0,1.245364904E0,5.024218559E-2
6.206199850E0,2.732014418E0,1.230704546E0,1.272089481E-1
6.215911257E0,2.783325434E0,1.109756708E0,1.772984117E-1
6.225623496E0,2.826084852E0,8.043331504E-1,2.163926363E-1
6.235336465E0,2.888391256E0,4.023956358E-1,2.567085624E-1
6.245048600E0,2.939702511E0,1.776038408E-1,3.532224298E-1
6.254760007E0,2.933593988E0,1.177408099E-1,4.949389994E-1
6.264472246E0,2.757669926E0,-4.963133857E-2,5.486935377E-1
6.274185215E0,2.381387949E0,-4.332434237E-1,3.544441164E-1
6.283897350E0,1.977007151E0,-6.580352187E-1,1.114796288E-2
6.293608757E0,1.566365123E0,5.176930502E-2,-4.286620617E-1
6.303320996E0,1.346460104E0,1.255138397E0,-9.515473247E-1
6.313033965E0,1.543152928E0,1.691283345E0,-1.272853017E0
6.322746100E0,1.508945465E0,1.930735469E0,-1.409682751E0
6.332457507E0,8.492304087E-1,1.445722699E0,-1.377918720E0
6.342169746E0,2.579302490E-1,-4.808894992E-1,-1.085933685E0
6.351882715E0,-1.794363856E-1,-2.363673449E0,-5.789304972E-1
6.361594850E0,4.046862945E-2,-2.502946615E0,-2.428117767E-2
6.371306257E0,9.713998437E-1,-1.260330558E0,4.631749392E-1
6.381018496E0,1.649440289E0,-2.194468826E-1,8.335011005E-1
6.390731465E0,1.981893897E0,-4.320217371E-1,7.296570539E-1
6.400443600E0,1.936691284E0,-1.503600478E0,2.322746664E-1
6.410155007E0,1.873163104E0,-2.335574389E0,-1.794363856E-1
6.419867142E0,1.946464777E0,-2.259829521E0,-2.490729690E-1
6.429580215E0,2.149266005E0,-1.630656719E0,-2.290677279E-3
6.439292350E0,2.315416574E0,-9.390249252E-1,3.556658030E-1
6.449003704E0,2.415595531E0,-4.601207078E-1,5.890094638E-1
6.458715944E0,2.536543131E0,-1.620272398E-1,6.171084642E-1
6.468428913E0,2.657490969E0,1.348445266E-1,5.474718809E-1
6.478141048E0,2.788212299E0,4.720322192E-1,4.924955964E-1
6.487852454E0,2.912825108E0,7.249229550E-1,4.741701782E-1
6.497564694E0,2.932372332E0,8.910734653E-1,4.485146105E-1
6.507277663E0,2.830971718E0,1.004691005E0,3.495573401E-1
6.516989798E0,2.641608953E0,1.019351363E0,2.005106062E-1
6.526701204E0,2.367949486E0,8.825215697E-1,1.211004704E-1
6.536413444E0,2.062525749E0,6.271874309E-1,1.357607991E-1
6.546126413E0,1.804748178E0,3.523061574E-1,2.542651594E-1
6.555838548E0,1.524827480E0,1.678302884E-1,4.167505503E-1
6.565549954E0,1.149767280E0,1.214058921E-1,5.181511641E-1
6.575262194E0,6.329904795E-1,8.108997345E-2,5.218162537E-1
6.584975163E0,-1.817270555E-2,-6.306997687E-2,4.692834020E-1
6.594687298E0,-7.401941419E-1,-2.756448388E-1,4.338542521E-1
6.604398704E0,-1.513526797E0,-4.625640810E-1,4.448495209E-1
6.614110944E0,-2.281972647E0,-5.541911721E-1,4.240806997E-1
6.623823913E0,-2.913588762E0,-5.541911721E-1,3.019112647E-1
6.633536048E0,-3.332629919E0,-5.615213513E-1,1.039967462E-1
6.643247454E0,-3.567195177E0,-6.372663975E-1,-8.903098851E-2
6.652959694E0,-3.755488873E0,-7.838697433E-1,-2.099787444E-1
6.662672663E0,-3.972950459E0,-1.190693974E0,-2.429644912E-1
6.672384798E0,-4.145209312E0,-1.887212634E0,-2.881672084E-1
6.682096204E0,-4.218511105E0,-2.472404242E0,-2.771719396E-1
6.691808444E0,-4.168421745E0,-2.545706034E0,-1.256818175E-1
6.701521413E0,-4.103672028E0,-2.049697876E0,1.797417998E-1
6.711233548E0,-4.147653103E0,-1.218793035E0,6.342121959E-1
6.720944954E0,-4.277152538E0,-4.161396921E-1,1.086391807E0
6.730657194E0,-4.394435406E0,3.828485310E-1,1.218334913E0
6.740370163E0,-4.423755646E0,8.800781965E-1,9.715525508E-1
6.750082298E0,-4.219732761E0,7.774558663E-1,5.621321797E-1
6.759793652E0,-3.839785814E0,3.852919042E-1,1.663031727E-1
6.769505944E0,-3.474346399E0,9.452861547E-2,-1.012479365E-1
6.779218913E0,-3.177474737E0,2.977880463E-2,-2.136438340E-1
6.788931048E0,-2.864720821E0,1.702736765E-1,-1.635543555E-1
6.798642402E0,-2.490882397E0,3.376458287E-1,1.725643501E-2
6.808354642E0,-2.120708942E0,5.050179958E-1,2.102841735E-1
6.818067611E0,-1.821393847E0,6.577298045E-1,3.263451457E-1
6.827779746E0,-1.607597232E0,7.127060294E-1,3.336753249E-1
6.837491152E0,-1.403574347E0,7.065975666E-1,2.933593988E-1
6.847203392E0,-1.128692985E0,7.151494026E-1,2.212794125E-1
6.856916361E0,-7.426375747E-1,7.689039707E-1,4.535540938E-2
6.866628496E0,-2.796153426E-1,8.617527485E-1,-1.855448484E-1
6.876339902E0,2.176143378E-1,9.924740791E-1,-3.614688516E-1
6.886052142E0,7.441646457E-1,1.135412335E0,-4.078932703E-1
6.895765111E0,1.318361044E0,1.307671309E0,-3.064926267E-1
6.905477246E0,1.911035657E0,1.510472536E0,-1.036913246E-1
6.915188652E0,2.381387949E0,1.677844763E0,1.162136942E-1
6.924900892E0,2.614731789E0,1.702278614E0,2.689255178E-1
6.934613861E0,2.602514744E0,1.493368864E0,3.324536085E-1
6.944325996E0,2.477901936E0,1.069440842E0,3.446705639E-1
6.954037402E0,2.358175755E0,4.952444136E-1,3.422271907E-1
6.963749642E0,2.310529709E0,-1.053711493E-2,3.593308926E-1
6.973462611E0,2.347180605E0,-2.023431510E-1,4.216373265E-1
6.983174746E0,2.422925711E0,-3.008422814E-2,5.376983285E-1
6.992886152E0,2.534099817E0,3.425326049E-1,6.024481058E-1
7.002598392E0,2.597627878E0,6.332958937E-1,5.205945969E-1
7.012311361E0,2.499892473E0,6.638382673E-1,2.603736520E-1
7.022023496E0,1.908592224E0,6.943806410E-1,-1.574458778E-1
7.031734902E0,9.921686649E-1,9.790354371E-1,-7.414158583E-1
7.041447142E0,6.549809575E-1,1.360204101E0,-1.187334418E0
7.051160111E0,5.596888065E-1,1.906301618E0,-1.379140377E0
7.060872246E0,4.778352678E-1,1.837886691E0,-1.363258362E0
7.070583652E0,6.720846891E-1,-1.786728203E-2,-1.145796776E0
7.080295892E0,6.207735538E-1,-2.711856365E0,-8.159392476E-1
7.090008861E0,2.298312783E-1,-4.109475136E0,-4.384356141E-1
7.099720996E0,2.347180545E-1,-3.237185001E0,2.458660305E-2
7.109432402E0,6.989619732E-1,-1.567128658E0,5.792359114E-1
7.119144642E0,1.313474298E0,-2.927485406E-1,8.530482054E-1
7.128857611E0,1.728850484E0,1.091889441E-1,6.452074051E-1
7.138569746E0,1.865832925E0,-3.208475113E-1,2.249445021E-1
7.148281100E0,1.858502746E0,-7.350019813E-1,-8.170082420E-2
7.157993340E0,1.955016613E0,-7.435538173E-1,-8.536590636E-2
7.167706361E0,2.194468737E0,-4.136963189E-1,1.540862173E-1
7.177418496E0,2.465684891E0,-7.635590737E-4,3.984251320E-1
7.187129850E0,2.652604103E0,1.336228400E-1,5.315898061E-1
7.196842090E0,2.752783060E0,9.086353332E-2,5.340332389E-1
7.206555059E0,2.775995255E0,1.152974218E-1,4.485146105E-1
7.216267194E0,2.788212299E0,3.425326049E-1,3.446705639E-1
7.225978600E0,2.822419643E0,7.249229550E-1,2.371614426E-1
7.235690840E0,2.857848883E0,9.594883323E-1,8.078455180E-2
7.245403809E0,2.889612913E0,9.252808690E-1,-1.244601309E-1
7.255115944E0,2.890834570E0,6.345176101E-1,-3.052709103E-1
7.264827350E0,2.856627226E0,1.617218107E-1,-3.419217467E-1
7.274539590E0,2.685590029E0,-3.147390485E-1,-2.454078794E-1
7.284252559E0,2.210350752E0,-5.407525301E-1,-4.871506989E-2
7.293964694E0,1.405101418E0,-3.831539452E-1,2.701472044E-1
7.303676100E0,4.399627447E-1,-1.681357026E-1,6.012263894E-1
7.313388340E0,-5.215108395E-1,-9.361234307E-2,8.090671897E-1
7.323101309E0,-1.373031974E0,-4.963133857E-2,7.895200849E-1
7.332813444E0,-2.038855553E0,1.267508045E-2,5.401417017E-1
7.342524850E0,-2.515316248E0,7.986827940E-2,1.589729935E-1
7.352237090E0,-2.850060701E0,1.641651988E-1,-2.490729690E-1
7.361950059E0,-3.098064661E0,3.303156495E-1,-5.996993184E-1
7.371662194E0,-3.383941174E0,4.341596961E-1,-8.244910836E-1
7.381373600E0,-3.794583082E0,2.191414535E-1,-8.806890249E-1
7.391085840E0,-4.293034554E0,-3.440597057E-1,-8.391514421E-1
7.400798809E0,-4.685198307E0,-1.033095479E0,-7.438592315E-1
7.410510944E0,-4.729179382E0,-1.699071646E0,-5.703786016E-1
7.420222350E0,-4.503166199E0,-2.296480179E0,-2.221956849E-1
7.429934590E0,-4.359005928E0,-2.553036213E0,3.080197275E-1
7.439647559E0,-4.410317421E0,-2.306253910E0,9.019159675E-1
7.449359694E0,-4.365114689E0,-1.699071646E0,1.306296825E0
7.459071100E0,-3.993719339E0,-8.351809382E-1,1.239103675E0
7.468783340E0,-3.715173006E0,-7.895200700E-2,7.956285477E-1
7.478496309E0,-3.634541273E0,4.321744293E-2,2.518217862E-1
7.488208444E0,-3.508553982E0,-2.096733153E-1,-1.904316396E-1
7.497919850E0,-3.249554634E0,-3.232909143E-1,-4.103366435E-1
7.507632090E0,-2.908701897E0,-1.595838517E-1,-3.284831047E-1
7.517345059E0,-2.551967144E0,1.971509457E-1,-7.192726433E-2
7.527057194E0,-2.226996422E0,5.123481154E-1,2.469350100E-1
7.536768600E0,-1.938676476E0,6.687250137E-1,4.717268050E-1
7.546480840E0,-1.660130143E0,6.161921620E-1,4.729484916E-1
7.556193809E0,-1.354706526E0,4.622586668E-1,3.373403847E-1
7.565905944E0,-9.857547879E-1,4.390464723E-1,1.760767251E-1
7.575617350E0,-5.544965863E-1,6.308525205E-1,2.596100792E-3
7.585329590E0,-9.636115283E-2,9.252808690E-1,-1.305686086E-1
7.595042559E0,3.605526090E-1,1.170841455E0,-2.270824611E-1
7.604754694E0,7.808154821E-1,1.299119353E0,-3.199312389E-1
7.614466048E0,1.152210593E0,1.344322085E0,-3.761292100E-1
7.624178288E0,1.477181435E0,1.341878772E0,-3.492519259E-1
7.633891309E0,1.771762490E0,1.291789293E0,-2.331909388E-1
7.643603444E0,2.027096510E0,1.170841455E0,-7.925742865E-2
7.653314798E0,2.210350752E0,1.025459886E0,7.956285775E-2
7.663027038E0,2.301977873E0,8.874083757E-1,2.017323077E-1
7.672740007E0,2.316638231E0,6.992673874E-1,2.835858464E-1
7.682452142E0,2.332520247E0,4.317162931E-1,3.385621011E-1
7.692163548E0,2.427812338E0,2.069245130E-1,4.069769979E-1
7.701875788E0,2.587854385E0,1.678302884E-1,5.621321797E-1
7.711588757E0,2.721019030E0,4.182776511E-1,7.064448595E-1
7.721300892E0,2.762556791E0,8.971819282E-1,7.040014863E-1
7.731012298E0,2.716132402E0,1.203827262E0,4.790569544E-1
7.740724538E0,2.469350100E0,1.023016453E0,1.870719790E-1
7.750437507E0,1.548039675E0,2.936648130E-1,-1.794363856E-1
7.760149642E0,5.938962698E-1,-1.656923145E-1,-5.862606764E-1
7.769861048E0,5.095993280E-1,3.083251417E-1,-7.035433054E-1
7.779573288E0,7.759287357E-1,1.253916740E0,-5.764871240E-1
7.789286257E0,1.028819442E0,1.444501042E0,-5.117372870E-1
7.798998392E0,1.300035715E0,4.500417113E-1,-6.571189165E-1
7.808709798E0,9.359707236E-1,-1.597671032E0,-6.473453641E-1
7.818422038E0,6.856760383E-2,-3.138227701E0,-5.459447503E-1
7.828135007E0,2.163926363E-1,-2.147433519E0,-4.347705245E-1
7.837847142E0,9.946120381E-1,-7.032378912E-1,9.300149232E-2
7.847558548E0,1.750993609E0,-3.746020794E-1,4.668400288E-1
7.857270684E0,2.111393452E0,-8.021951914E-1,2.664821148E-1
7.866983757E0,2.030761719E0,-1.507265568E0,-9.636115283E-2
7.876695892E0,1.836512327E0,-1.997165084E0,-2.991624475E-1
7.886407246E0,1.823073626E0,-1.965401053E0,-2.295258641E-1
7.896119486E0,1.934247851E0,-1.388608575E0,4.779879749E-2
7.905832507E0,2.038091898E0,-6.421532035E-1,3.727695346E-1
7.915544642E0,2.261662006E0,-5.573981255E-2,5.120427012E-1
7.925255996E0,2.582967520E0,4.207210541E-1,4.399627447E-1
7.934968236E0,2.900608301E0,8.141067028E-1,2.945810854E-1
7.944681204E0,3.144947052E0,1.087766290E0,1.760767251E-1
7.954393340E0,3.175489426E0,1.279572248E0,1.149920002E-1
7.964104746E0,3.003230572E0,1.312558055E0,8.811471611E-2
7.973816986E0,2.761335135E0,1.159846187E0,5.757235363E-2
7.983529954E0,2.513330936E0,8.654178381E-1,7.834116369E-2
7.993242090E0,2.272657156E0,5.245651007E-1,1.430909634E-1
8.002953496E0,2.052752256E0,1.763821393E-1,2.481566966E-1
8.012665736E0,1.801083088E0,-1.986780763E-1,3.556658030E-1
8.022378704E0,1.445417285E0,-4.210264683E-1,4.326325655E-1
8.032090840E0,9.152019024E-1,-4.259132445E-1,5.205945969E-1
8.041802246E0,1.577513069E-1,-3.721587062E-1,6.195518374E-1
8.051514486E0,-7.401941419E-1,-3.868190348E-1,6.734591126E-1
8.061227454E0,-1.596602082E0,-4.210264683E-1,6.354338527E-1
8.070939590E0,-2.312515020E0,-4.332434237E-1,4.888305068E-1
8.080650996E0,-2.864720821E0,-4.503471553E-1,2.652604282E-1
8.090363236E0,-3.258106470E0,-4.625640810E-1,1.969982497E-2
8.100076204E0,-3.537874699E0,-4.747810364E-1,-1.965401024E-1
8.109788340E0,-3.797026634E0,-5.615213513E-1,-3.370349705E-1
8.119499746E0,-4.102450371E0,-7.545490861E-1,-3.639122546E-1
8.129211986E0,-4.448189735E0,-1.138161182E0,-2.942756712E-1
8.138924954E0,-4.737731457E0,-1.751604557E0,-2.160872221E-1
8.148637090E0,-4.802481174E0,-2.291593552E0,-1.525591016E-1
8.158348444E0,-4.638773918E0,-2.433310032E0,4.169032723E-2
8.168060684E0,-4.456741810E0,-2.048476219E0,4.656183124E-1
8.177773704E0,-4.242945194E0,-1.293316364E0,9.874345660E-1
8.187485788E0,-3.882545233E0,-3.440597057E-1,1.267202616E0
8.197197194E0,-3.640649557E0,4.683671296E-1,1.153585076E0
8.206909434E0,-3.746937037E0,5.037962794E-1,8.347227573E-1
8.216622402E0,-3.876436710E0,-4.963133857E-2,4.643966258E-1
8.226334538E0,-3.762819052E0,-4.723376334E-1,1.308740228E-1
8.236045944E0,-3.452356100E0,-4.674508572E-1,2.825168520E-2
8.245758184E0,-3.036979914E0,-1.082726792E-1,1.149920002E-1
8.255471152E0,-2.581287861E0,2.435753495E-1,2.725905776E-1
8.265183288E0,-2.226996422E0,4.634803534E-1,4.753918648E-1
8.274894694E0,-1.960667014E0,5.514423847E-1,6.061131954E-1
8.284606934E0,-1.684563994E0,5.318952799E-1,5.804576278E-1
8.294319902E0,-1.375475287E0,5.343386531E-1,4.753918648E-1
8.304032038E0,-9.625425935E-1,6.125270724E-1,3.177932799E-1
8.313743444E0,-4.653128982E-1,7.750124335E-1,1.626380831E-1
8.323455684E0,6.245913357E-2,1.020573020E0,2.947338112E-2
8.333168652E0,5.877877474E-1,1.284459114E0,-7.314895838E-2
8.342880788E0,1.077687263E0,1.517802715E0,-1.293469071E-1
8.352592194E0,1.539487839E0,1.708387017E0,-1.391204596E-1
8.362304329E0,1.992889166E0,1.851325274E0,-1.036913246E-1
8.372017402E0,2.418038845E0,1.946617484E0,-1.572931744E-2
8.381729538E0,2.732014418E0,1.972273111E0,1.247655526E-1
8.391440892E0,2.895721436E0,1.819561243E0,2.664821148E-1
8.401153132E0,2.896943092E0,1.417623758E0,3.348970115E-1
8.410866100E0,2.768665314E0,8.324320912E-1,3.104631305E-1
8.420578236E0,2.592741251E0,2.215848416E-1,2.029540092E-1
8.430289642E0,2.469350100E0,-1.033858955E-1,1.174353883E-1
8.440001882E0,2.521883011E0,3.588727489E-2,1.467560530E-1
8.449714850E0,2.706358671E0,3.938437700E-1,2.115058601E-1
8.459426986E0,2.674594641E0,5.770979524E-1,1.687465608E-1
8.469138392E0,2.168813229E0,5.416688323E-1,-1.572931744E-2
8.478850632E0,1.424648523E0,5.477772951E-1,-3.504736125E-1
8.488563600E0,1.144880533E0,6.638382673E-1,-7.267554998E-1
8.498275736E0,1.104564548E0,1.120751977E0,-9.600991607E-1
8.507987142E0,8.993198872E-1,1.223374367E0,-1.107924223E0
8.517699382E0,6.916317940E-1,1.531699449E-1,-1.299730301E0
8.527412350E0,4.289674759E-1,-7.679877281E-1,-1.226428628E0
8.537124486E0,2.115058601E-1,-1.149156451E0,-7.524111271E-1
8.546835892E0,8.284615874E-1,-1.221236348E0,-2.881672084E-1
8.556548132E0,1.543152928E0,-4.369085133E-1,1.895153672E-1
8.566261100E0,2.052752256E0,1.311794519E-1,3.923166394E-1
8.575973236E0,2.192025423E0,-4.760027230E-1,1.748550236E-1
8.585684590E0,2.016101360E0,-1.415485859E0,-4.382828996E-2
8.595396829E0,1.794974685E0,-1.700293303E0,-7.314895838E-2
8.605109850E0,1.815743446E0,-1.601336122E0,2.336490713E-2
8.614821934E0,1.974563718E0,-1.413042426E0,1.601946950E-1
8.624533340E0,2.031983376E0,-1.145491362E0,2.909159958E-1
8.634245579E0,2.108950138E0,-8.535063267E-1,3.825430870E-1
8.643958548E0,2.317859888E0,-4.454603493E-1,4.045335948E-1
8.653670684E0,2.571972370E0,2.244863659E-2,3.471139669E-1
8.663382090E0,2.769886971E0,3.852919042E-1,2.371614426E-1
8.673094329E0,2.851740360E0,6.430694461E-1,1.076618284E-1
8.682807298E0,2.807759523E0,8.519791961E-1,2.596100792E-3
8.692519434E0,2.662377834E0,1.005912781E0,-5.971032009E-2
8.702230840E0,2.398491859E0,1.013242841E0,-4.734066315E-3
8.711943079E0,2.050308943E0,8.397622705E-1,2.029540092E-1
8.721656048E0,1.741220117E0,5.025745630E-1,4.326325655E-1
8.731368184E0,1.446639061E0,1.702736765E-1,6.097782850E-1
8.741079590E0,1.067913771E0,-4.352286831E-2,7.455390692E-1
8.750791829E0,5.083776116E-1,-1.241547018E-1,8.225058317E-1
8.760504798E0,-2.527380586E-1,-1.046075895E-1,8.212841153E-1
8.770216934E0,-1.106702566E0,-4.718795046E-2,7.479824424E-1
8.779928340E0,-1.942341566E0,8.597674966E-2,6.073349118E-1
8.789640579E0,-2.648480892E0,2.399102598E-1,4.106420577E-1
8.799353548E0,-3.186026573E0,3.547495604E-1,1.443126649E-1
8.809065684E0,-3.537874699E0,4.036173224E-1,-1.342336833E-1
8.818777038E0,-3.745715380E0,2.350234836E-1,-3.468085229E-1
8.828489277E0,-3.926526070E0,-2.878617644E-1,-4.628695250E-1
8.838202298E0,-4.165978432E0,-1.150378108E0,-4.567610323E-1
8.847914382E0,-4.318690300E0,-2.108339310E0,-3.859027624E-1
8.857625788E0,-4.189190388E0,-2.654436827E0,-2.967190444E-1
8.867338027E0,-3.958290339E0,-2.465074062E0,-3.405473381E-2
8.877050996E0,-3.865441561E0,-1.485275149E0,4.106420577E-1
8.886763132E0,-3.914309263E0,-3.416163325E-1,8.054021001E-1
8.896474538E0,-3.833677292E0,3.254288733E-1,1.028972149E0
8.906186777E0,-3.677300453E0,7.053758502E-1,9.422318935E-1
8.915899746E0,-3.585520744E0,7.652388811E-1,6.281036735E-1
8.925611882E0,-3.471903086E0,2.460187376E-1,3.275668323E-1
8.935323288E0,-3.223899126E0,-3.892624080E-1,7.589777559E-2
8.945035527E0,-2.956347942E0,-7.313368917E-1,-1.134648770E-1
8.954748496E0,-2.697348833E0,-7.704311013E-1,-1.831014603E-1
8.964460632E0,-2.393146753E0,-6.250494719E-1,-1.330119967E-1
8.974172038E0,-2.070619583E0,-4.405735731E-1,-3.038965166E-2
8.983884277E0,-1.776191115E0,-2.524326444E-1,5.757235363E-2
8.993597246E0,-1.508640051E0,-7.895200700E-2,7.589777559E-2
9.003309382E0,-1.238645554E0,3.955236077E-2,5.390727147E-2
9.013020788E0,-9.222266674E-1,2.484621257E-1,1.236965694E-2
9.022733027E0,-4.921901822E-1,6.076403260E-1,-6.337540597E-2
9.032445996E0,2.092151903E-2,1.036455035E0,-1.562241912E-1
9.042158132E0,5.401417017E-1,1.429840684E0,-2.258607745E-1
9.051869538E0,1.028819442E0,1.692505002E0,-2.625116110E-1
9.061581777E0,1.480846524E0,1.759698272E0,-2.502946556E-1
9.071294746E0,1.903705478E0,1.626533508E0,-1.928750277E-1
9.081006882E0,2.243336678E0,1.323553324E0,-1.012479365E-1
9.090718288E0,2.466906548E0,9.607100487E-1,-1.328592747E-2
9.100430527E0,2.536543131E0,6.430694461E-1,3.680354729E-2
9.110143496E0,2.486453772E0,4.048390090E-1,4.535540938E-2
9.119855632E0,2.415595531E0,1.824906170E-1,6.001574174E-2
9.129567038E0,2.413151979E0,-3.619270027E-2,1.039967462E-1
9.139279277E0,2.481566906E0,-3.497100621E-2,1.980672181E-1
9.148992246E0,2.523104668E0,1.849340051E-1,3.691044450E-1
9.158704382E0,2.552425385E0,2.997733057E-1,4.802786708E-1
9.168415788E0,2.465684891E0,1.458397806E-1,4.008685052E-1
9.178127923E0,2.170034885E0,-1.779092699E-1,1.479777545E-1
9.187840996E0,1.504058719E0,-3.538332880E-1,-1.525591016E-1
9.197553079E0,6.671979427E-1,-2.353289127E-1,-5.068505406E-1
9.207264486E0,5.413633585E-1,5.176930502E-2,-8.086090684E-1
9.216976725E0,9.811733961E-1,9.594883323E-1,-9.539906979E-1
9.226689694E0,1.301257372E0,2.010145664E0,-9.894198179E-1
9.236401829E0,1.303700805E0,2.227607250E0,-9.698727131E-1
9.246113236E0,1.132663488E0,6.687250137E-1,-8.758022785E-1
9.255825475E0,5.926745534E-1,-2.003273487E0,-6.974348426E-1
9.265538444E0,1.113269106E-1,-3.072256327E0,-5.215108395E-1
9.275250579E0,1.516428292E-1,-1.893321037E0,-1.806580722E-1
9.284961986E0,7.918107510E-1,-8.278507590E-1,3.263451457E-1
9.294674225E0,1.526049137E0,-2.878617644E-1,5.902311802E-1
9.304387194E0,1.854837656E0,-3.465031087E-1,4.949389994E-1
9.314099329E0,1.826738715E0,-9.231429100E-1,1.882936656E-1
9.323810736E0,1.777870893E0,-1.389830232E0,-7.314895838E-2
9.333522975E0,1.890266895E0,-1.406933904E0,-8.658760041E-2
9.343235944E0,2.115058661E0,-8.645015955E-1,9.788827598E-2
9.352948079E0,2.382609844E0,-6.429167092E-2,2.444916219E-1
9.362659486E0,2.592741251E0,6.223006248E-1,2.677038014E-1
9.372371725E0,2.760113239E0,9.839222431E-1,2.041756958E-1
9.382084694E0,2.910381794E0,1.027903199E0,9.910997003E-2
9.391796829E0,2.978796721E0,1.013242841E0,1.527118147E-4
9.401508236E0,2.970244884E0,1.056002140E0,-9.758284688E-2
9.411220475E0,2.915268660E0,9.851438999E-1,-1.953184158E-1
9.420933444E0,2.796764135E0,8.458707333E-1,-3.003841341E-1
9.430645579E0,2.564642191E0,6.467345357E-1,-3.101576865E-1
9.440356986E0,2.229897976E0,3.669664860E-1,-1.684411317E-1
9.450069225E0,1.887823462E0,2.122694254E-2,6.368082762E-2
9.459782194E0,1.529714227E0,-1.669140160E-1,2.677038014E-1
9.469494329E0,1.103342891E0,-6.872031838E-3,4.094203711E-1
9.479205736E0,5.267030597E-1,2.680092454E-1,5.499152541E-1
9.488917975E0,-2.270824611E-1,3.706315756E-1,6.232169271E-1
9.498630944E0,-1.071273327E0,2.680092454E-1,5.877877474E-1
9.508343079E0,-1.867818236E0,1.519482583E-1,4.521796703E-1
9.518054486E0,-2.488439083E0,1.165191159E-1,2.322746664E-1
9.527766725E0,-2.891598225E0,1.030804738E-1,-3.283303976E-2
9.537479694E0,-3.199465275E0,2.367033064E-2,-2.331909388E-1
9.547191829E0,-3.521992683E0,-2.463241518E-1,-3.675773442E-1
9.556903236E0,-3.871549845E0,-7.802046537E-1,-4.567610323E-1
9.566615475E0,-4.258827209E0,-1.644095421E0,-5.129590034E-1
9.576328444E0,-4.599679947E0,-2.662988663E0,-5.154023767E-1
9.586040579E0,-4.643661022E0,-3.363019466E0,-4.359922409E-1
9.595751986E0,-4.413982391E0,-3.509622812E0,-2.173089087E-1
9.605464225E0,-4.192855358E0,-3.188317299E0,2.029540092E-1
9.615177194E0,-4.058469296E0,-2.455300570E0,8.347227573E-1
9.624889329E0,-3.866663218E0,-1.525591016E0,1.286749721E0
9.634600736E0,-3.704177856E0,-5.554128885E-1,1.306296825E0
9.644312975E0,-3.788474798E0,-4.352286831E-2,1.006981730E0
9.654025944E0,-3.905757427E0,-2.499892414E-1,5.633538961E-1
9.663738079E0,-3.740828514E0,-7.288935184E-1,1.320957243E-1
9.673449434E0,-3.343625069E0,-9.060391784E-1,1.374406274E-3
9.683161673E0,-2.883046389E0,-5.883986354E-1,1.675248593E-1
9.692874694E0,-2.461561680E0,-1.058292910E-1,4.253024161E-1
9.702586829E0,-2.131704330E0,3.095468581E-1,6.525375843E-1
9.712298184E0,-1.887365341E0,4.781406820E-1,7.711946368E-1
9.722010423E0,-1.657686710E0,4.781406820E-1,7.516475320E-1
9.731723444E0,-1.385248899E0,5.441122055E-1,6.427640319E-1
9.741435527E0,-1.021183848E0,7.847860456E-1,4.607315361E-1
9.751146934E0,-5.728220344E-1,1.126860499E0,2.860292196E-1
9.760859173E0,-8.903098851E-2,1.427397370E0,1.296523362E-1
9.770572142E0,3.984251320E-1,1.610651493E0,-2.428117767E-2
9.780284277E0,8.602256775E-1,1.690061688E0,-1.501157135E-1
9.789995684E0,1.304922462E0,1.679066420E0,-2.551814318E-1
9.799707923E0,1.709303379E0,1.622868419E0,-2.832804024E-1
9.809420892E0,2.017323017E0,1.563005447E0,-2.380777150E-1
9.819133027E0,2.196912050E0,1.514137626E0,-1.207950488E-1
9.828844434E0,2.239671469E0,1.431062460E0,3.802524135E-2
9.838556673E0,2.215237617E0,1.279572248E0,1.614163816E-1
9.848269642E0,2.240893126E0,1.060889006E0,2.444916219E-1
9.857981777E0,2.381387949E0,8.971819282E-1,3.251234591E-1
9.867693184E0,2.612288237E0,8.116632700E-1,4.399627447E-1
9.877405423E0,2.870065928E0,8.605310917E-1,5.841227174E-1
9.887118392E0,3.010560751E0,1.179393291E0,6.610894203E-1
9.896830527E0,2.915268660E0,1.765806675E0,5.645755529E-1
9.906541934E0,2.545095205E0,1.901414752E0,3.019112647E-1
9.916254173E0,1.661657214E0,1.247808218E0,-8.170082420E-2
9.925967142E0,8.919897079E-1,4.072824121E-1,-6.558972597E-1
9.935679277E0,7.380561829E-1,4.842491746E-1,-1.136023164E0
9.945390684E0,8.186880350E-1,1.510472536E0,-1.288735032E0
9.955102923E0,1.086239100E0,2.071230412E0,-1.211768270E0
9.964815892E0,1.419761777E0,7.676823139E-1,-1.094485521E0
9.974528027E0,9.591829181E-1,-1.605001211E0,-7.988355160E-1
9.984239434E0,-2.428117767E-2,-3.058817625E0,-4.579827189E-1
9.993951673E0,-4.382828996E-2,-2.752172232E0,-9.269607067E-2
1.000366464E1,6.158867478E-1,-1.559798479E0,5.621321797E-1
1.001337678E1,1.252389550E0,-8.461761475E-1,1.153585076E0
1.002308818E1,1.857281089E0,-7.496622801E-1,1.141368151E0
1.003280042E1,2.104063272E0,-1.084406614E0,7.992936373E-1
1.004251339E1,2.000219345E0,-1.383721709E0,3.886515796E-1
1.005222553E1,1.936691284E0,-1.314085126E0,1.223221645E-1
1.006193693E1,2.044200420E0,-9.158127308E-1,9.544488788E-2
1.007164917E1,2.305643082E0,-2.512109280E-1,1.259872466E-1
1.008136214E1,2.620840073E0,4.268295169E-1,7.589777559E-2
1.009107428E1,2.896943092E0,8.800781965E-1,-3.405473381E-2
1.010078568E1,3.060650110E0,1.141520858E0,-1.391204596E-1
1.011049792E1,3.080197334E0,1.418845415E0,-1.757712960E-1
1.012021089E1,2.982461691E0,1.721825719E0,-1.647760421E-1
1.012992303E1,2.840745211E0,1.929513812E0,-1.769929975E-1
1.013963443E1,2.692920208E0,1.968608022E0,-1.928750277E-1
1.014934667E1,2.549981833E0,1.675401330E0,-1.623326540E-1
1.015905964E1,2.345958948E0,1.074327588E0,-6.948387623E-2
1.016877178E1,2.066190958E0,4.023956358E-1,6.978929788E-2
1.017848318E1,1.726407051E0,-1.595838517E-1,2.506000996E-1
1.018819542E1,1.293927193E0,-5.248705149E-1,4.472928941E-1
1.019790839E1,7.246175408E-1,-7.337802649E-1,6.171084642E-1
1.020762053E1,1.374406274E-3,-8.168554902E-1,7.174401283E-1
1.021733188E1,-7.988355160E-1,-7.655443549E-1,7.149966955E-1
1.022704417E1,-1.562394619E0,-5.456393361E-1,5.987830162E-1
1.023675714E1,-2.209892750E0,-1.950129867E-1,3.666610718E-1
1.024646928E1,-2.720561028E0,1.934858710E-1,9.910997003E-2
1.025618063E1,-3.107838154E0,4.023956358E-1,-1.171299592E-1
1.026589287E1,-3.393714666E0,2.142546773E-1,-2.735068500E-1
1.027560589E1,-3.654088259E0,-4.393518865E-1,-3.626905680E-1
1.028531803E1,-4.026705265E0,-1.465575337E0,-3.907895386E-1
1.029502938E1,-4.450633049E0,-2.590908766E0,-4.225535989E-1
1.030474162E1,-4.614340305E0,-3.331255436E0,-3.907895386E-1
1.031445464E1,-4.475067139E0,-3.334920645E0,-1.171299592E-1
1.032416673E1,-4.271044254E0,-2.543262482E0,3.446705639E-1
1.033387813E1,-4.186747074E0,-1.371504784E0,7.333221436E-1
1.034359037E1,-4.141544342E0,-4.808894992E-1,8.457180262E-1
1.035330334E1,-4.084124565E0,1.189625040E-1,6.085565686E-1
1.036301548E1,-4.013266563E0,2.863346636E-1,2.713688910E-1
1.037272688E1,-3.786031246E0,-1.033858955E-1,8.322793990E-2
1.038243912E1,-3.416926861E0,-5.761816502E-1,7.101099193E-2
1.039215209E1,-3.035758257E0,-7.093463540E-1,2.225011140E-1
1.040186422E1,-2.680245161E0,-6.103891134E-1,4.387410581E-1
1.041157563E1,-2.400476933E0,-4.540122151E-1,5.780141950E-1
1.042128787E1,-2.180572033E0,-2.389939874E-1,6.073349118E-1
1.043100084E1,-1.932568073E0,5.054761097E-2,5.389199853E-1
1.044071298E1,-1.624701023E0,3.523061574E-1,4.191939235E-1
1.045042438E1,-1.286291599E0,6.381826997E-1,3.190149665E-1
1.046013662E1,-9.246700406E-1,8.922951221E-1,2.493783981E-1
1.046984959E1,-5.410579443E-1,1.080436110E0,1.663031727E-1
1.047956172E1,-1.342336833E-1,1.184280157E0,1.603474095E-2
1.048927313E1,2.848075330E-1,1.201383829E0,-1.574458778E-1
1.049898537E1,7.136223316E-1,1.205048919E0,-3.089359999E-1
1.050869834E1,1.139993668E0,1.268577099E0,-3.883461356E-1
1.051841048E1,1.540709496E0,1.361425877E0,-3.846810758E-1
1.052812188E1,1.873163104E0,1.438392639E0,-3.016058207E-1
1.053783412E1,2.089403152E0,1.470156670E0,-1.550024897E-1
1.054754709E1,2.172478199E0,1.380972981E0,1.481304597E-2
1.055725923E1,2.143157721E0,1.147629261E0,1.577513069E-1
1.056697063E1,2.101619959E0,8.043331504E-1,2.481566966E-1
1.057668287E1,2.182251930E0,4.805840850E-1,3.397837877E-1
1.058639584E1,2.410708666E0,4.378247857E-1,4.729484916E-1
1.059610798E1,2.657490969E0,7.798992395E-1,6.219952106E-1
1.060581938E1,2.773551941E0,1.382194638E0,7.064448595E-1
1.061553162E1,2.574415684E0,1.853768706E0,6.036698222E-1
1.062524459E1,1.873163104E0,1.597212911E0,2.615953386E-1
1.063495672E1,6.733064055E-1,8.996253014E-1,-3.516952991E-1
1.064466813E1,1.357607991E-1,7.627955079E-1,-9.723161459E-1
1.065438037E1,5.926745534E-1,1.558118701E0,-1.199551344E0
1.066409334E1,1.166870952E0,2.894652367E0,-1.096928954E0
1.067380548E1,1.344016671E0,3.234283447E0,-9.600991607E-1
1.068351688E1,1.227955699E0,6.650599241E-1,-9.735378027E-1
1.069322912E1,1.553079188E-1,-3.017280102E0,-8.049439788E-1
1.070294209E1,-9.662076235E-1,-4.218205929E0,-4.421007037E-1
1.071265423E1,-5.728220344E-1,-3.135784388E0,1.809635013E-1
1.072236563E1,6.048914790E-1,-1.344627500E0,1.020420313E0
1.073207787E1,1.742441773E0,5.543438718E-2,1.386928678E0
1.074179084E1,2.378944635E0,6.887302548E-2,9.715525508E-1
1.075150298E1,2.363062620E0,-9.536852837E-1,2.677038014E-1
1.076121438E1,2.060082436E0,-1.710066915E0,-3.162661791E-1
1.077092662E1,1.912257314E0,-1.818797708E0,-5.251759291E-1
1.078063959E1,2.024653196E0,-1.441141367E0,-3.321481943E-1
1.079035172E1,2.320303202E0,-6.873558760E-1,-3.512371797E-3
1.080006313E1,2.718575716E0,-6.917845458E-2,2.298312783E-1
1.080977537E1,3.055763483E0,2.509055138E-1,2.603736520E-1
1.081948834E1,3.240239382E0,4.121691883E-1,1.540862173E-1
1.082920048E1,3.196258307E0,5.795413256E-1,4.657710344E-2
1.083891188E1,2.900608301E0,8.214368224E-1,3.817795310E-3
1.084862412E1,2.490118742E0,1.031568289E0,-3.649812192E-2
1.085833709E1,2.189582109E0,1.107313395E0,-6.704048812E-2
1.086804922E1,2.115058661E0,9.973608851E-1,9.926267900E-3
1.087776063E1,2.183473587E0,6.296308041E-1,1.846285909E-1
1.088747287E1,2.167591572E0,2.362451702E-1,3.507790267E-1
1.089718584E1,1.780314326E0,7.742489129E-2,4.436278343E-1
1.090689798E1,9.274188280E-1,-5.329642445E-2,4.937172830E-1
1.091660938E1,-1.562241912E-1,-3.574983478E-1,5.010474920E-1
1.092632162E1,-1.186112642E0,-7.105680704E-1,4.973823726E-1
1.093603459E1,-2.009534836E0,-9.048175216E-1,4.656183124E-1
1.094574673E1,-2.564184189E0,-9.597937465E-1,3.495573401E-1
1.095545813E1,-2.917253733E0,-8.889354467E-1,1.186570823E-1
1.096517037E1,-3.156705856E0,-7.447755337E-1,-1.843231618E-1
1.097488334E1,-3.336295128E0,-7.631009221E-1,-4.628695250E-1
1.098459548E1,-3.500002146E0,-1.020878434E0,-5.960342288E-1
1.099430683E1,-3.744493723E0,-1.482831717E0,-5.386145711E-1
1.100401912E1,-4.052360535E0,-2.136438370E0,-3.345915973E-1
1.101373209E1,-4.194077492E0,-2.744842052E0,-5.726693198E-2
1.102344422E1,-4.070686340E0,-2.899997473E0,2.579302490E-1
1.103315563E1,-3.939964771E0,-2.389328957E0,6.978929639E-1
1.104286787E1,-3.993719339E0,-1.340962410E0,1.226886749E0
1.105258084E1,-4.069464207E0,-3.660502136E-1,1.698460817E0
1.106229298E1,-3.875215054E0,1.568350345E-1,1.881714940E0
1.107200438E1,-3.565973520E0,3.290939629E-1,1.573848009E0
1.108171662E1,-3.284983873E0,1.543916464E-1,9.214630723E-1
1.109142959E1,-3.007659197E0,-8.994726092E-2,2.664821148E-1
1.110114173E1,-2.727891207E0,-5.573981255E-2,-1.342336833E-1
1.111085313E1,-2.500655890E0,3.156553209E-1,-2.527380586E-1
1.112056537E1,-2.264868975E0,7.640172243E-1,-1.782146841E-1
1.113027834E1,-1.955780268E0,1.037676811E0,-6.704048812E-2
1.113999048E1,-1.627144337E0,1.075549364E0,2.702999115E-2
1.114970188E1,-1.333937645E0,9.619317055E-1,1.064401343E-1
1.115941412E1,-1.117697716E0,7.493568659E-1,1.479777545E-1
1.116912709E1,-9.307785034E-1,4.866925478E-1,1.797417998E-1
1.117883922E1,-7.010999322E-1,3.559712470E-1,2.115058601E-1
1.118855063E1,-4.091149569E-1,3.816268146E-1,2.053973973E-1
1.119826287E1,-6.215370819E-2,4.585935771E-1,1.211004704E-1
1.120797584E1,3.006895781E-1,5.074613690E-1,-3.527642787E-2
1.121768798E1,6.769714952E-1,5.270084739E-1,-2.099787444E-1
1.122739938E1,1.070357084E0,5.746545792E-1,-3.309265077E-1
1.123711162E1,1.469851255E0,6.907155514E-1,-3.516952991E-1
1.124682459E1,1.830403805E0,8.116632700E-1,-2.600682080E-1
1.125653672E1,2.082072973E0,8.984035850E-1,-8.414421231E-2
1.126624813E1,2.200577259E0,9.106205702E-1,1.027750522E-1
1.127596037E1,2.232341290E0,8.654178381E-1,2.542651594E-1
1.128567339E1,2.262883663E0,7.334748507E-1,3.483356535E-1
1.129538553E1,2.388718128E0,6.271874309E-1,3.813214004E-1
1.130509693E1,2.576859236E0,7.432484031E-1,4.301891923E-1
1.131480917E1,2.750339746E0,9.802571535E-1,4.827220440E-1
1.132452214E1,2.749118090E0,1.148851037E0,4.424061179E-1
1.133423428E1,2.471793413E0,1.208714008E0,2.530434728E-1
1.134394568E1,1.983115673E0,1.137855768E0,-3.161134571E-2
1.135365792E1,1.201078415E0,1.019351363E0,-4.140017331E-1
1.136337089E1,4.766135812E-1,7.322531343E-1,-8.318212628E-1
1.137308303E1,3.532224298E-1,9.289459586E-1,-1.079825282E0
1.138279443E1,4.472928941E-1,1.840330124E0,-1.155570269E0
1.139250667E1,5.670189857E-1,2.098107576E0,-1.094485521E0
1.140221964E1,8.687775135E-1,5.587725043E-1,-9.478822351E-1
1.141193178E1,6.977402568E-1,-2.379555464E0,-7.206470370E-1
1.142164318E1,-2.183778957E-2,-3.789391041E0,-4.457657933E-1
1.143135542E1,-8.658760041E-2,-2.730181932E0,-2.061609551E-2
1.144106844E1,5.841227174E-1,-1.444806457E0,5.438067913E-1
1.145078058E1,1.287818789E0,-6.372663975E-1,7.540909648E-1
1.146049199E1,1.673874259E0,-6.507050395E-1,4.521796703E-1
1.147020423E1,1.723963618E0,-1.378834963E0,-8.399149403E-3
1.147991719E1,1.636001706E0,-1.762599707E0,-2.918322682E-1
1.148962933E1,1.649440289E0,-1.517039180E0,-2.173089087E-1
1.149934074E1,1.783979416E0,-9.316948056E-1,1.418692768E-1
1.150905298E1,2.115058661E0,-2.170034945E-1,4.851654470E-1
1.151876594E1,2.454689741E0,3.205420971E-1,6.427640319E-1
1.152847808E1,2.613509893E0,5.135698318E-1,6.036698222E-1
1.153818949E1,2.650160789E0,5.172349215E-1,4.289674759E-1
1.154790173E1,2.673372984E0,5.526640415E-1,2.249445021E-1
1.155761475E1,2.729570866E0,7.212579250E-1,3.802524135E-2
1.156732688E1,2.800429344E0,9.973608851E-1,-1.269035190E-1
1.157703829E1,2.819976330E0,1.311336398E0,-2.307475507E-1
1.158675053E1,2.772330284E0,1.559340358E0,-2.344126403E-1
1.159646350E1,2.656269312E0,1.643637300E0,-1.122431830E-1
1.160617563E1,2.438807726E0,1.608208179E0,1.052184403E-1
1.161588704E1,2.155374527E0,1.394411564E0,3.336753249E-1
1.162559928E1,1.732515574E0,1.112200141E0,5.108210444E-1
1.163531230E1,1.133885264E0,8.263236284E-1,5.767925382E-1
1.164502443E1,4.448495209E-1,4.671454430E-1,5.315898061E-1
1.165473584E1,-2.845021188E-1,4.443913698E-2,4.582881629E-1
1.166444808E1,-1.079825282E0,-2.683146596E-1,3.935383558E-1
1.167416105E1,-1.925237894E0,-3.171824515E-1,2.970244884E-1
1.168387318E1,-2.704679012E0,-1.754658818E-1,1.638597846E-1
1.169358459E1,-3.304530859E0,-6.184828654E-2,-2.061609551E-2
1.170329683E1,-3.699290991E0,-1.314848661E-1,-2.612899244E-1
1.171300985E1,-3.924082756E0,-4.674508572E-1,-4.787515402E-1
1.172272199E1,-4.162312984E0,-1.122279167E0,-5.813738704E-1
1.173243339E1,-4.558142185E0,-2.032594204E0,-5.544965863E-1
1.174214563E1,-4.928315639E0,-2.996511221E0,-4.201101959E-1
1.175185860E1,-4.861122608E0,-3.585367918E0,-2.857238054E-1
1.176157084E1,-4.410317421E0,-3.353245974E0,-8.414421231E-2
1.177128219E1,-3.919196129E0,-2.410097837E0,3.019112647E-1
1.178099443E1,-3.677300453E0,-1.299424887E0,7.052231431E-1
1.179070740E1,-3.707842827E0,-6.140542030E-1,9.434536099E-1
1.180041954E1,-3.689517498E0,-3.587200642E-1,9.055810571E-1
1.181013094E1,-3.600181103E0,-2.121167034E-1,5.804576278E-1
1.181984324E1,-3.451134205E0,-2.805316150E-1,1.675248593E-1
1.182955620E1,-3.192135096E0,-3.574983478E-1,-1.769929975E-1
1.183926834E1,-2.933135748E0,-2.402156889E-1,-3.382566571E-1
1.184897975E1,-2.704679012E0,-9.315420873E-3,-3.040492237E-1
1.185869199E1,-2.442014694E0,2.301367074E-1,-1.635543555E-1
1.186840501E1,-2.141477823E0,4.463766217E-1,1.481304597E-2
1.187811714E1,-1.838497519E0,5.929799676E-1,1.577513069E-1
1.188782855E1,-1.523300409E0,6.027535200E-1,1.736333370E-1
1.189754079E1,-1.205659747E0,5.355603099E-1,9.910997003E-2
1.190725381E1,-8.586985469E-1,5.624375939E-1,-8.399149403E-3
1.191696594E1,-4.494308829E-1,7.481352091E-1,-9.391776472E-2
1.192667735E1,1.374406274E-3,9.179506898E-1,-1.293469071E-1
1.193638959E1,4.485146105E-1,9.863656163E-1,-1.427855492E-1
1.194610256E1,8.516737819E-1,9.912523627E-1,-1.476723254E-1
1.195581480E1,1.194969893E0,1.015686274E0,-1.378987730E-1
1.196552615E1,1.457634330E0,1.086544514E0,-1.085781008E-1
1.197523839E1,1.664100647E0,1.169619799E0,-5.482354015E-2
1.198495136E1,1.869498014E0,1.247808218E0,3.680354729E-2
1.199466360E1,2.080851078E0,1.336991906E0,1.553079188E-1
1.200437495E1,2.266548872E0,1.373642802E0,2.713688910E-1
1.201408719E1,2.378944635E0,1.239256382E0,3.752129376E-1
1.202380016E1,2.415595531E0,8.519791961E-1,4.448495209E-1
1.203351240E1,2.409487009E0,3.694098890E-1,5.059342384E-1
1.204322376E1,2.370392799E0,1.629435122E-1,6.244385839E-1
1.205293600E1,2.265326977E0,1.885990947E-1,7.406523228E-1
1.206264902E1,2.017323017E0,2.105895877E-1,7.382088900E-1
1.207236115E1,1.507723689E0,1.947075576E-1,5.841227174E-1
1.208207256E1,6.818582416E-1,3.327590525E-1,1.809635013E-1
1.209178480E1,2.762556672E-1,6.259657145E-1,-3.785725832E-1
1.210149782E1,6.061131954E-1,8.238802552E-1,-8.696937561E-1
1.211120995E1,1.194969893E0,1.324774981E0,-1.215433359E0
1.212092136E1,1.601794243E0,1.653410792E0,-1.482984424E0
1.213063360E1,1.593242407E0,3.156553209E-1,-1.650356531E0
1.214034662E1,2.994678617E-1,-2.342904568E0,-1.355928183E0
1.215005876E1,-8.489249945E-1,-2.539597511E0,-6.717792749E-1
1.215977016E1,-7.803573459E-2,-1.260330558E0,1.406475753E-1
1.216948245E1,1.215738773E0,1.580567211E-1,1.136481285E0
1.217919542E1,2.265326977E0,9.582666159E-1,1.446791768E0
1.218890756E1,2.518217802E0,2.496838123E-1,8.933641315E-1
1.219861902E1,2.188360214E0,-1.211462855E0,1.174353883E-1
1.220833126E1,1.900040388E0,-2.046032906E0,-3.297048211E-1
1.221804423E1,1.959903479E0,-2.075353622E0,-3.003841341E-1
1.222775646E1,2.245779991E0,-1.650203824E0,-6.215370819E-2
1.223746782E1,2.531656504E0,-1.154043198E0,1.247655526E-1
1.224718006E1,2.733236074E0,-7.716528177E-1,1.516428292E-1
1.225689308E1,2.866400719E0,-4.381301999E-1,7.956285775E-2
1.226660522E1,2.965358019E0,-1.852394342E-1,-4.734066315E-3
1.227631662E1,2.950697660E0,5.421269313E-2,-1.134648770E-1
1.228602886E1,2.871287584E0,2.606790662E-1,-2.295258641E-1
1.229574188E1,2.734457731E0,4.109475017E-1,-3.431434333E-1
1.230545402E1,2.573194027E0,5.013529062E-1,-4.506525695E-1
1.231516542E1,2.419260502E0,5.563291311E-1,-4.408790171E-1
1.232487772E1,2.234784603E0,5.245651007E-1,-2.038702667E-1
1.233459068E1,1.985558987E0,3.352024257E-1,1.846285909E-1
1.234430292E1,1.571251869E0,1.116323397E-1,5.865660906E-1
1.235401428E1,1.012937427E0,-3.741439432E-2,8.750386834E-1
1.236372652E1,4.729484916E-1,-1.156028435E-1,9.678874612E-1
1.237343954E1,-6.704048812E-2,-1.131594554E-1,8.725953102E-1
1.238315167E1,-6.461237073E-1,-9.239064902E-2,6.722373962E-1
1.239286308E1,-1.270409584E0,-6.062658876E-2,4.240806997E-1
1.240257537E1,-1.894695520E0,5.909947306E-2,1.333174109E-1
1.241228834E1,-2.450566530E0,2.484621257E-1,-1.684411317E-1
1.242200058E1,-2.898928404E0,4.317162931E-1,-4.433223903E-1
1.243171193E1,-3.212903976E0,5.147915483E-1,-6.363501549E-1
1.244142417E1,-3.462129593E0,3.144336343E-1,-7.267554998E-1
1.245113719E1,-3.787252903E0,-4.222481549E-1,-7.328640223E-1
1.246084933E1,-4.163535118E0,-1.548803210E0,-6.106945276E-1
1.247056074E1,-4.262492180E0,-2.428423166E0,-3.846810758E-1
1.248027303E1,-4.196520805E0,-2.622672796E0,7.482878864E-3
1.248998600E1,-4.223397732E0,-2.175532579E0,5.572454333E-1
1.249969824E1,-4.272265911E0,-1.454580069E0,1.085170150E0
1.250940959E1,-4.075572968E0,-7.215633392E-1,1.430909753E0
1.251912183E1,-3.656531811E0,1.511846948E-2,1.313627005E0
1.252883485E1,-3.322856426E0,5.380037427E-1,7.345438004E-1
1.253854699E1,-3.120055199E0,5.306735635E-1,1.236965694E-2
1.254825839E1,-2.947796106E0,3.095468581E-1,-5.312843919E-1
1.255797068E1,-2.788975954E0,2.753393948E-1,-7.487460375E-1
1.256768365E1,-2.611830235E0,4.390464723E-1,-6.253548861E-1
1.257739589E1,-2.361382723E0,6.577298045E-1,-2.796153426E-1
1.258710725E1,-2.049850702E0,7.750124335E-1,9.910997003E-2
1.259681949E1,-1.751757264E0,7.090409398E-1,3.446705639E-1
1.260653251E1,-1.519635320E0,4.854708612E-1,3.520007432E-1
1.261624464E1,-1.337602735E0,1.189625040E-1,2.188360244E-1
1.262595610E1,-1.125027895E0,-1.889045089E-1,9.422318637E-2
1.263566834E1,-8.061656952E-1,-2.426590770E-1,-1.206423342E-2
1.264538136E1,-3.846810758E-1,-7.284353673E-2,-1.195733473E-1
1.265509350E1,7.467607409E-2,2.179197669E-1,-2.735068500E-1
1.266480490E1,5.315898061E-1,5.086830258E-1,-4.408790171E-1
1.267451719E1,9.836167693E-1,8.202151656E-1,-5.557183027E-1
1.268423016E1,1.460077643E0,1.172063231E0,-5.532749295E-1
1.269394240E1,1.959903479E0,1.497033954E0,-4.030064642E-1
1.270365376E1,2.371614456E0,1.664406061E0,-1.440072358E-1
1.271336600E1,2.551203489E0,1.592326045E0,1.382041872E-1
1.272307902E1,2.492562294E0,1.267355323E0,3.373403847E-1
1.273279115E1,2.310529709E0,8.251019120E-1,4.094203711E-1
1.274250261E1,2.160261393E0,3.339807391E-1,3.727695346E-1
1.275221485E1,2.119945526E0,-2.764083818E-2,3.202366829E-1
1.276192787E1,2.179808378E0,-1.889045089E-1,3.666610718E-1
1.277164001E1,2.309308052E0,-5.573981255E-2,4.753918648E-1
1.278135141E1,2.366727591E0,3.889569938E-1,5.315898061E-1
1.279106370E1,2.206685781E0,9.399412274E-1,4.607315361E-1
1.280077667E1,1.764432311E0,1.086544514E0,3.300102353E-1
1.281048891E1,8.858812451E-1,5.392253995E-1,1.101052165E-1
1.282020027E1,-1.183516532E-1,6.642963737E-2,-2.747285664E-1
1.282991256E1,-4.799732268E-1,7.029324770E-1,-6.009209752E-1
1.283962553E1,-7.925742865E-2,1.740151167E0,-7.230904698E-1
1.284933777E1,6.696413159E-1,2.074895382E0,-7.279772162E-1
1.285904912E1,1.544374585E0,8.422056437E-1,-6.546755433E-1
1.286876136E1,1.378224134E0,-1.359287858E0,-4.995203316E-1
1.287847438E1,5.645755529E-1,-1.812689185E0,-2.930539846E-1
1.288818652E1,5.657972693E-1,-4.405735731E-1,-4.749337584E-2
1.289789798E1,1.114338160E0,3.584146202E-1,4.020902216E-1
1.290761022E1,1.665322304E0,3.950654566E-1,5.902311802E-1
1.291732324E1,1.858502746E0,-4.718795046E-2,3.642176688E-1
1.292703537E1,1.726407051E0,-7.716528177E-1,7.589777559E-2
1.293674678E1,1.607902646E0,-1.044090629E0,-2.061609551E-2
1.294645907E1,1.753437042E0,-8.217422962E-1,1.443126649E-1
1.295617209E1,2.073521137E0,-3.697153032E-1,3.703261614E-1
1.296588422E1,2.350845575E0,-1.009425074E-1,4.509579837E-1
1.297559563E1,2.526769638E0,-6.917845458E-2,3.727695346E-1
1.298530792E1,2.615953445E0,-3.374931216E-2,2.652604282E-1
1.299502089E1,2.613509893E0,6.887302548E-2,2.237228155E-1
1.300473313E1,2.543873310E0,1.947075576E-1,2.444916219E-1
1.301444449E1,2.469350100E0,2.521272004E-1,2.603736520E-1
1.302415678E1,2.441251040E0,2.203631550E-1,1.907370538E-1
1.303386975E1,2.426590681E0,2.142546773E-1,1.382041872E-1
1.304358199E1,2.310529709E0,1.959292591E-1,1.944021434E-1
1.305329334E1,2.088181257E0,8.964183182E-2,2.664821148E-1
1.306300558E1,1.694643021E0,-4.107947648E-2,3.214583695E-1
1.307271860E1,1.097234368E0,-2.011214644E-1,3.654393852E-1
1.308243074E1,3.849864900E-1,-4.369085133E-1,4.228590131E-1
1.309214219E1,-3.443651497E-1,-6.494833231E-1,4.863871336E-1
1.310185443E1,-1.044396043E0,-7.765395641E-1,4.973823726E-1
1.311156745E1,-1.644248128E0,-8.070819378E-1,3.251234591E-1
1.312127959E1,-2.075506210E0,-7.362236381E-1,-6.459710002E-2
1.313099105E1,-2.365047932E0,-6.164975762E-1,-5.105155706E-1
1.314070329E1,-2.576400995E0,-5.541911721E-1,-8.318212628E-1
1.315041631E1,-2.781645775E0,-7.130114436E-1,-9.552124143E-1
1.316012844E1,-3.118833303E0,-1.279877663E0,-8.977927566E-1
1.316983990E1,-3.576968908E0,-2.251277685E0,-7.511894107E-1
1.317955214E1,-3.916752577E0,-3.314151764E0,-5.630484819E-1
1.318926516E1,-3.921639442E0,-3.945767879E0,-3.358132839E-1
1.319897730E1,-3.705399513E0,-3.810159683E0,5.146388337E-2
1.320868876E1,-3.602624416E0,-2.937869787E0,6.807892919E-1
1.321840100E1,-3.715173006E0,-1.703958392E0,1.340504289E0
1.322811402E1,-3.831233978E0,-7.973083854E-1,1.804748178E0
1.323782615E1,-3.678522110E0,-3.049654961E-1,1.874384761E0
1.324753756E1,-3.381497622E0,4.932591692E-2,1.446791768E0
1.325724985E1,-3.105394840E0,8.597674966E-2,8.237275481E-1
1.326696287E1,-2.863499165E0,-3.985778242E-2,3.080197275E-1
1.327667501E1,-2.676579952E0,5.909947306E-2,6.612421572E-2
1.328638641E1,-2.536085129E0,5.013529062E-1,8.689302206E-2
1.329609870E1,-2.352830887E0,1.092653036E0,1.992889196E-1
1.330581173E1,-2.081614733E0,1.560562015E0,2.945810854E-1
1.331552386E1,-1.782299638E0,1.800014138E0,3.862081766E-1
1.332523527E1,-1.518413544E0,1.768250108E0,4.314108789E-1
1.333494756E1,-1.325385809E0,1.497033954E0,3.996468186E-1
1.334466058E1,-1.147018433E0,1.186723471E0,2.860292196E-1
1.335437272E1,-8.965710402E-1,9.961391687E-1,1.259872466E-1
1.336408412E1,-5.581616759E-1,9.729269743E-1,-3.512371797E-3
1.337379641E1,-1.537808031E-1,1.086544514E0,-9.025268257E-2
1.338350943E1,2.762556672E-1,1.230704546E0,-1.256818175E-1
1.339322157E1,6.720846891E-1,1.321109891E0,-1.134648770E-1
1.340293298E1,1.004385591E0,1.329661727E0,-5.238015205E-2
1.341264527E1,1.278045177E0,1.269798756E0,6.245913357E-2
1.342235829E1,1.497950196E0,1.209935665E0,2.200577259E-1
1.343207042E1,1.659213901E0,1.146407604E0,4.081986845E-1
1.344178183E1,1.747328639E0,1.031568289E0,5.890094638E-1
1.345149412E1,1.791309595E0,8.422056437E-1,7.174401283E-1
1.346120714E1,1.842620730E0,5.551074743E-1,7.797465324E-1
1.347091928E1,1.963568568E0,3.633013964E-1,7.834116220E-1
1.348063068E1,2.166369915E0,3.791834414E-1,7.174401283E-1
1.349034298E1,2.334963560E0,5.209000111E-1,6.085565686E-1
1.350005594E1,2.304421186E0,7.041541934E-1,4.595098495E-1
1.350976818E1,2.075964451E0,7.823426127E-1,2.237228155E-1
1.351947954E1,1.719076872E0,5.257867575E-1,-8.658760041E-2
1.352919183E1,1.120446563E0,2.228065431E-1,-4.946335554E-1
1.353890485E1,7.722636461E-1,5.587725043E-1,-9.344435930E-1
1.354861699E1,8.015843034E-1,1.325996637E0,-1.211768270E0
1.355832839E1,1.023932695E0,1.646080613E0,-1.304617047E0
1.356804068E1,1.381889224E0,4.170559645E-1,-1.241088867E0
1.357775370E1,1.201078415E0,-2.341682911E0,-9.674293399E-1
1.358746584E1,2.579302490E-1,-4.416120052E0,-5.483881235E-1
1.359717725E1,-4.382828996E-2,-3.549938917E0,-2.075353563E-1
1.360688954E1,5.364766121E-1,-1.499935389E0,3.434488773E-1
1.361660256E1,1.389219403E0,-1.302631795E-1,8.787037730E-1
1.362631469E1,2.250666618E0,5.428904891E-1,8.689302206E-1
1.363602610E1,2.629391909E0,-4.352286831E-2,5.059342384E-1
1.364573839E1,2.375279665E0,-1.193137407E0,1.198787764E-1
1.365545141E1,2.085737944E0,-1.507265568E0,-9.391776472E-2
1.366516355E1,2.187138557E0,-9.194778204E-1,7.482878864E-3
1.367487501E1,2.633057117E0,-1.985253533E-3,1.821851879E-1
1.368458725E1,3.103409529E0,6.870504618E-1,2.298312783E-1
1.369430027E1,3.315984249E0,8.959602118E-1,1.699682474E-1
1.370401240E1,3.258564711E0,8.910734653E-1,1.076618284E-1
1.371372386E1,3.078975677E0,9.289459586E-1,1.320957243E-1
1.372343610E1,2.857848883E0,1.084101200E0,2.261662036E-1
1.373314912E1,2.635500431E0,1.240478039E0,2.628170252E-1
1.374286126E1,2.466906548E0,1.194053650E0,1.553079188E-1
1.375257272E1,2.354510784E0,8.959602118E-1,7.482878864E-3
1.376228495E1,2.300756216E0,4.304946065E-1,-7.314895838E-2
1.377199798E1,2.184695244E0,2.122694254E-2,-3.161134571E-2
1.378171011E1,1.708081603E0,-2.756448388E-1,1.357607991E-1
1.379142157E1,8.565605879E-1,-6.226060390E-1,3.507790267E-1
1.380113381E1,-8.292251825E-2,-9.549070001E-1,5.132644176E-1
1.381084683E1,-9.112313986E-1,-1.056307673E0,5.987830162E-1
1.382055907E1,-1.607597232E0,-8.535063267E-1,5.657972693E-1
1.383027042E1,-2.205005884E0,-5.199837089E-1,3.629959822E-1
1.383998272E1,-2.713230848E0,-3.013004065E-1,2.336490713E-2
1.384969568E1,-3.111503124E0,-2.560977042E-1,-3.455868363E-1
1.385940792E1,-3.364393950E0,-2.231119573E-1,-6.155813336E-1
1.386911928E1,-3.509775639E0,-2.353289127E-1,-7.157602906E-1
1.387883157E1,-3.689517498E0,-6.409314871E-1,-6.717792749E-1
1.388854454E1,-4.025483608E0,-1.570793748E0,-5.618267655E-1
1.389825678E1,-4.163535118E0,-2.461409092E0,-4.372139275E-1
1.390796813E1,-3.954625130E0,-2.645884991E0,-1.269035190E-1
1.391768042E1,-3.726168394E0,-1.965401053E0,4.790569544E-1
1.392739339E1,-3.814130306E0,-6.384881139E-1,1.240325332E0
1.393710563E1,-4.136657715E0,4.378247857E-1,1.887823462E0
1.394681699E1,-4.216067791E0,7.383615971E-1,2.148044348E0
1.395652928E1,-4.015709877E0,7.078192830E-1,1.763210654E0
1.396624230E1,-3.713951349E0,3.877353072E-1,8.664868474E-1
1.397595443E1,-3.322856426E0,-2.218902707E-1,-6.093201414E-2
1.398566589E1,-2.938022614E0,-4.674508572E-1,-7.072083950E-1
1.399537813E1,-2.692461967E0,-2.292204350E-1,-9.148964882E-1
1.400509115E1,-2.489660740E0,2.154763639E-1,-7.524111271E-1
1.401480329E1,-2.220887899E0,6.161921620E-1,-3.981196880E-1
1.402451475E1,-1.898360610E0,8.006680608E-1,-4.627167806E-2
1.403422699E1,-1.625922680E0,7.444701195E-1,1.638597846E-1
1.404394001E1,-1.410904408E0,5.331169367E-1,2.102841735E-1
1.405365225E1,-1.194664478E0,3.071034551E-1,2.127275616E-1
1.406336360E1,-9.185615778E-1,2.790044844E-1,1.882936656E-1
1.407307589E1,-5.496098399E-1,4.280512035E-1,1.345391124E-1
1.408278886E1,-1.415638477E-1,6.003101468E-1,5.512896553E-2
1.409250110E1,2.664821148E-1,7.310314775E-1,-5.848862603E-2
1.410221245E1,6.525375843E-1,8.458707333E-1,-1.769929975E-1
1.411192475E1,1.004385591E0,9.680401683E-1,-2.429644912E-1
1.412163772E1,1.344016671E0,1.090209603E0,-2.283041626E-1
1.413134995E1,1.683647752E0,1.219709277E0,-1.635543555E-1
1.414106131E1,1.985558987E0,1.286902428E0,-4.993676394E-2
1.415077360E1,2.181030035E0,1.194053650E0,1.113269106E-1
1.416048662E1,2.253110170E0,9.179506898E-1,2.774773538E-1
1.417019876E1,2.256775141E0,4.720322192E-1,4.534013867E-1
1.417991016E1,2.268992186E0,-1.053711493E-2,6.623111367E-1
1.418962245E1,2.260440350E0,-1.656923145E-1,8.872556686E-1
1.419933548E1,2.228676319E0,4.566083103E-2,1.024085402E0
1.420904761E1,2.151709557E0,3.767400384E-1,9.422318935E-1
1.421875907E1,1.948908210E0,6.357392669E-1,6.378772259E-1
1.422847131E1,1.594464064E0,6.772769094E-1,2.115058601E-1
1.423818433E1,8.602256775E-1,3.730749488E-1,-2.234173864E-1
1.424789657E1,1.430909634E-1,2.081461996E-1,-7.670714259E-1
1.425760792E1,3.959817290E-1,7.224795818E-1,-1.129914761E0
1.426732022E1,9.298622608E-1,1.962499499E0,-1.264301062E0
1.427703318E1,1.297592282E0,2.663752079E0,-1.270409584E0
1.428674542E1,1.599350810E0,1.129303813E0,-1.195886254E0
1.429645678E1,8.675557971E-1,-1.989834905E0,-8.244910836E-1
1.430616907E1,-4.421007037E-1,-3.366684675E0,-4.824166298E-1
1.431588209E1,-3.785725832E-1,-1.954405785E0,-8.047912270E-2
1.432559423E1,6.342121959E-1,-2.519745007E-2,6.868977547E-1
1.433530568E1,1.755880475E0,9.020686746E-1,1.017976999E0
1.434501792E1,2.126053810E0,1.104106456E-1,7.296570539E-1
1.435473094E1,1.719076872E0,-1.436254621E0,2.188360244E-1
1.436444308E1,1.311030984E0,-2.138881683E0,-8.292251825E-2
1.437415454E1,1.479624748E0,-1.922641754E0,-2.794626169E-2
1.438386678E1,1.952573299E0,-1.125944257E0,1.724116355E-1
1.439357980E1,2.367949486E0,-2.878617644E-1,3.067980409E-1
1.440329204E1,2.635500431E0,2.105895877E-1,2.921377122E-1
1.441300339E1,2.729570866E0,4.549284875E-1,2.102841735E-1
1.442271568E1,2.754004955E0,5.783196688E-1,1.614163816E-1
1.443242870E1,2.760113239E0,5.722111464E-1,2.188360244E-1
1.444214084E1,2.652604103E0,5.135698318E-1,3.544441164E-1
1.445185230E1,2.443694353E0,5.318952799E-1,4.497362971E-1
1.446156454E1,2.253110170E0,6.357392669E-1,4.265241027E-1
1.447127756E1,2.141935825E0,7.224795818E-1,3.214583695E-1
1.448098969E1,2.061304092E0,6.760551929E-1,2.383831441E-1
1.449070115E1,1.931804419E0,4.781406820E-1,2.261662036E-1
1.450041339E1,1.750993609E0,2.777827978E-1,2.481566966E-1
1.451012641E1,1.431978703E0,2.130329758E-1,2.591519356E-1
1.451983865E1,8.431219459E-1,2.460187376E-1,2.811424434E-1
1.452955001E1,5.039489828E-3,2.521272004E-1,3.275668323E-1
1.453926230E1,-9.197832346E-1,1.824906170E-1,3.654393852E-1
1.454897532E1,-1.755422354E0,1.543916464E-1,3.752129376E-1
1.455868745E1,-2.424911022E0,1.763821393E-1,3.239017725E-1
1.456839891E1,-2.989333868E0,1.238492802E-1,1.907370538E-1
1.457811115E1,-3.504888773E0,-7.650861889E-2,-1.068982761E-3
1.458782417E1,-3.919196129E0,-4.185830951E-1,-2.099787444E-1
1.459753631E1,-4.173308372E0,-9.500201941E-1,-4.286620617E-1
1.460724777E1,-4.315024853E0,-1.686854720E0,-5.948125124E-1
1.461696001E1,-4.357784271E0,-2.472404242E0,-6.277982593E-1
1.462667303E1,-4.112223625E0,-2.964747190E0,-5.850389600E-1
1.463638527E1,-3.694404125E0,-2.788823128E0,-4.274403751E-1
1.464609662E1,-3.445025921E0,-1.807802439E0,-1.073564067E-1
1.465580891E1,-3.556200027E0,-2.841966748E-1,3.739912212E-1
1.466552193E1,-3.760375738E0,8.385405540E-1,8.933641315E-1
1.467523407E1,-3.728611708E0,1.077992678E0,1.230551839E0
1.468494553E1,-3.524435997E0,9.252808690E-1,1.231773496E0
1.469465777E1,-3.236116171E0,3.828485310E-1,9.959864616E-1
1.470437079E1,-2.891598225E0,-2.939702570E-1,6.403206587E-1
1.471408303E1,-2.562962294E0,-5.590779781E-1,2.860292196E-1
1.472379438E1,-2.319845200E0,-3.061871827E-1,5.757235363E-2
1.473350667E1,-2.063289404E0,2.240282297E-1,-3.527642787E-2
1.474321964E1,-1.719993114E0,6.577298045E-1,-8.536590636E-2
1.475293188E1,-1.355928183E0,8.849649429E-1,-1.061347127E-1
1.476264329E1,-1.030957460E0,9.240592122E-1,-9.636115283E-2
1.477235553E1,-7.548545003E-1,8.043331504E-1,-1.293469071E-1
1.478206855E1,-4.799732268E-1,6.968240142E-1,-1.892099380E-1
1.479178068E1,-1.635543555E-1,7.188144922E-1,-2.246390730E-1
1.480149214E1,1.956238300E-1,8.189934492E-1,-2.466295809E-1
1.481120443E1,5.645755529E-1,9.081771374E-1,-2.832804024E-1
1.482091740E1,9.335273504E-1,8.996253014E-1,-3.309265077E-1
1.483062964E1,1.323247910E0,8.336538076E-1,-3.455868363E-1
1.484034100E1,1.728850484E0,8.287670016E-1,-2.954973578E-1
1.485005329E1,2.096733332E0,8.898517489E-1,-1.916533262E-1
1.485976631E1,2.352067471E0,9.631534219E-1,-7.681404054E-2
1.486947844E1,2.464463234E0,9.814788103E-1,3.680354729E-2
1.487918990E1,2.471793413E0,8.935168386E-1,1.272089481E-1
1.488890214E1,2.424147367E0,6.223006248E-1,2.151709497E-1
1.489861516E1,2.333741903E0,1.812689304E-1,3.019112647E-1
1.490832740E1,2.218902588E0,-1.559187621E-1,3.923166394E-1
1.491803876E1,2.123610497E0,-2.096733153E-1,5.071559548E-1
1.492775105E1,2.071077585E0,-8.261708915E-2,5.425850749E-1
1.493746407E1,1.919587493E0,-3.863608837E-2,3.886515796E-1
1.494717620E1,1.550483108E0,-5.696150661E-2,5.146388337E-2
1.495688766E1,9.359707236E-1,1.311794519E-1,-4.836383164E-1
1.496659990E1,7.209524512E-1,7.603521347E-1,-1.012632012E0
1.497631292E1,1.224290609E0,1.349208832E0,-1.205659747E0
1.498602516E1,1.744885206E0,2.027249336E0,-1.180004239E0
1.499573652E1,1.649440289E0,1.991820216E0,-1.090820551E0
1.500544881E1,8.492304087E-1,-3.416163325E-1,-1.039509296E0
1.501516183E1,-7.524111271E-1,-3.480302334E0,-6.998782754E-1
1.502487397E1,-1.514748454E0,-4.230422497E0,-2.185306102E-1
1.503458542E1,-4.225535989E-1,-2.620229244E0,3.300102353E-1
