"Time (s)","Acceleration x (m/s^2)","Acceleration y (m/s^2)","Acceleration z (m/s^2)"
5.099355700E-2,-2.056930065E0,-9.837492108E-1,-9.688240051E0
6.070735900E-2,-2.042573214E0,-1.000499010E0,-9.678668022E0
7.042053600E-2,-2.064108610E0,-9.981061220E-1,-9.661918640E0
8.013251500E-2,-2.095215321E0,-9.909276962E-1,-9.664311409E0
8.984631700E-2,-2.123929262E0,-9.765707254E-1,-9.671489716E0
9.955923400E-2,-2.143071890E0,-9.550353289E-1,-9.681061745E0
1.092714210E-1,-2.159821510E0,-9.311071038E-1,-9.690632820E0
1.189844940E-1,-2.152642965E0,-9.191430211E-1,-9.693025589E0
1.286982440E-1,-2.157428741E0,-9.239286184E-1,-9.731310844E0
1.384112130E-1,-2.150250196E0,-9.143573642E-1,-9.580562592E0
1.481234010E-1,-2.133500576E0,-9.191430211E-1,-9.783952713E0
1.578364210E-1,-2.109572172E0,-9.095717072E-1,-9.786345482E0
1.675502240E-1,-2.107179403E0,-9.167501926E-1,-9.563813210E0
1.772631400E-1,-2.123929262E0,-9.143573642E-1,-9.618847847E0
1.869753800E-1,-2.143071890E0,-9.287142754E-1,-9.793523788E0
1.966884010E-1,-2.138286114E0,-9.454640746E-1,-9.657133102E0
2.064022030E-1,-2.162214279E0,-9.358927608E-1,-9.578169823E0
2.161151190E-1,-2.167000055E0,-9.526425004E-1,-9.771988869E0
2.258273070E-1,-2.152642965E0,-9.454640746E-1,-9.760024071E0
2.355403800E-1,-2.152642965E0,-9.119645357E-1,-9.561420441E0
2.452541300E-1,-2.145464659E0,-9.047860503E-1,-9.635597229E0
2.549671510E-1,-2.133500576E0,-9.191430211E-1,-9.793523788E0
2.646792860E-1,-2.135893345E0,-9.311071038E-1,-9.642776489E0
2.743923590E-1,-2.150250196E0,-9.143573642E-1,-9.573384285E0
2.841061090E-1,-2.162214279E0,-9.191430211E-1,-9.762416840E0
2.938191300E-1,-2.140678883E0,-9.406784177E-1,-9.745667458E0
3.035312650E-1,-2.143071890E0,-9.478568435E-1,-9.568598747E0
3.132442860E-1,-2.116750717E0,-9.454640746E-1,-9.673882484E0
3.229580880E-1,-2.104786634E0,-9.693922997E-1,-9.807881355E0
3.326710050E-1,-2.104786634E0,-9.669994712E-1,-9.637990952E0
3.423832440E-1,-2.150250196E0,-9.430712461E-1,-9.585348129E0
3.520962650E-1,-2.186142683E0,-9.430712461E-1,-9.795916557E0
3.618100670E-1,-2.174178362E0,-9.478568435E-1,-9.786345482E0
3.715230880E-1,-2.159821510E0,-9.287142754E-1,-9.649954796E0
3.812352240E-1,-2.140678883E0,-9.263214469E-1,-9.733703613E0
3.909482440E-1,-2.133500576E0,-9.095717072E-1,-9.855737686E0
4.006620460E-1,-2.123929262E0,-9.047860503E-1,-9.652347565E0
4.103750670E-1,-2.131107569E0,-8.856434822E-1,-9.582955360E0
4.200872030E-1,-2.123929262E0,-9.047860503E-1,-9.786345482E0
4.298002760E-1,-2.095215321E0,-9.191430211E-1,-9.731310844E0
4.395140260E-1,-2.068894386E0,-9.287142754E-1,-9.566205978E0
4.492270460E-1,-2.097608089E0,-9.143573642E-1,-9.673882484E0
4.589391820E-1,-2.116750717E0,-9.239286184E-1,-9.783952713E0
4.686522550E-1,-2.131107569E0,-9.167501926E-1,-9.592526436E0
4.783660050E-1,-2.140678883E0,-9.143573642E-1,-9.592526436E0
4.880790260E-1,-2.157428741E0,-9.023932219E-1,-9.807881355E0
4.977911610E-1,-2.121536493E0,-9.119645357E-1,-9.757631302E0
5.075042340E-1,-2.109572172E0,-9.023932219E-1,-9.578169823E0
5.172180360E-1,-2.131107569E0,-9.287142754E-1,-9.719346046E0
5.269309530E-1,-2.114357948E0,-9.430712461E-1,-9.819845200E0
5.366431920E-1,-2.078465462E0,-9.502496719E-1,-9.637990952E0
5.463562130E-1,-2.100000858E0,-9.478568435E-1,-9.626026154E0
5.560700150E-1,-2.128714800E0,-9.287142754E-1,-9.788738251E0
5.657830360E-1,-2.123929262E0,-9.287142754E-1,-9.697811127E0
5.754951710E-1,-2.145464659E0,-9.143573642E-1,-9.544670105E0
5.852082440E-1,-2.169392824E0,-9.071788788E-1,-9.697811127E0
5.949220460E-1,-2.159821510E0,-9.000003934E-1,-9.783952713E0
6.046349630E-1,-2.147857428E0,-9.023932219E-1,-9.645169258E0
6.143472030E-1,-2.162214279E0,-8.976075649E-1,-9.623633385E0
6.240602240E-1,-2.169392824E0,-9.191430211E-1,-9.791131020E0
6.337740260E-1,-2.159821510E0,-9.263214469E-1,-9.707382202E0
6.434870460E-1,-2.143071890E0,-9.454640746E-1,-9.721739769E0
6.531991820E-1,-2.147857428E0,-9.574281573E-1,-9.728918076E0
6.629122550E-1,-2.131107569E0,-9.622138143E-1,-9.678668022E0
6.726260570E-1,-2.140678883E0,-9.526425004E-1,-9.657133102E0
6.823390780E-1,-2.138286114E0,-9.311071038E-1,-9.659525871E0
6.920512130E-1,-2.138286114E0,-9.143573642E-1,-9.669096947E0
7.017642860E-1,-2.164607286E0,-8.832506537E-1,-9.681061745E0
7.114780880E-1,-2.140678883E0,-8.736793399E-1,-9.688240051E0
7.211911090E-1,-2.147857428E0,-8.712865710E-1,-9.702596664E0
7.309032440E-1,-2.143071890E0,-8.712865710E-1,-9.700203896E0
7.406163170E-1,-2.133500576E0,-9.071788788E-1,-9.697811127E0
7.503301190E-1,-2.116750717E0,-9.334999323E-1,-9.688240051E0
7.600430360E-1,-2.114357948E0,-9.382855892E-1,-9.707382202E0
7.697552760E-1,-2.133500576E0,-9.478568435E-1,-9.688240051E0
7.794683490E-1,-2.138286114E0,-9.502496719E-1,-9.690632820E0
7.891821510E-1,-2.135893345E0,-9.478568435E-1,-9.676275253E0
7.988951710E-1,-2.152642965E0,-9.502496719E-1,-9.688240051E0
8.086073070E-1,-2.147857428E0,-9.430712461E-1,-9.709774971E0
8.183203800E-1,-2.116750717E0,-9.478568435E-1,-9.697811127E0
8.280341820E-1,-2.123929262E0,-9.358927608E-1,-9.704989433E0
8.377472030E-1,-2.131107569E0,-9.454640746E-1,-9.685847282E0
8.474593900E-1,-2.116750717E0,-9.382855892E-1,-9.695418358E0
8.571724110E-1,-2.111965179E0,-9.334999323E-1,-9.690632820E0
8.668862130E-1,-2.116750717E0,-9.143573642E-1,-9.704989433E0
8.765992340E-1,-2.107179403E0,-9.143573642E-1,-9.697811127E0
8.863114210E-1,-2.102393866E0,-9.191430211E-1,-9.673882484E0
8.960244940E-1,-2.104786634E0,-9.239286184E-1,-9.671489716E0
9.057382960E-1,-2.083251238E0,-9.406784177E-1,-9.681061745E0
9.154513170E-1,-2.085644007E0,-9.334999323E-1,-9.688240051E0
9.251634530E-1,-2.104786634E0,-9.334999323E-1,-9.676275253E0
9.348765260E-1,-2.116750717E0,-9.646066427E-1,-9.688240051E0
9.445903280E-1,-2.114357948E0,-9.861420393E-1,-9.707382202E0
9.543033490E-1,-2.133500576E0,-1.022034407E0,-9.736096382E0
9.640155360E-1,-2.111965179E0,-1.014855862E0,-9.738489151E0
9.737286090E-1,-2.104786634E0,-9.789635539E-1,-9.736096382E0
9.834424110E-1,-2.119143486E0,-9.454640746E-1,-9.719346046E0
9.931554320E-1,-2.143071890E0,-8.976075649E-1,-9.738489151E0
1.002867619E0,-2.147857428E0,-8.641080856E-1,-9.728918076E0
1.012580692E0,-2.157428741E0,-8.688937426E-1,-9.712167740E0
1.022294494E0,-2.150250196E0,-8.808578253E-1,-9.685847282E0
1.032007515E0,-2.145464659E0,-9.000003934E-1,-9.685847282E0
1.041719703E0,-2.162214279E0,-8.952147961E-1,-9.666704178E0
1.051432776E0,-2.183749676E0,-8.904291391E-1,-9.654740334E0
1.061146578E0,-2.195713997E0,-9.071788788E-1,-9.635597229E0
1.070859599E0,-2.188535452E0,-9.191430211E-1,-9.626026154E0
1.080571786E0,-2.176571369E0,-9.358927608E-1,-9.637990952E0
1.090284859E0,-2.155035973E0,-9.382855892E-1,-9.633204460E0
1.099998661E0,-2.145464659E0,-9.574281573E-1,-9.652347565E0
1.109711682E0,-2.135893345E0,-9.813563824E-1,-9.666704178E0
1.119423869E0,-2.138286114E0,-9.717850685E-1,-9.678668022E0
1.129136942E0,-2.131107569E0,-9.717850685E-1,-9.688240051E0
1.138850744E0,-2.119143486E0,-9.574281573E-1,-9.693025589E0
1.148563765E0,-2.123929262E0,-9.430712461E-1,-9.709774971E0
1.158275953E0,-2.126322031E0,-9.502496719E-1,-9.738489151E0
1.167989026E0,-2.102393866E0,-9.526425004E-1,-9.728918076E0
1.177702880E0,-2.095215321E0,-9.406784177E-1,-9.733703613E0
1.187415901E0,-2.092822552E0,-9.550353289E-1,-9.704989433E0
1.197128088E0,-2.109572172E0,-9.382855892E-1,-9.700203896E0
1.206841161E0,-2.104786634E0,-9.334999323E-1,-9.659525871E0
1.216554963E0,-2.107179403E0,-9.191430211E-1,-9.637990952E0
1.226267984E0,-2.119143486E0,-8.952147961E-1,-9.676275253E0
1.235980171E0,-2.131107569E0,-8.856434822E-1,-9.688240051E0
1.245693244E0,-2.128714800E0,-8.904291391E-1,-9.695418358E0
1.255407046E0,-2.143071890E0,-8.928219676E-1,-9.697811127E0
1.265120119E0,-2.131107569E0,-9.071788788E-1,-9.695418358E0
1.274832307E0,-2.116750717E0,-9.215358496E-1,-9.678668022E0
1.284545380E0,-2.123929262E0,-9.191430211E-1,-9.676275253E0
1.294259182E0,-2.121536493E0,-9.095717072E-1,-9.657133102E0
1.303972203E0,-2.147857428E0,-9.095717072E-1,-9.673882484E0
1.313684390E0,-2.147857428E0,-9.215358496E-1,-9.671489716E0
1.323397515E0,-2.145464659E0,-9.454640746E-1,-9.693025589E0
1.333111317E0,-2.140678883E0,-9.789635539E-1,-9.685847282E0
1.342824338E0,-2.121536493E0,-9.933205247E-1,-9.681061745E0
1.352536526E0,-2.131107569E0,-9.693922997E-1,-9.681061745E0
1.362249651E0,-2.133500576E0,-9.526425004E-1,-9.688240051E0
1.371963453E0,-2.128714800E0,-9.287142754E-1,-9.693025589E0
1.381676474E0,-2.150250196E0,-9.071788788E-1,-9.685847282E0
1.391388661E0,-2.143071890E0,-9.071788788E-1,-9.693025589E0
1.401101786E0,-2.133500576E0,-9.023932219E-1,-9.697811127E0
1.410815588E0,-2.135893345E0,-9.215358496E-1,-9.700203896E0
1.420528609E0,-2.123929262E0,-9.263214469E-1,-9.685847282E0
1.430240796E0,-2.116750717E0,-9.311071038E-1,-9.688240051E0
1.439953921E0,-2.119143486E0,-9.119645357E-1,-9.669096947E0
1.449667724E0,-2.107179403E0,-9.191430211E-1,-9.647562027E0
1.459380744E0,-2.121536493E0,-9.454640746E-1,-9.642776489E0
1.469092932E0,-2.100000858E0,-9.837492108E-1,-9.671489716E0
1.478806057E0,-2.097608089E0,-9.789635539E-1,-9.683454514E0
1.488519859E0,-2.102393866E0,-9.502496719E-1,-9.690632820E0
1.498232932E0,-2.133500576E0,-9.263214469E-1,-9.681061745E0
1.507945119E0,-2.150250196E0,-9.263214469E-1,-9.690632820E0
1.517658192E0,-2.159821510E0,-8.952147961E-1,-9.714560509E0
1.527372046E0,-2.150250196E0,-8.928219676E-1,-9.700203896E0
1.537085067E0,-2.169392824E0,-8.904291391E-1,-9.690632820E0
1.546797255E0,-2.155035973E0,-9.334999323E-1,-9.676275253E0
1.556510328E0,-2.131107569E0,-9.454640746E-1,-9.685847282E0
1.566224182E0,-2.131107569E0,-9.526425004E-1,-9.690632820E0
1.575937203E0,-2.143071890E0,-9.430712461E-1,-9.671489716E0
1.585649442E0,-2.155035973E0,-9.406784177E-1,-9.676275253E0
1.595362515E0,-2.140678883E0,-9.526425004E-1,-9.678668022E0
1.605076317E0,-2.157428741E0,-9.454640746E-1,-9.669096947E0
1.614789390E0,-2.157428741E0,-9.550353289E-1,-9.671489716E0
1.624501578E0,-2.126322031E0,-9.430712461E-1,-9.647562027E0
1.634214703E0,-2.111965179E0,-9.287142754E-1,-9.640383720E0
1.643928505E0,-2.119143486E0,-9.263214469E-1,-9.633204460E0
1.653641578E0,-2.116750717E0,-9.023932219E-1,-9.649954796E0
1.663353765E0,-2.119143486E0,-9.047860503E-1,-9.666704178E0
1.673066838E0,-2.143071890E0,-9.119645357E-1,-9.697811127E0
1.682780692E0,-2.121536493E0,-9.167501926E-1,-9.707382202E0
1.692493713E0,-2.123929262E0,-9.215358496E-1,-9.695418358E0
1.702205901E0,-2.126322031E0,-9.382855892E-1,-9.707382202E0
1.711919026E0,-2.131107569E0,-9.287142754E-1,-9.690632820E0
1.721632880E0,-2.114357948E0,-9.215358496E-1,-9.690632820E0
1.731345901E0,-2.126322031E0,-9.239286184E-1,-9.652347565E0
1.741058088E0,-2.121536493E0,-9.119645357E-1,-9.633204460E0
1.750771213E0,-2.121536493E0,-9.143573642E-1,-9.640383720E0
1.760485015E0,-2.123929262E0,-9.167501926E-1,-9.659525871E0
1.770198088E0,-2.131107569E0,-9.239286184E-1,-9.676275253E0
1.779910276E0,-2.131107569E0,-9.311071038E-1,-9.700203896E0
1.789623401E0,-2.145464659E0,-9.263214469E-1,-9.695418358E0
1.799337203E0,-2.152642965E0,-9.095717072E-1,-9.685847282E0
1.809050276E0,-2.155035973E0,-9.311071038E-1,-9.683454514E0
1.818762463E0,-2.133500576E0,-9.550353289E-1,-9.649954796E0
1.828475588E0,-2.131107569E0,-9.646066427E-1,-9.635597229E0
1.838189442E0,-2.116750717E0,-9.741778970E-1,-9.676275253E0
1.847902463E0,-2.090429783E0,-9.646066427E-1,-9.664311409E0
1.857614651E0,-2.088036776E0,-9.430712461E-1,-9.599705696E0
1.867327776E0,-2.083251238E0,-9.095717072E-1,-9.649954796E0
1.877041630E0,-2.114357948E0,-8.760721684E-1,-9.671489716E0
1.886754651E0,-2.159821510E0,-8.688937426E-1,-9.716953278E0
1.896466890E0,-2.183749676E0,-8.569296002E-1,-9.712167740E0
1.906179963E0,-2.186142683E0,-8.904291391E-1,-9.712167740E0
1.915893817E0,-2.169392824E0,-9.215358496E-1,-9.700203896E0
1.925606838E0,-2.135893345E0,-9.430712461E-1,-9.671489716E0
1.935319078E0,-2.140678883E0,-9.478568435E-1,-9.669096947E0
1.945032151E0,-2.143071890E0,-9.382855892E-1,-9.661918640E0
1.954746005E0,-2.116750717E0,-9.502496719E-1,-9.673882484E0
1.964459078E0,-2.102393866E0,-9.717850685E-1,-9.688240051E0
1.974171265E0,-2.097608089E0,-9.789635539E-1,-9.676275253E0
1.983884390E0,-2.100000858E0,-9.741778970E-1,-9.707382202E0
1.993598192E0,-2.123929262E0,-9.550353289E-1,-9.716953278E0
2.003311265E0,-2.138286114E0,-9.646066427E-1,-9.702596664E0
2.013023505E0,-2.119143486E0,-9.813563824E-1,-9.688240051E0
2.022736578E0,-2.100000858E0,-9.646066427E-1,-9.681061745E0
2.032450432E0,-2.090429783E0,-9.598209858E-1,-9.649954796E0
2.042163453E0,-2.097608089E0,-9.382855892E-1,-9.633204460E0
2.051875692E0,-2.128714800E0,-9.143573642E-1,-9.628418922E0
2.061588817E0,-2.131107569E0,-9.023932219E-1,-9.602098465E0
2.071302619E0,-2.157428741E0,-8.880363107E-1,-9.626026154E0
2.081015692E0,-2.157428741E0,-8.808578253E-1,-9.654740334E0
2.090727880E0,-2.159821510E0,-8.904291391E-1,-9.666704178E0
2.100441005E0,-2.159821510E0,-9.023932219E-1,-9.693025589E0
2.110154859E0,-2.169392824E0,-9.191430211E-1,-9.685847282E0
2.119867932E0,-2.167000055E0,-9.263214469E-1,-9.652347565E0
2.129580119E0,-2.167000055E0,-9.430712461E-1,-9.642776489E0
2.139293244E0,-2.162214279E0,-9.502496719E-1,-9.616455078E0
2.149007099E0,-2.143071890E0,-9.669994712E-1,-9.635597229E0
2.158720119E0,-2.143071890E0,-9.813563824E-1,-9.661918640E0
2.168432359E0,-2.138286114E0,-9.550353289E-1,-9.659525871E0
2.178145432E0,-2.155035973E0,-9.382855892E-1,-9.657133102E0
2.187859286E0,-2.140678883E0,-9.550353289E-1,-9.688240051E0
2.197572359E0,-2.128714800E0,-9.622138143E-1,-9.697811127E0
2.207284599E0,-2.100000858E0,-9.646066427E-1,-9.716953278E0
2.216997671E0,-2.076072693E0,-9.478568435E-1,-9.707382202E0
2.226711526E0,-2.066501379E0,-9.358927608E-1,-9.702596664E0
2.236424599E0,-2.071287155E0,-9.071788788E-1,-9.673882484E0
2.246136786E0,-2.083251238E0,-8.856434822E-1,-9.649954796E0
2.255849911E0,-2.097608089E0,-8.641080856E-1,-9.657133102E0
2.265563765E0,-2.119143486E0,-8.545367718E-1,-9.666704178E0
2.275276838E0,-2.140678883E0,-8.617152572E-1,-9.666704178E0
2.284989026E0,-2.164607286E0,-8.976075649E-1,-9.664311409E0
2.294702151E0,-2.167000055E0,-9.311071038E-1,-9.647562027E0
2.304416005E0,-2.155035973E0,-9.311071038E-1,-9.642776489E0
2.314129078E0,-2.155035973E0,-9.382855892E-1,-9.661918640E0
2.323841265E0,-2.159821510E0,-9.430712461E-1,-9.666704178E0
2.333554390E0,-2.157428741E0,-9.167501926E-1,-9.664311409E0
2.343268244E0,-2.143071890E0,-9.143573642E-1,-9.666704178E0
2.352981317E0,-2.167000055E0,-8.976075649E-1,-9.628418922E0
2.362693505E0,-2.164607286E0,-9.047860503E-1,-9.628418922E0
2.372406630E0,-2.164607286E0,-9.263214469E-1,-9.659525871E0
2.382120484E0,-2.150250196E0,-9.382855892E-1,-9.661918640E0
2.391833557E0,-2.133500576E0,-9.526425004E-1,-9.664311409E0
2.401545744E0,-2.131107569E0,-9.717850685E-1,-9.690632820E0
2.411258869E0,-2.111965179E0,-9.550353289E-1,-9.673882484E0
2.420972724E0,-2.102393866E0,-9.382855892E-1,-9.666704178E0
2.430685796E0,-2.083251238E0,-9.382855892E-1,-9.683454514E0
2.440398036E0,-2.088036776E0,-9.358927608E-1,-9.688240051E0
2.450111109E0,-2.083251238E0,-9.334999323E-1,-9.700203896E0
2.459824963E0,-2.090429783E0,-9.191430211E-1,-9.681061745E0
2.469538036E0,-2.107179403E0,-9.239286184E-1,-9.666704178E0
2.479250276E0,-2.107179403E0,-9.334999323E-1,-9.681061745E0
2.488963401E0,-2.107179403E0,-9.382855892E-1,-9.688240051E0
2.498677255E0,-2.085644007E0,-9.478568435E-1,-9.678668022E0
2.508390328E0,-2.114357948E0,-9.574281573E-1,-9.669096947E0
2.518102515E0,-2.133500576E0,-9.598209858E-1,-9.671489716E0
2.527815640E0,-2.138286114E0,-9.646066427E-1,-9.669096947E0
2.537529494E0,-2.147857428E0,-9.789635539E-1,-9.683454514E0
2.547242567E0,-2.150250196E0,-9.813563824E-1,-9.671489716E0
2.556954807E0,-2.135893345E0,-9.550353289E-1,-9.652347565E0
2.566667880E0,-2.135893345E0,-9.382855892E-1,-9.645169258E0
2.576381734E0,-2.164607286E0,-9.071788788E-1,-9.621240616E0
2.586094807E0,-2.167000055E0,-9.071788788E-1,-9.628418922E0
2.595807046E0,-2.167000055E0,-9.000003934E-1,-9.640383720E0
2.605520171E0,-2.181356907E0,-9.000003934E-1,-9.661918640E0
2.615234026E0,-2.171785593E0,-8.904291391E-1,-9.666704178E0
2.624947099E0,-2.174178362E0,-9.095717072E-1,-9.676275253E0
2.634659286E0,-2.155035973E0,-9.239286184E-1,-9.688240051E0
2.644372411E0,-2.171785593E0,-9.311071038E-1,-9.688240051E0
2.654086265E0,-2.152642965E0,-9.382855892E-1,-9.678668022E0
2.663799338E0,-2.147857428E0,-9.622138143E-1,-9.678668022E0
2.673511578E0,-2.140678883E0,-9.646066427E-1,-9.640383720E0
2.683224703E0,-2.143071890E0,-9.574281573E-1,-9.659525871E0
2.692938557E0,-2.126322031E0,-9.550353289E-1,-9.652347565E0
2.702651630E0,-2.114357948E0,-9.478568435E-1,-9.649954796E0
2.712363869E0,-2.102393866E0,-9.071788788E-1,-9.606884003E0
2.722076994E0,-2.114357948E0,-8.952147961E-1,-9.630811691E0
2.731790849E0,-2.114357948E0,-8.880363107E-1,-9.647562027E0
2.741503869E0,-2.114357948E0,-8.856434822E-1,-9.673882484E0
2.751216109E0,-2.121536493E0,-9.047860503E-1,-9.669096947E0
2.760929234E0,-2.126322031E0,-9.358927608E-1,-9.661918640E0
2.770643088E0,-2.114357948E0,-9.406784177E-1,-9.659525871E0
2.780356161E0,-2.111965179E0,-9.311071038E-1,-9.666704178E0
2.790068401E0,-2.111965179E0,-9.311071038E-1,-9.657133102E0
2.799781526E0,-2.135893345E0,-9.071788788E-1,-9.669096947E0
2.809495380E0,-2.131107569E0,-9.071788788E-1,-9.678668022E0
2.819208453E0,-2.147857428E0,-9.023932219E-1,-9.690632820E0
2.828920692E0,-2.145464659E0,-8.976075649E-1,-9.671489716E0
2.838633817E0,-2.145464659E0,-8.952147961E-1,-9.669096947E0
2.848347671E0,-2.135893345E0,-9.071788788E-1,-9.659525871E0
2.858060744E0,-2.128714800E0,-9.000003934E-1,-9.652347565E0
2.867772984E0,-2.133500576E0,-9.071788788E-1,-9.664311409E0
2.877486109E0,-2.140678883E0,-9.358927608E-1,-9.673882484E0
2.887199963E0,-2.126322031E0,-9.382855892E-1,-9.666704178E0
2.896913036E0,-2.116750717E0,-9.622138143E-1,-9.669096947E0
2.906625276E0,-2.119143486E0,-9.765707254E-1,-9.661918640E0
2.916338401E0,-2.114357948E0,-9.669994712E-1,-9.649954796E0
2.926052255E0,-2.102393866E0,-9.526425004E-1,-9.630811691E0
2.935765328E0,-2.131107569E0,-9.550353289E-1,-9.652347565E0
2.945477567E0,-2.135893345E0,-9.263214469E-1,-9.657133102E0
2.955190692E0,-2.145464659E0,-9.263214469E-1,-9.695418358E0
2.964904546E0,-2.143071890E0,-9.263214469E-1,-9.707382202E0
2.974617619E0,-2.147857428E0,-9.263214469E-1,-9.695418358E0
2.984329859E0,-2.133500576E0,-9.095717072E-1,-9.669096947E0
2.994042984E0,-2.157428741E0,-9.287142754E-1,-9.657133102E0
3.003756838E0,-2.155035973E0,-9.406784177E-1,-9.645169258E0
3.013469911E0,-2.147857428E0,-9.454640746E-1,-9.642776489E0
3.023182151E0,-2.147857428E0,-9.622138143E-1,-9.645169258E0
3.032895276E0,-2.162214279E0,-9.550353289E-1,-9.642776489E0
3.042609130E0,-2.174178362E0,-9.478568435E-1,-9.657133102E0
3.052322203E0,-2.174178362E0,-9.478568435E-1,-9.676275253E0
3.062034442E0,-2.159821510E0,-9.334999323E-1,-9.673882484E0
3.071747567E0,-2.157428741E0,-9.239286184E-1,-9.659525871E0
3.081461421E0,-2.145464659E0,-9.167501926E-1,-9.661918640E0
3.091174494E0,-2.147857428E0,-9.311071038E-1,-9.678668022E0
3.100886734E0,-2.135893345E0,-9.334999323E-1,-9.669096947E0
3.110599859E0,-2.095215321E0,-9.454640746E-1,-9.666704178E0
3.120313713E0,-2.090429783E0,-9.502496719E-1,-9.652347565E0
3.130026786E0,-2.073679924E0,-9.406784177E-1,-9.647562027E0
3.139739026E0,-2.083251238E0,-9.334999323E-1,-9.637990952E0
3.149452151E0,-2.102393866E0,-9.095717072E-1,-9.652347565E0
3.159166057E0,-2.119143486E0,-9.023932219E-1,-9.666704178E0
3.168879130E0,-2.133500576E0,-8.976075649E-1,-9.669096947E0
3.178591317E0,-2.135893345E0,-9.071788788E-1,-9.681061745E0
3.188304494E0,-2.150250196E0,-9.263214469E-1,-9.697811127E0
3.198018349E0,-2.135893345E0,-9.263214469E-1,-9.721739769E0
3.207731421E0,-2.140678883E0,-9.334999323E-1,-9.685847282E0
3.217443661E0,-2.138286114E0,-9.430712461E-1,-9.642776489E0
3.227156786E0,-2.140678883E0,-9.717850685E-1,-9.599705696E0
3.236870640E0,-2.107179403E0,-9.885348678E-1,-9.568598747E0
3.246583713E0,-2.088036776E0,-9.981061220E-1,-9.585348129E0
3.256295953E0,-2.090429783E0,-9.717850685E-1,-9.635597229E0
3.266009078E0,-2.143071890E0,-9.430712461E-1,-9.695418358E0
3.275722984E0,-2.178964138E0,-9.215358496E-1,-9.726525307E0
3.285436057E0,-2.190928221E0,-8.976075649E-1,-9.707382202E0
3.295148296E0,-2.186142683E0,-8.593224287E-1,-9.673882484E0
3.304861421E0,-2.162214279E0,-8.688937426E-1,-9.657133102E0
3.314575276E0,-2.135893345E0,-8.712865710E-1,-9.637990952E0
3.324288349E0,-2.135893345E0,-8.760721684E-1,-9.628418922E0
3.334000588E0,-2.150250196E0,-8.880363107E-1,-9.635597229E0
3.343713713E0,-2.164607286E0,-8.904291391E-1,-9.654740334E0
3.353427619E0,-2.171785593E0,-8.856434822E-1,-9.666704178E0
3.363140692E0,-2.167000055E0,-9.023932219E-1,-9.645169258E0
3.372852932E0,-2.171785593E0,-8.904291391E-1,-9.649954796E0
3.382566057E0,-2.159821510E0,-9.000003934E-1,-9.657133102E0
3.392279911E0,-2.159821510E0,-9.023932219E-1,-9.669096947E0
3.401992984E0,-2.162214279E0,-8.976075649E-1,-9.661918640E0
3.411705224E0,-2.150250196E0,-9.143573642E-1,-9.664311409E0
3.421418401E0,-2.152642965E0,-9.287142754E-1,-9.671489716E0
3.431132255E0,-2.140678883E0,-9.550353289E-1,-9.657133102E0
3.440845328E0,-2.131107569E0,-9.622138143E-1,-9.652347565E0
3.450557567E0,-2.126322031E0,-9.358927608E-1,-9.676275253E0
3.460270692E0,-2.121536493E0,-9.430712461E-1,-9.681061745E0
3.469984599E0,-2.126322031E0,-9.478568435E-1,-9.666704178E0
3.479697671E0,-2.121536493E0,-9.454640746E-1,-9.678668022E0
3.489409911E0,-2.107179403E0,-9.454640746E-1,-9.683454514E0
3.499123036E0,-2.116750717E0,-9.334999323E-1,-9.676275253E0
3.508836890E0,-2.104786634E0,-9.095717072E-1,-9.695418358E0
3.518550015E0,-2.100000858E0,-9.095717072E-1,-9.671489716E0
3.528262255E0,-2.104786634E0,-9.143573642E-1,-9.671489716E0
3.537975380E0,-2.104786634E0,-9.311071038E-1,-9.673882484E0
3.547689234E0,-2.107179403E0,-9.646066427E-1,-9.685847282E0
3.557402307E0,-2.104786634E0,-9.837492108E-1,-9.671489716E0
3.567114546E0,-2.111965179E0,-9.933205247E-1,-9.659525871E0
3.576827724E0,-2.121536493E0,-9.717850685E-1,-9.623633385E0
3.586541578E0,-2.123929262E0,-9.717850685E-1,-9.633204460E0
3.596254651E0,-2.145464659E0,-9.598209858E-1,-9.671489716E0
3.605966890E0,-2.162214279E0,-9.574281573E-1,-9.712167740E0
3.615680067E0,-2.188535452E0,-9.358927608E-1,-9.719346046E0
3.625393921E0,-2.205285072E0,-9.071788788E-1,-9.695418358E0
3.635106994E0,-2.214856386E0,-8.712865710E-1,-9.633204460E0
3.644819234E0,-2.214856386E0,-8.449655175E-1,-9.592526436E0
3.654532411E0,-2.236391783E0,-8.353942037E-1,-9.602098465E0
3.664246265E0,-2.219642162E0,-8.353942037E-1,-9.594920158E0
3.673959338E0,-2.193320990E0,-8.688937426E-1,-9.602098465E0
3.683671578E0,-2.176571369E0,-9.239286184E-1,-9.637990952E0
3.693384755E0,-2.155035973E0,-9.430712461E-1,-9.654740334E0
3.703098609E0,-2.119143486E0,-9.406784177E-1,-9.652347565E0
3.712811682E0,-2.128714800E0,-9.454640746E-1,-9.664311409E0
3.722523921E0,-2.128714800E0,-9.167501926E-1,-9.666704178E0
3.732237099E0,-2.140678883E0,-8.976075649E-1,-9.666704178E0
3.741950953E0,-2.135893345E0,-8.760721684E-1,-9.683454514E0
3.751664026E0,-2.155035973E0,-8.832506537E-1,-9.683454514E0
3.761376265E0,-2.121536493E0,-8.832506537E-1,-9.714560509E0
3.771089442E0,-2.123929262E0,-8.952147961E-1,-9.704989433E0
3.780803296E0,-2.131107569E0,-9.023932219E-1,-9.726525307E0
3.790516369E0,-2.107179403E0,-9.263214469E-1,-9.704989433E0
3.800228661E0,-2.090429783E0,-9.287142754E-1,-9.671489716E0
3.809941786E0,-2.083251238E0,-9.622138143E-1,-9.626026154E0
3.819655640E0,-2.059323072E0,-9.646066427E-1,-9.609276772E0
3.829368765E0,-2.049751759E0,-9.693922997E-1,-9.599705696E0
3.839081005E0,-2.042573214E0,-9.550353289E-1,-9.626026154E0
3.848794130E0,-2.056930065E0,-9.502496719E-1,-9.621240616E0
3.858507984E0,-2.111965179E0,-9.382855892E-1,-9.652347565E0
3.868221109E0,-2.143071890E0,-8.952147961E-1,-9.673882484E0
3.877933349E0,-2.167000055E0,-8.832506537E-1,-9.678668022E0
3.887646474E0,-2.190928221E0,-8.545367718E-1,-9.693025589E0
3.897360380E0,-2.198106766E0,-8.545367718E-1,-9.678668022E0
3.907073453E0,-2.190928221E0,-8.760721684E-1,-9.671489716E0
3.916785692E0,-2.188535452E0,-8.832506537E-1,-9.652347565E0
3.926498869E0,-2.186142683E0,-8.880363107E-1,-9.640383720E0
3.936212724E0,-2.188535452E0,-8.952147961E-1,-9.630811691E0
3.945925849E0,-2.198106766E0,-8.832506537E-1,-9.621240616E0
3.955638088E0,-2.178964138E0,-8.880363107E-1,-9.616455078E0
3.965351213E0,-2.157428741E0,-8.736793399E-1,-9.618847847E0
3.975065119E0,-2.162214279E0,-8.593224287E-1,-9.611669540E0
3.984778192E0,-2.152642965E0,-8.760721684E-1,-9.637990952E0
3.994490432E0,-2.135893345E0,-8.856434822E-1,-9.664311409E0
4.004203557E0,-2.147857428E0,-8.976075649E-1,-9.671489716E0
4.013917463E0,-2.121536493E0,-8.952147961E-1,-9.671489716E0
4.023630536E0,-2.126322031E0,-9.143573642E-1,-9.673882484E0
4.033342776E0,-2.131107569E0,-9.215358496E-1,-9.693025589E0
4.043055953E0,-2.116750717E0,-9.358927608E-1,-9.685847282E0
4.052769807E0,-2.104786634E0,-9.382855892E-1,-9.693025589E0
4.062482932E0,-2.133500576E0,-9.478568435E-1,-9.685847282E0
4.072195171E0,-2.128714800E0,-9.478568435E-1,-9.654740334E0
4.081908296E0,-2.116750717E0,-9.478568435E-1,-9.626026154E0
4.091622203E0,-2.116750717E0,-9.334999323E-1,-9.640383720E0
4.101335276E0,-2.131107569E0,-9.215358496E-1,-9.657133102E0
4.111047515E0,-2.128714800E0,-9.215358496E-1,-9.661918640E0
4.120760692E0,-2.145464659E0,-9.119645357E-1,-9.673882484E0
4.130474546E0,-2.152642965E0,-8.904291391E-1,-9.681061745E0
4.140187671E0,-2.152642965E0,-8.832506537E-1,-9.664311409E0
4.149899911E0,-2.133500576E0,-9.000003934E-1,-9.659525871E0
4.159613036E0,-2.121536493E0,-9.263214469E-1,-9.635597229E0
4.169326942E0,-2.123929262E0,-9.191430211E-1,-9.618847847E0
4.179040015E0,-2.102393866E0,-9.119645357E-1,-9.623633385E0
4.188752255E0,-2.131107569E0,-9.047860503E-1,-9.616455078E0
4.198465432E0,-2.147857428E0,-9.000003934E-1,-9.633204460E0
4.208179286E0,-2.164607286E0,-8.904291391E-1,-9.669096947E0
4.217892411E0,-2.174178362E0,-9.023932219E-1,-9.671489716E0
4.227604651E0,-2.176571369E0,-9.095717072E-1,-9.669096947E0
4.237317776E0,-2.164607286E0,-9.095717072E-1,-9.647562027E0
4.247031682E0,-2.155035973E0,-9.215358496E-1,-9.642776489E0
4.256744755E0,-2.131107569E0,-9.311071038E-1,-9.623633385E0
4.266457046E0,-2.131107569E0,-9.191430211E-1,-9.623633385E0
4.276170171E0,-2.131107569E0,-9.191430211E-1,-9.621240616E0
4.285884078E0,-2.140678883E0,-9.311071038E-1,-9.630811691E0
4.295597151E0,-2.152642965E0,-9.143573642E-1,-9.664311409E0
4.305309390E0,-2.152642965E0,-9.023932219E-1,-9.659525871E0
4.315022567E0,-2.164607286E0,-8.928219676E-1,-9.645169258E0
4.324736421E0,-2.171785593E0,-8.760721684E-1,-9.633204460E0
4.334449546E0,-2.171785593E0,-8.832506537E-1,-9.635597229E0
4.344161786E0,-2.174178362E0,-8.665009141E-1,-9.633204460E0
4.353874911E0,-2.143071890E0,-8.665009141E-1,-9.642776489E0
4.363588817E0,-2.140678883E0,-8.665009141E-1,-9.645169258E0
4.373301890E0,-2.131107569E0,-8.736793399E-1,-9.657133102E0
4.383014130E0,-2.147857428E0,-8.856434822E-1,-9.637990952E0
4.392727307E0,-2.159821510E0,-8.904291391E-1,-9.652347565E0
4.402441161E0,-2.150250196E0,-9.239286184E-1,-9.657133102E0
4.412154286E0,-2.143071890E0,-9.263214469E-1,-9.649954796E0
4.421866526E0,-2.155035973E0,-9.430712461E-1,-9.640383720E0
4.431579703E0,-2.140678883E0,-9.334999323E-1,-9.599705696E0
4.441293557E0,-2.133500576E0,-9.287142754E-1,-9.580562592E0
4.451006630E0,-2.140678883E0,-9.167501926E-1,-9.559027672E0
4.460718921E0,-2.145464659E0,-9.047860503E-1,-9.597312927E0
4.470432046E0,-2.133500576E0,-8.880363107E-1,-9.621240616E0
4.480145953E0,-2.126322031E0,-8.880363107E-1,-9.633204460E0
4.489859026E0,-2.140678883E0,-8.808578253E-1,-9.640383720E0
4.499571265E0,-2.119143486E0,-9.215358496E-1,-9.649954796E0
4.509284442E0,-2.107179403E0,-9.239286184E-1,-9.664311409E0
4.518998296E0,-2.095215321E0,-9.191430211E-1,-9.666704178E0
4.528711421E0,-2.085644007E0,-9.191430211E-1,-9.673882484E0
4.538423661E0,-2.090429783E0,-9.023932219E-1,-9.659525871E0
4.548136786E0,-2.085644007E0,-9.000003934E-1,-9.649954796E0
4.557850692E0,-2.088036776E0,-8.904291391E-1,-9.645169258E0
4.567563765E0,-2.119143486E0,-8.856434822E-1,-9.654740334E0
4.577276005E0,-2.123929262E0,-8.808578253E-1,-9.649954796E0
4.586989182E0,-2.140678883E0,-8.856434822E-1,-9.635597229E0
4.596703036E0,-2.138286114E0,-8.976075649E-1,-9.628418922E0
4.606416161E0,-2.145464659E0,-9.167501926E-1,-9.645169258E0
4.616128401E0,-2.147857428E0,-9.311071038E-1,-9.637990952E0
4.625841526E0,-2.140678883E0,-9.502496719E-1,-9.635597229E0
4.635555432E0,-2.157428741E0,-9.430712461E-1,-9.642776489E0
4.645268505E0,-2.150250196E0,-9.239286184E-1,-9.630811691E0
4.654980796E0,-2.155035973E0,-9.239286184E-1,-9.618847847E0
4.664693921E0,-2.159821510E0,-9.406784177E-1,-9.602098465E0
4.674407828E0,-2.152642965E0,-9.119645357E-1,-9.618847847E0
4.684120901E0,-2.150250196E0,-9.119645357E-1,-9.611669540E0
4.693833140E0,-2.155035973E0,-8.928219676E-1,-9.606884003E0
4.703546265E0,-2.171785593E0,-8.808578253E-1,-9.626026154E0
4.713260171E0,-2.178964138E0,-8.736793399E-1,-9.633204460E0
4.722973244E0,-2.157428741E0,-9.023932219E-1,-9.626026154E0
4.732685536E0,-2.135893345E0,-9.239286184E-1,-9.623633385E0
4.742398661E0,-2.133500576E0,-9.287142754E-1,-9.633204460E0
4.752112515E0,-2.126322031E0,-9.191430211E-1,-9.623633385E0
4.761825640E0,-2.143071890E0,-9.047860503E-1,-9.618847847E0
4.771537880E0,-2.155035973E0,-9.023932219E-1,-9.621240616E0
4.781251005E0,-2.147857428E0,-9.095717072E-1,-9.633204460E0
4.790964911E0,-2.135893345E0,-9.167501926E-1,-9.647562027E0
4.800677984E0,-2.131107569E0,-9.023932219E-1,-9.642776489E0
4.810390224E0,-2.114357948E0,-9.095717072E-1,-9.621240616E0
4.820103401E0,-2.126322031E0,-9.023932219E-1,-9.635597229E0
4.829817255E0,-2.126322031E0,-9.071788788E-1,-9.640383720E0
4.839530380E0,-2.126322031E0,-9.239286184E-1,-9.637990952E0
4.849242619E0,-2.135893345E0,-9.263214469E-1,-9.647562027E0
4.858955744E0,-2.119143486E0,-9.023932219E-1,-9.626026154E0
4.868669651E0,-2.131107569E0,-9.023932219E-1,-9.611669540E0
4.878382724E0,-2.119143486E0,-9.071788788E-1,-9.618847847E0
4.888094963E0,-2.119143486E0,-8.952147961E-1,-9.609276772E0
4.897808140E0,-2.133500576E0,-9.000003934E-1,-9.616455078E0
4.907521994E0,-2.121536493E0,-9.071788788E-1,-9.609276772E0
4.917235067E0,-2.140678883E0,-9.071788788E-1,-9.614062309E0
4.926947359E0,-2.135893345E0,-8.976075649E-1,-9.609276772E0
4.936660484E0,-2.157428741E0,-9.023932219E-1,-9.618847847E0
4.946374338E0,-2.162214279E0,-9.000003934E-1,-9.614062309E0
4.956087463E0,-2.143071890E0,-9.095717072E-1,-9.618847847E0
4.965799703E0,-2.145464659E0,-9.023932219E-1,-9.630811691E0
4.975512828E0,-2.155035973E0,-8.808578253E-1,-9.623633385E0
4.985226734E0,-2.157428741E0,-8.808578253E-1,-9.630811691E0
4.994939807E0,-2.155035973E0,-8.856434822E-1,-9.616455078E0
5.004652046E0,-2.133500576E0,-9.071788788E-1,-9.609276772E0
5.014365224E0,-2.116750717E0,-9.287142754E-1,-9.616455078E0
5.024079078E0,-2.104786634E0,-9.406784177E-1,-9.614062309E0
5.033792151E0,-2.109572172E0,-9.406784177E-1,-9.609276772E0
5.043504390E0,-2.119143486E0,-9.143573642E-1,-9.602098465E0
5.053217567E0,-2.145464659E0,-8.856434822E-1,-9.604491234E0
5.062931421E0,-2.157428741E0,-8.712865710E-1,-9.623633385E0
5.072644494E0,-2.183749676E0,-8.641080856E-1,-9.633204460E0
5.082356786E0,-2.164607286E0,-8.904291391E-1,-9.628418922E0
5.092069911E0,-2.164607286E0,-8.976075649E-1,-9.652347565E0
5.101783765E0,-2.157428741E0,-9.023932219E-1,-9.669096947E0
5.111496890E0,-2.162214279E0,-9.167501926E-1,-9.647562027E0
5.121209130E0,-2.150250196E0,-9.311071038E-1,-9.640383720E0
5.130922255E0,-2.152642965E0,-9.334999323E-1,-9.618847847E0
5.140636109E0,-2.135893345E0,-9.334999323E-1,-9.623633385E0
5.150349234E0,-2.140678883E0,-9.263214469E-1,-9.611669540E0
5.160061474E0,-2.143071890E0,-9.167501926E-1,-9.614062309E0
5.169774599E0,-2.140678883E0,-9.023932219E-1,-9.618847847E0
5.179488505E0,-2.147857428E0,-9.143573642E-1,-9.628418922E0
5.189201578E0,-2.143071890E0,-9.047860503E-1,-9.616455078E0
5.198913817E0,-2.128714800E0,-9.143573642E-1,-9.609276772E0
5.208626942E0,-2.128714800E0,-9.502496719E-1,-9.621240616E0
5.218340849E0,-2.097608089E0,-9.669994712E-1,-9.616455078E0
5.228053921E0,-2.092822552E0,-9.502496719E-1,-9.614062309E0
5.237766161E0,-2.090429783E0,-9.406784177E-1,-9.618847847E0
5.247479286E0,-2.102393866E0,-9.311071038E-1,-9.633204460E0
5.257193140E0,-2.104786634E0,-9.143573642E-1,-9.637990952E0
5.266906265E0,-2.109572172E0,-8.928219676E-1,-9.642776489E0
5.276618505E0,-2.140678883E0,-9.047860503E-1,-9.633204460E0
5.286331630E0,-2.152642965E0,-8.760721684E-1,-9.602098465E0
5.296045484E0,-2.152642965E0,-8.521439433E-1,-9.594920158E0
5.305758609E0,-2.183749676E0,-8.593224287E-1,-9.611669540E0
5.315470849E0,-2.176571369E0,-8.665009141E-1,-9.621240616E0
5.325183974E0,-2.186142683E0,-8.736793399E-1,-9.604491234E0
5.334897880E0,-2.186142683E0,-8.880363107E-1,-9.630811691E0
5.344610953E0,-2.171785593E0,-9.095717072E-1,-9.635597229E0
5.354323192E0,-2.152642965E0,-9.167501926E-1,-9.649954796E0
5.364036317E0,-2.128714800E0,-9.191430211E-1,-9.628418922E0
5.373750171E0,-2.107179403E0,-9.334999323E-1,-9.628418922E0
5.383463244E0,-2.092822552E0,-9.287142754E-1,-9.604491234E0
5.393175536E0,-2.076072693E0,-9.239286184E-1,-9.573384285E0
5.402888661E0,-2.116750717E0,-9.167501926E-1,-9.578169823E0
5.412602515E0,-2.126322031E0,-9.000003934E-1,-9.599705696E0
5.422315588E0,-2.157428741E0,-8.784649968E-1,-9.637990952E0
5.432027828E0,-2.171785593E0,-8.712865710E-1,-9.628418922E0
5.441741005E0,-2.174178362E0,-8.880363107E-1,-9.647562027E0
5.451454859E0,-2.174178362E0,-9.000003934E-1,-9.652347565E0
5.461167932E0,-2.159821510E0,-9.311071038E-1,-9.628418922E0
5.470880171E0,-2.147857428E0,-9.311071038E-1,-9.640383720E0
5.480593296E0,-2.150250196E0,-9.263214469E-1,-9.633204460E0
5.490307203E0,-2.135893345E0,-9.406784177E-1,-9.623633385E0
5.500020276E0,-2.126322031E0,-9.478568435E-1,-9.616455078E0
5.509732515E0,-2.140678883E0,-9.263214469E-1,-9.616455078E0
5.519445640E0,-2.145464659E0,-9.071788788E-1,-9.604491234E0
5.529159494E0,-2.155035973E0,-8.665009141E-1,-9.597312927E0
5.538872619E0,-2.162214279E0,-8.784649968E-1,-9.635597229E0
5.548584859E0,-2.171785593E0,-8.880363107E-1,-9.633204460E0
5.558297984E0,-2.152642965E0,-9.071788788E-1,-9.640383720E0
5.568011838E0,-2.140678883E0,-9.143573642E-1,-9.637990952E0
5.577724911E0,-2.131107569E0,-9.263214469E-1,-9.628418922E0
5.587437151E0,-2.128714800E0,-9.334999323E-1,-9.635597229E0
5.597150276E0,-2.126322031E0,-9.430712461E-1,-9.609276772E0
5.606864182E0,-2.121536493E0,-9.382855892E-1,-9.635597229E0
5.616577255E0,-2.119143486E0,-9.167501926E-1,-9.626026154E0
5.626289494E0,-2.140678883E0,-9.239286184E-1,-9.637990952E0
5.636002619E0,-2.152642965E0,-9.143573642E-1,-9.642776489E0
5.645716474E0,-2.147857428E0,-8.976075649E-1,-9.661918640E0
5.655429599E0,-2.157428741E0,-9.071788788E-1,-9.661918640E0
5.665141838E0,-2.169392824E0,-9.119645357E-1,-9.664311409E0
5.674854963E0,-2.167000055E0,-9.191430211E-1,-9.626026154E0
5.684568817E0,-2.147857428E0,-9.358927608E-1,-9.614062309E0
5.694281890E0,-2.143071890E0,-9.358927608E-1,-9.602098465E0
5.703994130E0,-2.147857428E0,-9.287142754E-1,-9.585348129E0
5.713707255E0,-2.140678883E0,-9.287142754E-1,-9.606884003E0
5.723421161E0,-2.147857428E0,-9.167501926E-1,-9.616455078E0
5.733134234E0,-2.159821510E0,-9.047860503E-1,-9.606884003E0
5.742846474E0,-2.157428741E0,-8.904291391E-1,-9.640383720E0
5.752559599E0,-2.164607286E0,-8.952147961E-1,-9.647562027E0
5.762273453E0,-2.155035973E0,-8.976075649E-1,-9.645169258E0
5.771986526E0,-2.140678883E0,-8.976075649E-1,-9.642776489E0
5.781698765E0,-2.128714800E0,-8.808578253E-1,-9.609276772E0
5.791411890E0,-2.143071890E0,-8.928219676E-1,-9.602098465E0
5.801125796E0,-2.145464659E0,-8.976075649E-1,-9.611669540E0
5.810838869E0,-2.131107569E0,-9.287142754E-1,-9.626026154E0
5.820551109E0,-2.131107569E0,-9.430712461E-1,-9.645169258E0
5.830264234E0,-2.152642965E0,-9.334999323E-1,-9.676275253E0
5.839978088E0,-2.147857428E0,-9.263214469E-1,-9.640383720E0
5.849691161E0,-2.152642965E0,-9.071788788E-1,-9.614062309E0
5.859403401E0,-2.164607286E0,-8.928219676E-1,-9.614062309E0
5.869116526E0,-2.155035973E0,-8.832506537E-1,-9.633204460E0
5.878830432E0,-2.135893345E0,-8.665009141E-1,-9.628418922E0
5.888543505E0,-2.135893345E0,-8.665009141E-1,-9.611669540E0
5.898255744E0,-2.150250196E0,-8.904291391E-1,-9.626026154E0
5.907968869E0,-2.147857428E0,-9.215358496E-1,-9.642776489E0
5.917682724E0,-2.121536493E0,-9.358927608E-1,-9.659525871E0
5.927395796E0,-2.140678883E0,-9.550353289E-1,-9.659525871E0
5.937108036E0,-2.133500576E0,-9.502496719E-1,-9.637990952E0
5.946821161E0,-2.133500576E0,-9.239286184E-1,-9.594920158E0
5.956535015E0,-2.123929262E0,-9.071788788E-1,-9.578169823E0
5.966248088E0,-2.150250196E0,-9.023932219E-1,-9.597312927E0
5.975960328E0,-2.147857428E0,-9.167501926E-1,-9.597312927E0
5.985673453E0,-2.159821510E0,-9.311071038E-1,-9.630811691E0
5.995387359E0,-2.152642965E0,-9.382855892E-1,-9.630811691E0
6.005100432E0,-2.140678883E0,-9.311071038E-1,-9.633204460E0
6.014812671E0,-2.119143486E0,-9.287142754E-1,-9.621240616E0
6.024525796E0,-2.111965179E0,-9.239286184E-1,-9.616455078E0
6.034239651E0,-2.100000858E0,-9.191430211E-1,-9.606884003E0
6.043952724E0,-2.100000858E0,-9.047860503E-1,-9.618847847E0
6.053664963E0,-2.109572172E0,-9.047860503E-1,-9.630811691E0
6.063378088E0,-2.128714800E0,-8.904291391E-1,-9.633204460E0
6.073091942E0,-2.152642965E0,-8.832506537E-1,-9.611669540E0
6.082805015E0,-2.145464659E0,-8.736793399E-1,-9.623633385E0
6.092517255E0,-2.152642965E0,-8.880363107E-1,-9.611669540E0
6.102230380E0,-2.174178362E0,-8.832506537E-1,-9.621240616E0
6.111944234E0,-2.171785593E0,-8.880363107E-1,-9.633204460E0
6.121657307E0,-2.176571369E0,-9.143573642E-1,-9.637990952E0
6.131369546E0,-2.178964138E0,-9.311071038E-1,-9.654740334E0
6.141082671E0,-2.157428741E0,-9.287142754E-1,-9.649954796E0
6.150796578E0,-2.147857428E0,-9.167501926E-1,-9.642776489E0
6.160509651E0,-2.140678883E0,-9.119645357E-1,-9.637990952E0
6.170221890E0,-2.128714800E0,-9.023932219E-1,-9.628418922E0
6.179934963E0,-2.123929262E0,-8.976075649E-1,-9.616455078E0
6.189648869E0,-2.131107569E0,-9.023932219E-1,-9.628418922E0
6.199361942E0,-2.128714800E0,-9.071788788E-1,-9.623633385E0
6.209074182E0,-2.145464659E0,-9.239286184E-1,-9.635597229E0
6.218787307E0,-2.135893345E0,-9.334999323E-1,-9.626026154E0
6.228501161E0,-2.133500576E0,-9.574281573E-1,-9.628418922E0
6.238214234E0,-2.116750717E0,-9.550353289E-1,-9.635597229E0
6.247926474E0,-2.131107569E0,-9.406784177E-1,-9.621240616E0
6.257639599E0,-2.128714800E0,-9.287142754E-1,-9.621240616E0
6.267353453E0,-2.133500576E0,-9.191430211E-1,-9.626026154E0
6.277066526E0,-2.152642965E0,-9.071788788E-1,-9.633204460E0
6.286778765E0,-2.138286114E0,-9.023932219E-1,-9.621240616E0
6.296491890E0,-2.145464659E0,-8.856434822E-1,-9.602098465E0
6.306205744E0,-2.126322031E0,-8.904291391E-1,-9.602098465E0
6.315918817E0,-2.135893345E0,-8.952147961E-1,-9.623633385E0
6.325631057E0,-2.147857428E0,-9.095717072E-1,-9.628418922E0
6.335344182E0,-2.143071890E0,-9.000003934E-1,-9.628418922E0
6.345058036E0,-2.135893345E0,-9.215358496E-1,-9.628418922E0
6.354771109E0,-2.133500576E0,-9.311071038E-1,-9.637990952E0
6.364483349E0,-2.135893345E0,-9.382855892E-1,-9.630811691E0
6.374196474E0,-2.138286114E0,-9.167501926E-1,-9.630811691E0
6.383910328E0,-2.133500576E0,-9.000003934E-1,-9.628418922E0
6.393623401E0,-2.135893345E0,-9.023932219E-1,-9.637990952E0
6.403335640E0,-2.143071890E0,-8.952147961E-1,-9.635597229E0
6.413048765E0,-2.147857428E0,-8.856434822E-1,-9.626026154E0
6.422762619E0,-2.147857428E0,-8.976075649E-1,-9.623633385E0
6.432475692E0,-2.155035973E0,-8.880363107E-1,-9.640383720E0
6.442187932E0,-2.147857428E0,-8.952147961E-1,-9.621240616E0
6.451901057E0,-2.159821510E0,-8.976075649E-1,-9.604491234E0
6.461614911E0,-2.138286114E0,-9.143573642E-1,-9.599705696E0
6.471327984E0,-2.135893345E0,-9.167501926E-1,-9.616455078E0
6.481040171E0,-2.138286114E0,-9.239286184E-1,-9.630811691E0
6.490753296E0,-2.155035973E0,-9.143573642E-1,-9.630811691E0
6.500467151E0,-2.178964138E0,-8.976075649E-1,-9.621240616E0
6.510180224E0,-2.171785593E0,-9.047860503E-1,-9.626026154E0
6.519892463E0,-2.169392824E0,-9.071788788E-1,-9.611669540E0
6.529605588E0,-2.152642965E0,-9.167501926E-1,-9.597312927E0
6.539319442E0,-2.140678883E0,-9.215358496E-1,-9.597312927E0
6.549032515E0,-2.138286114E0,-9.334999323E-1,-9.621240616E0
6.558744755E0,-2.126322031E0,-9.478568435E-1,-9.640383720E0
6.568457880E0,-2.123929262E0,-9.239286184E-1,-9.633204460E0
6.578171734E0,-2.123929262E0,-9.023932219E-1,-9.618847847E0
6.587884807E0,-2.150250196E0,-8.736793399E-1,-9.623633385E0
6.597597046E0,-2.159821510E0,-8.593224287E-1,-9.614062309E0
6.607310171E0,-2.155035973E0,-8.665009141E-1,-9.623633385E0
6.617024026E0,-2.152642965E0,-8.784649968E-1,-9.642776489E0
6.626737099E0,-2.150250196E0,-8.904291391E-1,-9.623633385E0
6.636449286E0,-2.138286114E0,-9.023932219E-1,-9.637990952E0
6.646162411E0,-2.145464659E0,-9.191430211E-1,-9.654740334E0
6.655876265E0,-2.147857428E0,-9.311071038E-1,-9.661918640E0
6.665589338E0,-2.135893345E0,-9.287142754E-1,-9.642776489E0
6.675301578E0,-2.143071890E0,-9.215358496E-1,-9.609276772E0
6.685014703E0,-2.133500576E0,-9.119645357E-1,-9.594920158E0
6.694728557E0,-2.138286114E0,-9.119645357E-1,-9.597312927E0
6.704441630E0,-2.155035973E0,-9.071788788E-1,-9.592526436E0
6.714153869E0,-2.152642965E0,-9.215358496E-1,-9.614062309E0
6.723866994E0,-2.150250196E0,-9.478568435E-1,-9.642776489E0
6.733580849E0,-2.150250196E0,-9.406784177E-1,-9.652347565E0
6.743293921E0,-2.133500576E0,-9.454640746E-1,-9.630811691E0
6.753006109E0,-2.140678883E0,-9.382855892E-1,-9.618847847E0
6.762719234E0,-2.121536493E0,-9.239286184E-1,-9.604491234E0
6.772433088E0,-2.111965179E0,-9.215358496E-1,-9.628418922E0
6.782146161E0,-2.119143486E0,-9.263214469E-1,-9.611669540E0
6.791858401E0,-2.107179403E0,-9.143573642E-1,-9.602098465E0
6.801571526E0,-2.121536493E0,-9.071788788E-1,-9.599705696E0
6.811285380E0,-2.133500576E0,-8.928219676E-1,-9.614062309E0
6.820998453E0,-2.143071890E0,-8.760721684E-1,-9.618847847E0
6.830710640E0,-2.152642965E0,-8.736793399E-1,-9.637990952E0
6.840423765E0,-2.164607286E0,-8.760721684E-1,-9.630811691E0
6.850137619E0,-2.176571369E0,-8.856434822E-1,-9.626026154E0
6.859850692E0,-2.152642965E0,-9.023932219E-1,-9.623633385E0
6.869562932E0,-2.128714800E0,-9.215358496E-1,-9.647562027E0
6.879276057E0,-2.138286114E0,-9.430712461E-1,-9.628418922E0
6.888989911E0,-2.104786634E0,-9.382855892E-1,-9.640383720E0
6.898702984E0,-2.111965179E0,-9.334999323E-1,-9.621240616E0
6.908415171E0,-2.133500576E0,-9.000003934E-1,-9.626026154E0
6.918128296E0,-2.133500576E0,-8.952147961E-1,-9.614062309E0
6.927842151E0,-2.143071890E0,-8.904291391E-1,-9.623633385E0
6.937555224E0,-2.159821510E0,-8.928219676E-1,-9.635597229E0
6.947267411E0,-2.162214279E0,-8.976075649E-1,-9.623633385E0
6.956980536E0,-2.147857428E0,-9.143573642E-1,-9.628418922E0
6.966694390E0,-2.135893345E0,-9.382855892E-1,-9.628418922E0
6.976407463E0,-2.135893345E0,-9.334999323E-1,-9.628418922E0
6.986119703E0,-2.123929262E0,-9.263214469E-1,-9.626026154E0
6.995832828E0,-2.135893345E0,-9.263214469E-1,-9.614062309E0
7.005546682E0,-2.119143486E0,-9.000003934E-1,-9.611669540E0
7.015259703E0,-2.138286114E0,-9.000003934E-1,-9.606884003E0
7.024971942E0,-2.133500576E0,-9.239286184E-1,-9.618847847E0
7.034685067E0,-2.133500576E0,-9.071788788E-1,-9.616455078E0
7.044398921E0,-2.135893345E0,-9.119645357E-1,-9.635597229E0
7.054111994E0,-2.135893345E0,-9.143573642E-1,-9.640383720E0
7.063824182E0,-2.162214279E0,-9.167501926E-1,-9.630811691E0
7.073537307E0,-2.164607286E0,-9.071788788E-1,-9.628418922E0
7.083251161E0,-2.155035973E0,-9.095717072E-1,-9.614062309E0
7.092964234E0,-2.145464659E0,-9.191430211E-1,-9.604491234E0
7.102676474E0,-2.143071890E0,-9.263214469E-1,-9.606884003E0
7.112389546E0,-2.145464659E0,-9.430712461E-1,-9.614062309E0
7.122103401E0,-2.143071890E0,-9.311071038E-1,-9.635597229E0
7.131816474E0,-2.150250196E0,-9.263214469E-1,-9.645169258E0
7.141528713E0,-2.152642965E0,-9.143573642E-1,-9.637990952E0
7.151241838E0,-2.171785593E0,-9.167501926E-1,-9.628418922E0
7.160955640E0,-2.159821510E0,-9.143573642E-1,-9.630811691E0
7.170668713E0,-2.135893345E0,-9.191430211E-1,-9.630811691E0
7.180380953E0,-2.131107569E0,-9.263214469E-1,-9.630811691E0
7.190094078E0,-2.140678883E0,-9.119645357E-1,-9.635597229E0
7.199807932E0,-2.138286114E0,-9.047860503E-1,-9.599705696E0
7.209520953E0,-2.147857428E0,-8.880363107E-1,-9.604491234E0
7.219233192E0,-2.157428741E0,-8.832506537E-1,-9.614062309E0
7.228946317E0,-2.162214279E0,-9.095717072E-1,-9.623633385E0
7.238660171E0,-2.167000055E0,-9.239286184E-1,-9.630811691E0
7.248373192E0,-2.152642965E0,-9.646066427E-1,-9.637990952E0
7.258085432E0,-2.123929262E0,-9.669994712E-1,-9.645169258E0
7.267798557E0,-2.131107569E0,-9.574281573E-1,-9.618847847E0
7.277512411E0,-2.114357948E0,-9.239286184E-1,-9.592526436E0
7.287225432E0,-2.133500576E0,-8.952147961E-1,-9.599705696E0
7.296937671E0,-2.145464659E0,-8.784649968E-1,-9.614062309E0
7.306650796E0,-2.138286114E0,-8.952147961E-1,-9.635597229E0
7.316364651E0,-2.109572172E0,-9.023932219E-1,-9.614062309E0
7.326077724E0,-2.111965179E0,-9.023932219E-1,-9.616455078E0
7.335789911E0,-2.128714800E0,-9.047860503E-1,-9.623633385E0
7.345503036E0,-2.155035973E0,-9.143573642E-1,-9.640383720E0
7.355216890E0,-2.155035973E0,-9.334999323E-1,-9.659525871E0
7.364929963E0,-2.167000055E0,-9.215358496E-1,-9.654740334E0
7.374642151E0,-2.174178362E0,-9.358927608E-1,-9.635597229E0
7.384355276E0,-2.178964138E0,-9.382855892E-1,-9.628418922E0
7.394069130E0,-2.174178362E0,-9.358927608E-1,-9.616455078E0
7.403782151E0,-2.159821510E0,-9.239286184E-1,-9.618847847E0
7.413494390E0,-2.159821510E0,-9.071788788E-1,-9.606884003E0
7.423207515E0,-2.147857428E0,-8.976075649E-1,-9.614062309E0
7.432921369E0,-2.162214279E0,-8.856434822E-1,-9.599705696E0
7.442634390E0,-2.140678883E0,-8.856434822E-1,-9.611669540E0
7.452346630E0,-2.135893345E0,-8.688937426E-1,-9.611669540E0
7.462059755E0,-2.147857428E0,-8.760721684E-1,-9.611669540E0
7.471773557E0,-2.147857428E0,-8.928219676E-1,-9.618847847E0
7.481486630E0,-2.145464659E0,-8.952147961E-1,-9.645169258E0
7.491198869E0,-2.140678883E0,-9.000003934E-1,-9.642776489E0
7.500911942E0,-2.128714800E0,-9.239286184E-1,-9.652347565E0
7.510625796E0,-2.097608089E0,-9.358927608E-1,-9.690632820E0
7.520338869E0,-2.083251238E0,-9.454640746E-1,-9.678668022E0
7.530051109E0,-2.092822552E0,-9.287142754E-1,-9.659525871E0
7.539764182E0,-2.121536493E0,-9.119645357E-1,-9.599705696E0
7.549478036E0,-2.123929262E0,-8.952147961E-1,-9.561420441E0
7.559191109E0,-2.145464659E0,-8.832506537E-1,-9.559027672E0
7.568903296E0,-2.135893345E0,-8.832506537E-1,-9.611669540E0
7.578616421E0,-2.123929262E0,-9.334999323E-1,-9.673882484E0
7.588330276E0,-2.119143486E0,-9.789635539E-1,-9.704989433E0
7.598043296E0,-2.121536493E0,-1.000499010E0,-9.695418358E0
7.607755536E0,-2.128714800E0,-1.002891779E0,-9.669096947E0
7.617468661E0,-2.157428741E0,-9.693922997E-1,-9.649954796E0
7.627182463E0,-2.167000055E0,-9.311071038E-1,-9.621240616E0
7.636895536E0,-2.176571369E0,-9.000003934E-1,-9.575777054E0
7.646607776E0,-2.188535452E0,-8.832506537E-1,-9.563813210E0
7.656320849E0,-2.193320990E0,-8.712865710E-1,-9.592526436E0
7.666034703E0,-2.178964138E0,-8.784649968E-1,-9.635597229E0
7.675747776E0,-2.174178362E0,-8.856434822E-1,-9.630811691E0
7.685459963E0,-2.155035973E0,-8.832506537E-1,-9.640383720E0
7.695173088E0,-2.126322031E0,-9.000003934E-1,-9.628418922E0
7.704886942E0,-2.107179403E0,-9.287142754E-1,-9.623633385E0
7.714599963E0,-2.090429783E0,-9.358927608E-1,-9.597312927E0
7.724312203E0,-2.080858469E0,-9.430712461E-1,-9.575777054E0
7.734025328E0,-2.104786634E0,-9.550353289E-1,-9.590133667E0
7.743739130E0,-2.126322031E0,-9.334999323E-1,-9.621240616E0
7.753452203E0,-2.164607286E0,-9.263214469E-1,-9.626026154E0
7.763164442E0,-2.169392824E0,-9.167501926E-1,-9.645169258E0
7.772877515E0,-2.181356907E0,-9.095717072E-1,-9.649954796E0
7.782591369E0,-2.174178362E0,-9.095717072E-1,-9.647562027E0
7.792304442E0,-2.135893345E0,-9.263214469E-1,-9.637990952E0
7.802016630E0,-2.121536493E0,-9.311071038E-1,-9.637990952E0
7.811729755E0,-2.131107569E0,-9.358927608E-1,-9.628418922E0
7.821443557E0,-2.116750717E0,-9.382855892E-1,-9.654740334E0
7.831156630E0,-2.135893345E0,-9.406784177E-1,-9.635597229E0
7.840868817E0,-2.167000055E0,-9.191430211E-1,-9.637990952E0
7.850581942E0,-2.167000055E0,-8.976075649E-1,-9.657133102E0
7.860295796E0,-2.155035973E0,-8.928219676E-1,-9.657133102E0
7.870008817E0,-2.164607286E0,-8.904291391E-1,-9.645169258E0
7.879721057E0,-2.155035973E0,-9.047860503E-1,-9.642776489E0
7.889434182E0,-2.133500576E0,-9.191430211E-1,-9.649954796E0
7.899147984E0,-2.131107569E0,-9.430712461E-1,-9.649954796E0
7.908861057E0,-2.116750717E0,-9.454640746E-1,-9.611669540E0
7.918573244E0,-2.123929262E0,-9.239286184E-1,-9.590133667E0
7.928286369E0,-2.128714800E0,-9.143573642E-1,-9.582955360E0
7.938000224E0,-2.135893345E0,-8.976075649E-1,-9.621240616E0
7.947713244E0,-2.131107569E0,-8.904291391E-1,-9.645169258E0
7.957425484E0,-2.128714800E0,-8.688937426E-1,-9.621240616E0
7.967138557E0,-2.128714800E0,-8.617152572E-1,-9.609276772E0
7.976852411E0,-2.128714800E0,-8.736793399E-1,-9.602098465E0
7.986565484E0,-2.133500576E0,-8.976075649E-1,-9.599705696E0
7.996277671E0,-2.119143486E0,-9.191430211E-1,-9.604491234E0
8.005990796E0,-2.138286114E0,-9.215358496E-1,-9.621240616E0
8.015704651E0,-2.138286114E0,-9.311071038E-1,-9.626026154E0
8.025417671E0,-2.155035973E0,-9.406784177E-1,-9.618847847E0
8.035129911E0,-2.140678883E0,-9.311071038E-1,-9.609276772E0
8.044842984E0,-2.157428741E0,-9.287142754E-1,-9.611669540E0
8.054556838E0,-2.152642965E0,-9.191430211E-1,-9.640383720E0
8.064269911E0,-2.147857428E0,-9.239286184E-1,-9.635597229E0
8.073982099E0,-2.138286114E0,-8.976075649E-1,-9.628418922E0
8.083695171E0,-2.123929262E0,-8.928219676E-1,-9.642776489E0
8.093409026E0,-2.123929262E0,-8.856434822E-1,-9.652347565E0
8.103122099E0,-2.119143486E0,-8.976075649E-1,-9.659525871E0
8.112834286E0,-2.095215321E0,-9.191430211E-1,-9.657133102E0
8.122547411E0,-2.116750717E0,-9.311071038E-1,-9.647562027E0
8.132261213E0,-2.128714800E0,-9.215358496E-1,-9.652347565E0
8.141974286E0,-2.143071890E0,-9.119645357E-1,-9.630811691E0
8.151686474E0,-2.164607286E0,-9.167501926E-1,-9.616455078E0
8.161399599E0,-2.133500576E0,-9.287142754E-1,-9.623633385E0
8.171113453E0,-2.135893345E0,-9.143573642E-1,-9.609276772E0
8.180826474E0,-2.133500576E0,-9.287142754E-1,-9.611669540E0
8.190538713E0,-2.145464659E0,-9.215358496E-1,-9.618847847E0
8.200251786E0,-2.128714800E0,-9.071788788E-1,-9.628418922E0
8.209965640E0,-2.143071890E0,-9.119645357E-1,-9.635597229E0
8.219678661E0,-2.145464659E0,-9.023932219E-1,-9.647562027E0
8.229390901E0,-2.152642965E0,-9.167501926E-1,-9.661918640E0
8.239103974E0,-2.157428741E0,-9.215358496E-1,-9.652347565E0
8.248817828E0,-2.150250196E0,-9.287142754E-1,-9.647562027E0
8.258530849E0,-2.155035973E0,-9.239286184E-1,-9.618847847E0
8.268243088E0,-2.145464659E0,-9.311071038E-1,-9.609276772E0
8.277956161E0,-2.152642965E0,-9.191430211E-1,-9.599705696E0
8.287670015E0,-2.140678883E0,-9.143573642E-1,-9.599705696E0
8.297383088E0,-2.131107569E0,-9.167501926E-1,-9.604491234E0
8.307095276E0,-2.116750717E0,-8.976075649E-1,-9.621240616E0
8.316808401E0,-2.126322031E0,-8.736793399E-1,-9.616455078E0
8.326522203E0,-2.111965179E0,-8.880363107E-1,-9.647562027E0
8.336235276E0,-2.100000858E0,-9.047860503E-1,-9.671489716E0
8.345947463E0,-2.111965179E0,-9.071788788E-1,-9.685847282E0
8.355660588E0,-2.126322031E0,-9.239286184E-1,-9.652347565E0
8.365374390E0,-2.135893345E0,-9.167501926E-1,-9.628418922E0
8.375087463E0,-2.114357948E0,-9.215358496E-1,-9.614062309E0
8.384799651E0,-2.121536493E0,-9.215358496E-1,-9.606884003E0
8.394512776E0,-2.140678883E0,-9.382855892E-1,-9.623633385E0
8.404226578E0,-2.159821510E0,-9.191430211E-1,-9.642776489E0
8.413939651E0,-2.164607286E0,-9.095717072E-1,-9.630811691E0
8.423651838E0,-2.159821510E0,-9.119645357E-1,-9.640383720E0
8.433364963E0,-2.155035973E0,-9.263214469E-1,-9.621240616E0
8.443078765E0,-2.135893345E0,-9.334999323E-1,-9.654740334E0
8.452791838E0,-2.128714800E0,-9.358927608E-1,-9.652347565E0
8.462504026E0,-2.133500576E0,-9.334999323E-1,-9.621240616E0
8.472217151E0,-2.133500576E0,-9.143573642E-1,-9.630811691E0
8.481930953E0,-2.135893345E0,-9.023932219E-1,-9.633204460E0
8.491644026E0,-2.143071890E0,-8.976075649E-1,-9.611669540E0
8.501356213E0,-2.152642965E0,-8.904291391E-1,-9.602098465E0
8.511069338E0,-2.164607286E0,-8.784649968E-1,-9.623633385E0
8.520783140E0,-2.162214279E0,-8.832506537E-1,-9.640383720E0
8.530496213E0,-2.155035973E0,-9.047860503E-1,-9.637990952E0
8.540208401E0,-2.157428741E0,-9.119645357E-1,-9.647562027E0
8.549921474E0,-2.143071890E0,-9.263214469E-1,-9.635597229E0
8.559635328E0,-2.128714800E0,-9.478568435E-1,-9.618847847E0
8.569348349E0,-2.116750717E0,-9.287142754E-1,-9.611669540E0
8.579060588E0,-2.133500576E0,-9.143573642E-1,-9.606884003E0
8.588773661E0,-2.145464659E0,-9.095717072E-1,-9.611669540E0
8.598487515E0,-2.135893345E0,-8.832506537E-1,-9.616455078E0
8.608200536E0,-2.133500576E0,-8.856434822E-1,-9.628418922E0
8.617912776E0,-2.140678883E0,-8.808578253E-1,-9.654740334E0
8.627625849E0,-2.155035973E0,-8.856434822E-1,-9.649954796E0
8.637339703E0,-2.159821510E0,-8.880363107E-1,-9.666704178E0
8.647052724E0,-2.164607286E0,-9.023932219E-1,-9.652347565E0
8.656764911E0,-2.174178362E0,-9.287142754E-1,-9.664311409E0
8.666478036E0,-2.162214279E0,-9.406784177E-1,-9.642776489E0
8.676191890E0,-2.150250196E0,-9.574281573E-1,-9.621240616E0
8.685904911E0,-2.155035973E0,-9.693922997E-1,-9.616455078E0
8.695617099E0,-2.131107569E0,-9.646066427E-1,-9.618847847E0
8.705330224E0,-2.131107569E0,-9.430712461E-1,-9.630811691E0
8.715044078E0,-2.123929262E0,-9.263214469E-1,-9.635597229E0
8.724757099E0,-2.119143486E0,-9.071788788E-1,-9.633204460E0
8.734469286E0,-2.121536493E0,-8.880363107E-1,-9.647562027E0
8.744182411E0,-2.116750717E0,-8.808578253E-1,-9.640383720E0
8.753896213E0,-2.123929262E0,-8.736793399E-1,-9.637990952E0
8.763609286E0,-2.128714800E0,-8.712865710E-1,-9.649954796E0
8.773321474E0,-2.131107569E0,-8.856434822E-1,-9.628418922E0
8.783034546E0,-2.126322031E0,-9.000003934E-1,-9.623633385E0
8.792748401E0,-2.140678883E0,-9.287142754E-1,-9.621240616E0
8.802461474E0,-2.147857428E0,-9.358927608E-1,-9.630811691E0
8.812173661E0,-2.150250196E0,-9.382855892E-1,-9.623633385E0
8.821886734E0,-2.143071890E0,-9.382855892E-1,-9.616455078E0
8.831600588E0,-2.138286114E0,-9.478568435E-1,-9.618847847E0
8.841313609E0,-2.138286114E0,-9.215358496E-1,-9.635597229E0
8.851025849E0,-2.145464659E0,-8.832506537E-1,-9.635597229E0
8.860738921E0,-2.155035973E0,-8.569296002E-1,-9.633204460E0
8.870452724E0,-2.171785593E0,-8.593224287E-1,-9.657133102E0
8.880165796E0,-2.169392824E0,-8.641080856E-1,-9.661918640E0
8.889877984E0,-2.147857428E0,-9.023932219E-1,-9.661918640E0
8.899591109E0,-2.135893345E0,-9.287142754E-1,-9.637990952E0
8.909304911E0,-2.116750717E0,-9.646066427E-1,-9.630811691E0
8.919017984E0,-2.107179403E0,-9.598209858E-1,-9.606884003E0
8.928730171E0,-2.116750717E0,-9.430712461E-1,-9.597312927E0
8.938443244E0,-2.131107569E0,-9.095717072E-1,-9.604491234E0
8.948157099E0,-2.138286114E0,-9.119645357E-1,-9.630811691E0
8.957870119E0,-2.143071890E0,-9.047860503E-1,-9.652347565E0
8.967582359E0,-2.138286114E0,-9.119645357E-1,-9.666704178E0
8.977295432E0,-2.157428741E0,-9.191430211E-1,-9.685847282E0
8.987009286E0,-2.152642965E0,-9.095717072E-1,-9.673882484E0
8.996722307E0,-2.159821510E0,-8.928219676E-1,-9.649954796E0
9.006434494E0,-2.157428741E0,-9.143573642E-1,-9.637990952E0
9.016147619E0,-2.138286114E0,-9.143573642E-1,-9.604491234E0
9.025861421E0,-2.131107569E0,-9.239286184E-1,-9.597312927E0
9.035574494E0,-2.140678883E0,-9.334999323E-1,-9.582955360E0
9.045286682E0,-2.150250196E0,-9.622138143E-1,-9.606884003E0
9.054999755E0,-2.145464659E0,-9.622138143E-1,-9.609276772E0
9.064713609E0,-2.143071890E0,-9.358927608E-1,-9.628418922E0
9.074426630E0,-2.135893345E0,-9.358927608E-1,-9.647562027E0
9.084138869E0,-2.150250196E0,-9.263214469E-1,-9.642776489E0
9.093851942E0,-2.143071890E0,-8.880363107E-1,-9.635597229E0
9.103565744E0,-2.135893345E0,-8.880363107E-1,-9.623633385E0
9.113278817E0,-2.145464659E0,-8.880363107E-1,-9.635597229E0
9.122991005E0,-2.152642965E0,-8.808578253E-1,-9.642776489E0
9.132704130E0,-2.152642965E0,-8.736793399E-1,-9.645169258E0
9.142417932E0,-2.176571369E0,-8.784649968E-1,-9.647562027E0
9.152130953E0,-2.167000055E0,-8.856434822E-1,-9.637990952E0
9.161843192E0,-2.162214279E0,-9.047860503E-1,-9.628418922E0
9.171556265E0,-2.123929262E0,-9.143573642E-1,-9.657133102E0
9.181270119E0,-2.116750717E0,-9.191430211E-1,-9.652347565E0
9.190983140E0,-2.131107569E0,-9.143573642E-1,-9.640383720E0
9.200695328E0,-2.150250196E0,-9.023932219E-1,-9.626026154E0
9.210408453E0,-2.171785593E0,-8.952147961E-1,-9.618847847E0
9.220122255E0,-2.188535452E0,-9.047860503E-1,-9.637990952E0
9.229835328E0,-2.171785593E0,-9.047860503E-1,-9.647562027E0
9.239547515E0,-2.157428741E0,-9.119645357E-1,-9.649954796E0
9.249260588E0,-2.145464659E0,-9.406784177E-1,-9.635597229E0
9.258974442E0,-2.195713997E0,-8.784649968E-1,-9.637990952E0
9.268687463E0,-2.152642965E0,-8.928219676E-1,-9.633204460E0
9.278399651E0,-2.150250196E0,-9.143573642E-1,-9.630811691E0
9.288112724E0,-2.150250196E0,-9.430712461E-1,-9.604491234E0
9.297826578E0,-2.171785593E0,-9.334999323E-1,-9.597312927E0
9.307539599E0,-2.155035973E0,-9.550353289E-1,-9.599705696E0
9.317251838E0,-2.152642965E0,-9.478568435E-1,-9.606884003E0
9.326964911E0,-2.150250196E0,-9.550353289E-1,-9.626026154E0
9.336678765E0,-2.138286114E0,-9.741778970E-1,-9.602098465E0
9.346391786E0,-2.178964138E0,-9.215358496E-1,-9.609276772E0
9.356103974E0,-2.119143486E0,-9.047860503E-1,-9.623633385E0
9.365817046E0,-2.083251238E0,-9.071788788E-1,-9.621240616E0
9.375530901E0,-2.083251238E0,-9.047860503E-1,-9.599705696E0
9.385243921E0,-2.080858469E0,-8.856434822E-1,-9.628418922E0
9.394956161E0,-2.100000858E0,-8.665009141E-1,-9.637990952E0
9.404669234E0,-2.100000858E0,-8.569296002E-1,-9.640383720E0
9.414383036E0,-2.109572172E0,-8.497511148E-1,-9.649954796E0
9.424096109E0,-2.119143486E0,-8.641080856E-1,-9.647562027E0
9.433808296E0,-2.131107569E0,-8.832506537E-1,-9.630811691E0
9.443521369E0,-2.138286114E0,-8.928219676E-1,-9.630811691E0
9.453235224E0,-2.128714800E0,-9.239286184E-1,-9.633204460E0
9.462948244E0,-2.155035973E0,-9.598209858E-1,-9.657133102E0
9.472660432E0,-2.164607286E0,-9.646066427E-1,-9.637990952E0
9.482373557E0,-2.169392824E0,-9.669994712E-1,-9.669096947E0
9.492087359E0,-2.162214279E0,-9.550353289E-1,-9.678668022E0
9.501800380E0,-2.169392824E0,-9.574281573E-1,-9.678668022E0
9.511512619E0,-2.128714800E0,-9.334999323E-1,-9.664311409E0
9.521225692E0,-2.107179403E0,-9.047860503E-1,-9.642776489E0
9.530939494E0,-2.088036776E0,-9.000003934E-1,-9.635597229E0
9.540652567E0,-2.085644007E0,-8.808578253E-1,-9.606884003E0
9.550364755E0,-2.097608089E0,-9.000003934E-1,-9.575777054E0
9.560077828E0,-2.088036776E0,-9.430712461E-1,-9.578169823E0
9.569791682E0,-2.088036776E0,-9.669994712E-1,-9.585348129E0
9.579504703E0,-2.092822552E0,-9.909276962E-1,-9.626026154E0
9.589216890E0,-2.121536493E0,-9.837492108E-1,-9.647562027E0
9.598930015E0,-2.159821510E0,-9.526425004E-1,-9.654740334E0
9.608643817E0,-2.193320990E0,-9.263214469E-1,-9.669096947E0
9.618356838E0,-2.200499535E0,-9.119645357E-1,-9.669096947E0
9.628069078E0,-2.195713997E0,-8.928219676E-1,-9.695418358E0
9.637782151E0,-2.181356907E0,-8.784649968E-1,-9.673882484E0
9.647495953E0,-2.157428741E0,-8.712865710E-1,-9.645169258E0
9.657209026E0,-2.147857428E0,-8.856434822E-1,-9.616455078E0
9.666921213E0,-2.131107569E0,-8.808578253E-1,-9.582955360E0
9.676634286E0,-2.135893345E0,-8.904291391E-1,-9.570991516E0
9.686348140E0,-2.145464659E0,-9.095717072E-1,-9.580562592E0
9.696061161E0,-2.152642965E0,-9.263214469E-1,-9.611669540E0
9.705773349E0,-2.164607286E0,-9.358927608E-1,-9.645169258E0
9.715486421E0,-2.159821510E0,-9.406784177E-1,-9.681061745E0
9.725200276E0,-2.162214279E0,-9.263214469E-1,-9.671489716E0
9.734913296E0,-2.152642965E0,-9.167501926E-1,-9.657133102E0
9.744625484E0,-2.162214279E0,-9.023932219E-1,-9.633204460E0
9.754338609E0,-2.145464659E0,-9.000003934E-1,-9.599705696E0
9.764052411E0,-2.152642965E0,-8.976075649E-1,-9.611669540E0
9.773765432E0,-2.143071890E0,-8.928219676E-1,-9.614062309E0
9.783477619E0,-2.145464659E0,-8.928219676E-1,-9.616455078E0
9.793190744E0,-2.147857428E0,-9.215358496E-1,-9.602098465E0
9.802904546E0,-2.131107569E0,-9.239286184E-1,-9.626026154E0
9.812617619E0,-2.121536493E0,-9.167501926E-1,-9.633204460E0
9.822329807E0,-2.109572172E0,-9.023932219E-1,-9.623633385E0
9.832042880E0,-2.152642965E0,-8.928219676E-1,-9.621240616E0
9.841756682E0,-2.155035973E0,-8.808578253E-1,-9.621240616E0
9.851469755E0,-2.159821510E0,-8.856434822E-1,-9.618847847E0
9.861181942E0,-2.157428741E0,-8.880363107E-1,-9.654740334E0
9.870895015E0,-2.143071890E0,-9.071788788E-1,-9.669096947E0
9.880608869E0,-2.145464659E0,-9.215358496E-1,-9.676275253E0
9.890321890E0,-2.162214279E0,-9.358927608E-1,-9.666704178E0
9.900034078E0,-2.167000055E0,-9.382855892E-1,-9.666704178E0
9.909747151E0,-2.169392824E0,-9.263214469E-1,-9.621240616E0
9.919461005E0,-2.159821510E0,-9.287142754E-1,-9.602098465E0
9.929174026E0,-2.157428741E0,-9.406784177E-1,-9.590133667E0
9.938886213E0,-2.147857428E0,-9.406784177E-1,-9.585348129E0
9.948599286E0,-2.128714800E0,-9.454640746E-1,-9.585348129E0
9.958313140E0,-2.145464659E0,-9.574281573E-1,-9.604491234E0
9.968026161E0,-2.152642965E0,-9.334999323E-1,-9.628418922E0
9.977738349E0,-2.155035973E0,-9.167501926E-1,-9.652347565E0
9.987451474E0,-2.164607286E0,-9.071788788E-1,-9.661918640E0
9.997165276E0,-2.159821510E0,-8.976075649E-1,-9.673882484E0
1.000687830E1,-2.155035973E0,-8.904291391E-1,-9.666704178E0
1.001659048E1,-2.133500576E0,-9.000003934E-1,-9.645169258E0
1.002630361E1,-2.138286114E0,-8.952147961E-1,-9.614062309E0
1.003601741E1,-2.147857428E0,-8.880363107E-1,-9.597312927E0
1.004573043E1,-2.145464659E0,-9.047860503E-1,-9.590133667E0
1.005544262E1,-2.143071890E0,-9.000003934E-1,-9.597312927E0
1.006515574E1,-2.145464659E0,-9.047860503E-1,-9.611669540E0
1.007486955E1,-2.164607286E0,-9.167501926E-1,-9.640383720E0
1.008458257E1,-2.176571369E0,-9.047860503E-1,-9.657133102E0
1.009429476E1,-2.169392824E0,-9.311071038E-1,-9.676275253E0
1.010400788E1,-2.164607286E0,-9.550353289E-1,-9.669096947E0
1.011372168E1,-2.147857428E0,-9.598209858E-1,-9.654740334E0
1.012343470E1,-2.138286114E0,-9.430712461E-1,-9.630811691E0
1.013314689E1,-2.123929262E0,-9.215358496E-1,-9.611669540E0
1.014286002E1,-2.126322031E0,-9.239286184E-1,-9.606884003E0
1.015257382E1,-2.131107569E0,-9.143573642E-1,-9.616455078E0
1.016228684E1,-2.143071890E0,-9.071788788E-1,-9.623633385E0
1.017199903E1,-2.123929262E0,-9.358927608E-1,-9.645169258E0
1.018171215E1,-2.111965179E0,-9.502496719E-1,-9.652347565E0
1.019142595E1,-2.111965179E0,-9.693922997E-1,-9.635597229E0
1.020113897E1,-2.092822552E0,-9.669994712E-1,-9.618847847E0
1.021085116E1,-2.111965179E0,-9.478568435E-1,-9.602098465E0
1.022056429E1,-2.097608089E0,-9.311071038E-1,-9.616455078E0
1.023027809E1,-2.095215321E0,-9.167501926E-1,-9.626026154E0
1.023999111E1,-2.107179403E0,-8.904291391E-1,-9.647562027E0
1.024970330E1,-2.145464659E0,-8.904291391E-1,-9.657133102E0
1.025941642E1,-2.174178362E0,-8.760721684E-1,-9.659525871E0
1.026913022E1,-2.186142683E0,-8.736793399E-1,-9.657133102E0
1.027884324E1,-2.217249393E0,-8.952147961E-1,-9.654740334E0
1.028855543E1,-2.212463617E0,-9.071788788E-1,-9.664311409E0
1.029826851E1,-2.205285072E0,-9.119645357E-1,-9.640383720E0
1.030798236E1,-2.202892303E0,-9.287142754E-1,-9.630811691E0
1.031769538E1,-2.174178362E0,-9.334999323E-1,-9.626026154E0
1.032740757E1,-2.164607286E0,-9.263214469E-1,-9.621240616E0
1.033712064E1,-2.176571369E0,-9.334999323E-1,-9.628418922E0
1.034683449E1,-2.171785593E0,-9.263214469E-1,-9.616455078E0
1.035654752E1,-2.162214279E0,-9.382855892E-1,-9.614062309E0
1.036625970E1,-2.147857428E0,-9.382855892E-1,-9.609276772E0
1.037597278E1,-2.155035973E0,-9.071788788E-1,-9.592526436E0
1.038568663E1,-2.150250196E0,-8.832506537E-1,-9.602098465E0
1.039539965E1,-2.140678883E0,-8.928219676E-1,-9.618847847E0
1.040511184E1,-2.126322031E0,-9.143573642E-1,-9.626026154E0
1.041482491E1,-2.143071890E0,-9.430712461E-1,-9.628418922E0
1.042453877E1,-2.143071890E0,-9.406784177E-1,-9.649954796E0
1.043425179E1,-2.159821510E0,-9.478568435E-1,-9.649954796E0
1.044396397E1,-2.155035973E0,-9.263214469E-1,-9.645169258E0
1.045367705E1,-2.138286114E0,-9.167501926E-1,-9.640383720E0
1.046339090E1,-2.174178362E0,-9.023932219E-1,-9.623633385E0
1.047310392E1,-2.174178362E0,-9.167501926E-1,-9.618847847E0
1.048281611E1,-2.157428741E0,-9.143573642E-1,-9.606884003E0
1.049252918E1,-2.135893345E0,-9.191430211E-1,-9.597312927E0
1.050224298E1,-2.133500576E0,-9.311071038E-1,-9.630811691E0
1.051195600E1,-2.155035973E0,-9.334999323E-1,-9.640383720E0
1.052166824E1,-2.147857428E0,-9.454640746E-1,-9.649954796E0
1.053138132E1,-2.143071890E0,-9.502496719E-1,-9.637990952E0
1.054109512E1,-2.150250196E0,-9.287142754E-1,-9.645169258E0
1.055080814E1,-2.164607286E0,-9.239286184E-1,-9.640383720E0
1.056052033E1,-2.167000055E0,-9.191430211E-1,-9.628418922E0
1.057023345E1,-2.164607286E0,-9.358927608E-1,-9.642776489E0
1.057994726E1,-2.181356907E0,-9.263214469E-1,-9.637990952E0
1.058966028E1,-2.188535452E0,-9.119645357E-1,-9.623633385E0
1.059937246E1,-2.164607286E0,-9.311071038E-1,-9.623633385E0
1.060908554E1,-2.145464659E0,-9.334999323E-1,-9.628418922E0
1.061879939E1,-2.111965179E0,-9.406784177E-1,-9.602098465E0
1.062851241E1,-2.107179403E0,-9.239286184E-1,-9.604491234E0
1.063822460E1,-2.104786634E0,-8.880363107E-1,-9.611669540E0
1.064793767E1,-2.116750717E0,-8.760721684E-1,-9.630811691E0
1.065765147E1,-2.111965179E0,-8.665009141E-1,-9.647562027E0
1.066736455E1,-2.116750717E0,-8.617152572E-1,-9.664311409E0
1.067707673E1,-2.114357948E0,-8.593224287E-1,-9.652347565E0
1.068678981E1,-2.145464659E0,-8.712865710E-1,-9.652347565E0
1.069650361E1,-2.140678883E0,-8.880363107E-1,-9.633204460E0
1.070621663E1,-2.145464659E0,-9.119645357E-1,-9.626026154E0
1.071592882E1,-2.143071890E0,-9.191430211E-1,-9.590133667E0
1.072564194E1,-2.159821510E0,-9.334999323E-1,-9.597312927E0
1.073535574E1,-2.152642965E0,-9.406784177E-1,-9.628418922E0
1.074506877E1,-2.162214279E0,-9.502496719E-1,-9.630811691E0
1.075478095E1,-2.169392824E0,-9.430712461E-1,-9.645169258E0
1.076449403E1,-2.164607286E0,-9.334999323E-1,-9.640383720E0
1.077420788E1,-2.159821510E0,-9.143573642E-1,-9.628418922E0
1.078392090E1,-2.174178362E0,-9.095717072E-1,-9.635597229E0
1.079363309E1,-2.155035973E0,-9.095717072E-1,-9.635597229E0
1.080334616E1,-2.150250196E0,-9.191430211E-1,-9.628418922E0
1.081305996E1,-2.150250196E0,-9.311071038E-1,-9.604491234E0
1.082277304E1,-2.162214279E0,-9.287142754E-1,-9.602098465E0
1.083248522E1,-2.162214279E0,-9.334999323E-1,-9.618847847E0
1.084219830E1,-2.169392824E0,-9.430712461E-1,-9.626026154E0
1.085191210E1,-2.143071890E0,-9.478568435E-1,-9.642776489E0
1.086162512E1,-2.164607286E0,-9.239286184E-1,-9.647562027E0
1.087133731E1,-2.155035973E0,-9.167501926E-1,-9.647562027E0
1.088105038E1,-2.155035973E0,-9.215358496E-1,-9.637990952E0
1.089076423E1,-2.157428741E0,-9.071788788E-1,-9.628418922E0
1.090047726E1,-2.150250196E0,-9.047860503E-1,-9.635597229E0
1.091018944E1,-2.164607286E0,-9.215358496E-1,-9.642776489E0
1.091990252E1,-2.167000055E0,-9.454640746E-1,-9.621240616E0
1.092961632E1,-2.159821510E0,-9.693922997E-1,-9.626026154E0
1.093932939E1,-2.157428741E0,-9.765707254E-1,-9.633204460E0
1.094904158E1,-2.167000055E0,-9.813563824E-1,-9.628418922E0
1.095875465E1,-2.167000055E0,-9.478568435E-1,-9.614062309E0
1.096846845E1,-2.147857428E0,-9.311071038E-1,-9.623633385E0
1.097818147E1,-2.157428741E0,-9.215358496E-1,-9.630811691E0
1.098789366E1,-2.143071890E0,-9.143573642E-1,-9.647562027E0
1.099760673E1,-2.143071890E0,-9.000003934E-1,-9.649954796E0
1.100732059E1,-2.152642965E0,-8.784649968E-1,-9.669096947E0
1.101703361E1,-2.159821510E0,-8.832506537E-1,-9.652347565E0
1.102674580E1,-2.155035973E0,-9.191430211E-1,-9.633204460E0
1.103645887E1,-2.138286114E0,-9.311071038E-1,-9.606884003E0
1.104617267E1,-2.147857428E0,-9.382855892E-1,-9.597312927E0
1.105588569E1,-2.155035973E0,-9.287142754E-1,-9.587740898E0
1.106559793E1,-2.171785593E0,-9.287142754E-1,-9.623633385E0
1.107531101E1,-2.178964138E0,-9.215358496E-1,-9.640383720E0
1.108502481E1,-2.176571369E0,-9.239286184E-1,-9.647562027E0
1.109473783E1,-2.164607286E0,-9.334999323E-1,-9.659525871E0
1.110445002E1,-2.159821510E0,-9.382855892E-1,-9.635597229E0
1.111416309E1,-2.159821510E0,-9.574281573E-1,-9.633204460E0
1.112387689E1,-2.128714800E0,-9.430712461E-1,-9.606884003E0
1.113358996E1,-2.126322031E0,-9.358927608E-1,-9.587740898E0
1.114330210E1,-2.152642965E0,-9.000003934E-1,-9.599705696E0
1.115301522E1,-2.145464659E0,-8.736793399E-1,-9.602098465E0
1.116272903E1,-2.162214279E0,-8.665009141E-1,-9.614062309E0
1.117244205E1,-2.169392824E0,-9.023932219E-1,-9.623633385E0
1.118215423E1,-2.159821510E0,-9.119645357E-1,-9.628418922E0
1.119186731E1,-2.164607286E0,-9.358927608E-1,-9.635597229E0
1.120158116E1,-2.152642965E0,-9.550353289E-1,-9.657133102E0
1.121129418E1,-2.147857428E0,-9.646066427E-1,-9.659525871E0
1.122100637E1,-2.140678883E0,-9.598209858E-1,-9.649954796E0
1.123071944E1,-2.145464659E0,-9.334999323E-1,-9.642776489E0
1.124043324E1,-2.150250196E0,-9.119645357E-1,-9.642776489E0
1.125014627E1,-2.140678883E0,-8.904291391E-1,-9.614062309E0
1.125985845E1,-2.131107569E0,-8.784649968E-1,-9.621240616E0
1.126957153E1,-2.143071890E0,-8.808578253E-1,-9.609276772E0
1.127928538E1,-2.152642965E0,-8.880363107E-1,-9.611669540E0
1.128899840E1,-2.147857428E0,-8.976075649E-1,-9.611669540E0
1.129871059E1,-2.133500576E0,-9.334999323E-1,-9.609276772E0
1.130842366E1,-2.135893345E0,-9.550353289E-1,-9.630811691E0
1.131813746E1,-2.135893345E0,-9.574281573E-1,-9.637990952E0
1.132785048E1,-2.135893345E0,-9.191430211E-1,-9.661918640E0
1.133756267E1,-2.133500576E0,-8.976075649E-1,-9.652347565E0
1.134727574E1,-2.140678883E0,-8.856434822E-1,-9.642776489E0
1.135698955E1,-2.140678883E0,-8.760721684E-1,-9.645169258E0
1.136670262E1,-2.155035973E0,-9.119645357E-1,-9.666704178E0
1.137641481E1,-2.164607286E0,-9.334999323E-1,-9.645169258E0
1.138612788E1,-2.183749676E0,-9.717850685E-1,-9.640383720E0
1.139584168E1,-2.183749676E0,-1.002891779E0,-9.606884003E0
1.140555470E1,-2.202892303E0,-9.741778970E-1,-9.606884003E0
1.141526689E1,-2.169392824E0,-9.693922997E-1,-9.611669540E0
1.142497996E1,-2.195713997E0,-9.430712461E-1,-9.614062309E0
1.143469376E1,-2.171785593E0,-9.167501926E-1,-9.602098465E0
1.144440679E1,-2.171785593E0,-9.023932219E-1,-9.614062309E0
1.145411897E1,-2.164607286E0,-9.167501926E-1,-9.618847847E0
1.146383210E1,-2.143071890E0,-9.167501926E-1,-9.652347565E0
1.147354590E1,-2.123929262E0,-9.167501926E-1,-9.649954796E0
1.148325892E1,-2.111965179E0,-9.287142754E-1,-9.654740334E0
1.149297111E1,-2.116750717E0,-9.334999323E-1,-9.688240051E0
1.150268418E1,-2.152642965E0,-9.358927608E-1,-9.649954796E0
1.151239798E1,-2.162214279E0,-9.287142754E-1,-9.604491234E0
1.152211101E1,-2.164607286E0,-9.263214469E-1,-9.630811691E0
1.153182319E1,-2.178964138E0,-9.311071038E-1,-9.623633385E0
1.154153627E1,-2.183749676E0,-9.167501926E-1,-9.618847847E0
1.155125012E1,-2.193320990E0,-9.239286184E-1,-9.628418922E0
1.156096314E1,-2.186142683E0,-9.382855892E-1,-9.630811691E0
1.157067533E1,-2.169392824E0,-9.287142754E-1,-9.669096947E0
1.158038840E1,-2.174178362E0,-9.071788788E-1,-9.652347565E0
1.159010220E1,-2.159821510E0,-9.119645357E-1,-9.611669540E0
1.159981522E1,-2.147857428E0,-9.000003934E-1,-9.611669540E0
1.160952741E1,-2.133500576E0,-8.832506537E-1,-9.614062309E0
1.161924048E1,-2.157428741E0,-8.880363107E-1,-9.611669540E0
1.162895429E1,-2.167000055E0,-9.167501926E-1,-9.604491234E0
1.163866731E1,-2.162214279E0,-9.358927608E-1,-9.630811691E0
1.164837949E1,-2.164607286E0,-9.646066427E-1,-9.628418922E0
1.165809257E1,-2.176571369E0,-9.622138143E-1,-9.645169258E0
1.166780642E1,-2.169392824E0,-9.574281573E-1,-9.640383720E0
1.167751944E1,-2.157428741E0,-9.454640746E-1,-9.659525871E0
1.168723163E1,-2.169392824E0,-9.119645357E-1,-9.652347565E0
1.169694470E1,-2.188535452E0,-8.952147961E-1,-9.640383720E0
1.170665850E1,-2.169392824E0,-8.808578253E-1,-9.645169258E0
1.171637153E1,-2.159821510E0,-9.023932219E-1,-9.628418922E0
1.172608371E1,-2.155035973E0,-8.952147961E-1,-9.621240616E0
1.173579679E1,-2.138286114E0,-9.119645357E-1,-9.621240616E0
1.174551059E1,-2.147857428E0,-9.023932219E-1,-9.606884003E0
1.175522361E1,-2.145464659E0,-8.928219676E-1,-9.592526436E0
1.176493580E1,-2.138286114E0,-9.191430211E-1,-9.594920158E0
1.177464887E1,-2.133500576E0,-9.454640746E-1,-9.623633385E0
1.178436272E1,-2.109572172E0,-9.311071038E-1,-9.654740334E0
1.179407574E1,-2.119143486E0,-9.191430211E-1,-9.640383720E0
1.180378793E1,-2.140678883E0,-9.382855892E-1,-9.649954796E0
1.181350100E1,-2.145464659E0,-9.143573642E-1,-9.642776489E0
1.182321481E1,-2.152642965E0,-8.928219676E-1,-9.642776489E0
1.183292783E1,-2.162214279E0,-9.095717072E-1,-9.630811691E0
1.184264002E1,-2.183749676E0,-9.239286184E-1,-9.628418922E0
1.185235309E1,-2.202892303E0,-9.334999323E-1,-9.633204460E0
1.186206689E1,-2.202892303E0,-9.646066427E-1,-9.637990952E0
1.187177991E1,-2.193320990E0,-9.765707254E-1,-9.640383720E0
1.188149210E1,-2.171785593E0,-9.741778970E-1,-9.647562027E0
1.189120517E1,-2.150250196E0,-9.287142754E-1,-9.623633385E0
1.190091897E1,-2.135893345E0,-9.191430211E-1,-9.633204460E0
1.191063199E1,-2.133500576E0,-8.928219676E-1,-9.604491234E0
1.192034418E1,-2.135893345E0,-8.856434822E-1,-9.614062309E0
1.193005731E1,-2.143071890E0,-8.904291391E-1,-9.621240616E0
1.193977111E1,-2.140678883E0,-9.000003934E-1,-9.647562027E0
1.194948413E1,-2.162214279E0,-9.119645357E-1,-9.664311409E0
1.195919632E1,-2.162214279E0,-9.358927608E-1,-9.673882484E0
1.196890939E1,-2.181356907E0,-9.502496719E-1,-9.685847282E0
1.197862319E1,-2.171785593E0,-9.741778970E-1,-9.659525871E0
1.198833621E1,-2.162214279E0,-9.741778970E-1,-9.621240616E0
1.199804840E1,-2.159821510E0,-9.574281573E-1,-9.594920158E0
1.200776147E1,-2.155035973E0,-9.263214469E-1,-9.580562592E0
1.201747528E1,-2.162214279E0,-9.143573642E-1,-9.582955360E0
1.202718830E1,-2.171785593E0,-9.000003934E-1,-9.599705696E0
1.203690048E1,-2.167000055E0,-9.000003934E-1,-9.633204460E0
1.204661356E1,-2.171785593E0,-9.095717072E-1,-9.647562027E0
1.205632736E1,-2.174178362E0,-9.215358496E-1,-9.626026154E0
1.206604038E1,-2.150250196E0,-9.478568435E-1,-9.637990952E0
1.207575257E1,-2.167000055E0,-9.550353289E-1,-9.637990952E0
1.208546564E1,-2.147857428E0,-9.526425004E-1,-9.614062309E0
1.209517949E1,-2.164607286E0,-9.334999323E-1,-9.611669540E0
1.210489252E1,-2.176571369E0,-9.406784177E-1,-9.626026154E0
1.211460465E1,-2.174178362E0,-9.430712461E-1,-9.633204460E0
1.212431772E1,-2.164607286E0,-9.574281573E-1,-9.628418922E0
1.213403158E1,-2.164607286E0,-9.263214469E-1,-9.659525871E0
1.214374460E1,-2.135893345E0,-8.904291391E-1,-9.676275253E0
1.215345679E1,-2.143071890E0,-8.832506537E-1,-9.678668022E0
1.216316986E1,-2.147857428E0,-8.784649968E-1,-9.652347565E0
1.217288366E1,-2.147857428E0,-8.808578253E-1,-9.637990952E0
1.218259668E1,-2.157428741E0,-9.167501926E-1,-9.621240616E0
1.219230887E1,-2.162214279E0,-9.358927608E-1,-9.599705696E0
1.220202194E1,-2.167000055E0,-9.358927608E-1,-9.594920158E0
1.221173574E1,-2.171785593E0,-9.526425004E-1,-9.599705696E0
1.222144876E1,-2.176571369E0,-9.334999323E-1,-9.637990952E0
1.223116095E1,-2.155035973E0,-9.263214469E-1,-9.649954796E0
1.224087403E1,-2.167000055E0,-9.119645357E-1,-9.669096947E0
1.225058783E1,-2.167000055E0,-9.287142754E-1,-9.664311409E0
1.226030085E1,-2.178964138E0,-9.311071038E-1,-9.640383720E0
1.227001304E1,-2.193320990E0,-9.119645357E-1,-9.606884003E0
1.227972611E1,-2.198106766E0,-9.311071038E-1,-9.570991516E0
1.228943991E1,-2.202892303E0,-9.406784177E-1,-9.587740898E0
1.229915293E1,-2.181356907E0,-9.622138143E-1,-9.599705696E0
1.230886512E1,-2.181356907E0,-9.813563824E-1,-9.626026154E0
1.231857819E1,-2.169392824E0,-9.813563824E-1,-9.626026154E0
1.232829199E1,-2.155035973E0,-9.574281573E-1,-9.657133102E0
1.233800502E1,-2.155035973E0,-9.454640746E-1,-9.649954796E0
1.234771720E1,-2.131107569E0,-9.167501926E-1,-9.635597229E0
1.235743028E1,-2.143071890E0,-9.047860503E-1,-9.637990952E0
1.236714408E1,-2.111965179E0,-8.545367718E-1,-9.635597229E0
1.237685715E1,-2.114357948E0,-8.617152572E-1,-9.626026154E0
1.238656929E1,-2.131107569E0,-8.688937426E-1,-9.623633385E0
1.239628236E1,-2.145464659E0,-8.904291391E-1,-9.611669540E0
1.240599621E1,-2.155035973E0,-9.047860503E-1,-9.597312927E0
1.241570923E1,-2.164607286E0,-9.215358496E-1,-9.616455078E0
1.242542137E1,-2.178964138E0,-9.143573642E-1,-9.640383720E0
1.243513444E1,-2.176571369E0,-9.167501926E-1,-9.664311409E0
1.244484830E1,-2.164607286E0,-9.215358496E-1,-9.666704178E0
1.245456132E1,-2.167000055E0,-9.382855892E-1,-9.652347565E0
1.246427345E1,-2.152642965E0,-9.287142754E-1,-9.654740334E0
1.247398653E1,-2.143071890E0,-9.574281573E-1,-9.621240616E0
1.248370038E1,-2.145464659E0,-9.669994712E-1,-9.599705696E0
1.249341340E1,-2.133500576E0,-9.454640746E-1,-9.575777054E0
1.250312559E1,-2.121536493E0,-9.430712461E-1,-9.592526436E0
1.251283866E1,-2.135893345E0,-9.263214469E-1,-9.599705696E0
1.252255246E1,-2.135893345E0,-9.215358496E-1,-9.647562027E0
1.253226548E1,-2.150250196E0,-9.167501926E-1,-9.649954796E0
1.254197767E1,-2.164607286E0,-8.856434822E-1,-9.657133102E0
1.255169074E1,-2.159821510E0,-8.952147961E-1,-9.681061745E0
1.256140455E1,-2.181356907E0,-8.976075649E-1,-9.657133102E0
1.257111757E1,-2.188535452E0,-8.976075649E-1,-9.647562027E0
1.258082976E1,-2.186142683E0,-8.952147961E-1,-9.618847847E0
1.259054283E1,-2.183749676E0,-9.239286184E-1,-9.592526436E0
1.260025663E1,-2.176571369E0,-9.406784177E-1,-9.616455078E0
1.260996965E1,-2.174178362E0,-9.430712461E-1,-9.637990952E0
1.261968184E1,-2.169392824E0,-9.478568435E-1,-9.649954796E0
1.262939491E1,-2.176571369E0,-9.646066427E-1,-9.652347565E0
1.263910871E1,-2.159821510E0,-9.502496719E-1,-9.654740334E0
1.264882173E1,-2.157428741E0,-9.406784177E-1,-9.673882484E0
1.265853392E1,-2.143071890E0,-9.311071038E-1,-9.671489716E0
1.266824699E1,-2.145464659E0,-9.287142754E-1,-9.652347565E0
1.267796080E1,-2.128714800E0,-9.191430211E-1,-9.623633385E0
1.268767382E1,-2.147857428E0,-9.191430211E-1,-9.611669540E0
1.269738600E1,-2.145464659E0,-9.167501926E-1,-9.611669540E0
1.270709908E1,-2.152642965E0,-9.239286184E-1,-9.623633385E0
1.271681288E1,-2.162214279E0,-9.191430211E-1,-9.621240616E0
1.272652590E1,-2.169392824E0,-9.239286184E-1,-9.623633385E0
1.273623809E1,-2.171785593E0,-9.119645357E-1,-9.637990952E0
1.274595116E1,-2.159821510E0,-9.095717072E-1,-9.647562027E0
1.275566496E1,-2.162214279E0,-9.119645357E-1,-9.657133102E0
1.276537798E1,-2.159821510E0,-9.047860503E-1,-9.657133102E0
1.277509017E1,-2.162214279E0,-9.000003934E-1,-9.661918640E0
1.278480324E1,-2.169392824E0,-8.784649968E-1,-9.597312927E0
1.279451705E1,-2.178964138E0,-8.832506537E-1,-9.568598747E0
1.280423007E1,-2.174178362E0,-9.119645357E-1,-9.582955360E0
1.281394226E1,-2.155035973E0,-9.382855892E-1,-9.592526436E0
1.282365528E1,-2.159821510E0,-9.574281573E-1,-9.606884003E0
1.283336913E1,-2.155035973E0,-9.526425004E-1,-9.633204460E0
1.284308215E1,-2.176571369E0,-9.334999323E-1,-9.666704178E0
1.285279429E1,-2.183749676E0,-9.239286184E-1,-9.669096947E0
1.286250736E1,-2.176571369E0,-8.976075649E-1,-9.676275253E0
1.287222121E1,-2.164607286E0,-9.095717072E-1,-9.666704178E0
1.288193423E1,-2.169392824E0,-9.023932219E-1,-9.633204460E0
1.289164637E1,-2.164607286E0,-9.143573642E-1,-9.614062309E0
1.290135949E1,-2.150250196E0,-9.287142754E-1,-9.606884003E0
1.291107330E1,-2.167000055E0,-9.550353289E-1,-9.616455078E0
1.292078632E1,-2.159821510E0,-9.646066427E-1,-9.623633385E0
1.293049845E1,-2.157428741E0,-9.430712461E-1,-9.621240616E0
1.294021153E1,-2.162214279E0,-9.287142754E-1,-9.602098465E0
1.294992533E1,-2.157428741E0,-9.167501926E-1,-9.621240616E0
1.295963835E1,-2.159821510E0,-9.239286184E-1,-9.623633385E0
1.296935054E1,-2.162214279E0,-8.952147961E-1,-9.630811691E0
1.297906361E1,-2.169392824E0,-8.832506537E-1,-9.640383720E0
1.298877741E1,-2.164607286E0,-9.023932219E-1,-9.637990952E0
1.299849043E1,-2.164607286E0,-9.167501926E-1,-9.652347565E0
1.300820262E1,-2.167000055E0,-9.311071038E-1,-9.633204460E0
1.301791569E1,-2.155035973E0,-9.358927608E-1,-9.630811691E0
1.302762949E1,-2.143071890E0,-9.406784177E-1,-9.621240616E0
1.303734252E1,-2.157428741E0,-9.382855892E-1,-9.587740898E0
1.304705470E1,-2.167000055E0,-9.382855892E-1,-9.604491234E0
1.305676778E1,-2.164607286E0,-9.239286184E-1,-9.642776489E0
1.306648158E1,-2.171785593E0,-9.023932219E-1,-9.652347565E0
1.307619460E1,-2.178964138E0,-9.023932219E-1,-9.654740334E0
1.308590679E1,-2.181356907E0,-8.976075649E-1,-9.661918640E0
1.309561986E1,-2.176571369E0,-9.119645357E-1,-9.652347565E0
1.310533366E1,-2.159821510E0,-9.239286184E-1,-9.640383720E0
1.311504668E1,-2.147857428E0,-9.382855892E-1,-9.635597229E0
1.312475887E1,-2.135893345E0,-9.358927608E-1,-9.618847847E0
1.313447194E1,-2.143071890E0,-9.358927608E-1,-9.637990952E0
1.314418574E1,-2.147857428E0,-9.334999323E-1,-9.628418922E0
1.315389877E1,-2.164607286E0,-9.287142754E-1,-9.633204460E0
1.316361095E1,-2.169392824E0,-9.263214469E-1,-9.640383720E0
1.317332403E1,-2.164607286E0,-9.167501926E-1,-9.637990952E0
1.318303783E1,-2.174178362E0,-9.215358496E-1,-9.626026154E0
1.319275085E1,-2.176571369E0,-9.071788788E-1,-9.611669540E0
1.320246304E1,-2.181356907E0,-9.095717072E-1,-9.614062309E0
1.321217606E1,-2.176571369E0,-9.143573642E-1,-9.628418922E0
1.322188991E1,-2.174178362E0,-9.382855892E-1,-9.640383720E0
1.323160293E1,-2.164607286E0,-9.550353289E-1,-9.628418922E0
1.324131507E1,-2.150250196E0,-9.574281573E-1,-9.626026154E0
1.325102814E1,-2.150250196E0,-9.406784177E-1,-9.628418922E0
1.326074194E1,-2.164607286E0,-9.143573642E-1,-9.628418922E0
1.327045496E1,-2.164607286E0,-9.047860503E-1,-9.616455078E0
1.328016715E1,-2.171785593E0,-9.023932219E-1,-9.618847847E0
1.328988022E1,-2.193320990E0,-8.976075649E-1,-9.621240616E0
1.329959403E1,-2.198106766E0,-8.952147961E-1,-9.635597229E0
1.330930705E1,-2.200499535E0,-9.311071038E-1,-9.647562027E0
1.331901923E1,-2.181356907E0,-9.334999323E-1,-9.649954796E0
1.332873231E1,-2.171785593E0,-9.454640746E-1,-9.635597229E0
1.333844611E1,-2.174178362E0,-9.287142754E-1,-9.637990952E0
1.334815913E1,-2.169392824E0,-9.430712461E-1,-9.628418922E0
1.335787132E1,-2.178964138E0,-9.358927608E-1,-9.626026154E0
1.336758439E1,-2.169392824E0,-9.430712461E-1,-9.609276772E0
1.337729819E1,-2.188535452E0,-9.143573642E-1,-9.616455078E0
1.338701121E1,-2.188535452E0,-9.143573642E-1,-9.623633385E0
1.339672335E1,-2.193320990E0,-9.191430211E-1,-9.621240616E0
1.340643642E1,-2.188535452E0,-9.000003934E-1,-9.616455078E0
1.341615028E1,-2.181356907E0,-9.000003934E-1,-9.630811691E0
1.342586319E1,-2.178964138E0,-9.143573642E-1,-9.640383720E0
1.343557543E1,-2.155035973E0,-9.143573642E-1,-9.635597229E0
1.344528850E1,-2.147857428E0,-8.952147961E-1,-9.640383720E0
1.345500231E1,-2.135893345E0,-8.976075649E-1,-9.630811691E0
1.346471533E1,-2.128714800E0,-9.167501926E-1,-9.621240616E0
1.347442752E1,-2.121536493E0,-9.215358496E-1,-9.614062309E0
1.348414059E1,-2.126322031E0,-9.454640746E-1,-9.599705696E0
1.349385439E1,-2.159821510E0,-9.382855892E-1,-9.599705696E0
1.350356741E1,-2.188535452E0,-9.382855892E-1,-9.594920158E0
1.351327960E1,-2.188535452E0,-9.478568435E-1,-9.606884003E0
1.352299267E1,-2.214856386E0,-9.334999323E-1,-9.637990952E0
1.353270647E1,-2.214856386E0,-9.023932219E-1,-9.678668022E0
1.354241949E1,-2.214856386E0,-9.000003934E-1,-9.690632820E0
1.355213168E1,-2.210070848E0,-8.952147961E-1,-9.693025589E0
1.356184470E1,-2.202892303E0,-9.119645357E-1,-9.666704178E0
1.357155856E1,-2.169392824E0,-9.071788788E-1,-9.642776489E0
1.358127147E1,-2.183749676E0,-9.023932219E-1,-9.585348129E0
1.359098371E1,-2.190928221E0,-9.167501926E-1,-9.568598747E0
1.360069679E1,-2.186142683E0,-9.143573642E-1,-9.580562592E0
1.361041059E1,-2.162214279E0,-9.023932219E-1,-9.592526436E0
1.362012361E1,-2.138286114E0,-9.191430211E-1,-9.609276772E0
1.362983580E1,-2.133500576E0,-9.430712461E-1,-9.640383720E0
1.363954887E1,-2.169392824E0,-9.550353289E-1,-9.661918640E0
1.364926267E1,-2.140678883E0,-9.311071038E-1,-9.690632820E0
1.365897569E1,-2.138286114E0,-9.215358496E-1,-9.683454514E0
1.366868788E1,-2.157428741E0,-9.167501926E-1,-9.654740334E0
1.367840095E1,-2.157428741E0,-9.263214469E-1,-9.642776489E0
1.368811476E1,-2.174178362E0,-9.311071038E-1,-9.592526436E0
1.369782778E1,-2.183749676E0,-9.382855892E-1,-9.570991516E0
1.370753991E1,-2.186142683E0,-9.550353289E-1,-9.587740898E0
1.371725298E1,-2.198106766E0,-9.526425004E-1,-9.614062309E0
1.372696679E1,-2.178964138E0,-9.598209858E-1,-9.633204460E0
1.373667981E1,-2.167000055E0,-9.454640746E-1,-9.661918640E0
1.374639199E1,-2.171785593E0,-9.287142754E-1,-9.673882484E0
1.375610507E1,-2.164607286E0,-9.119645357E-1,-9.657133102E0
1.376581887E1,-2.167000055E0,-9.000003934E-1,-9.642776489E0
1.377553189E1,-2.162214279E0,-8.904291391E-1,-9.635597229E0
1.378524408E1,-2.164607286E0,-9.047860503E-1,-9.630811691E0
1.379495715E1,-2.162214279E0,-9.167501926E-1,-9.621240616E0
1.380467095E1,-2.157428741E0,-9.334999323E-1,-9.618847847E0
1.381438397E1,-2.169392824E0,-9.669994712E-1,-9.628418922E0
1.382409616E1,-2.174178362E0,-9.502496719E-1,-9.659525871E0
1.383380918E1,-2.169392824E0,-9.406784177E-1,-9.616455078E0
1.384352304E1,-2.186142683E0,-9.311071038E-1,-9.611669540E0
1.385323595E1,-2.190928221E0,-9.095717072E-1,-9.645169258E0
1.386294819E1,-2.190928221E0,-8.904291391E-1,-9.657133102E0
1.387266127E1,-2.176571369E0,-8.856434822E-1,-9.616455078E0
1.388237507E1,-2.176571369E0,-8.952147961E-1,-9.621240616E0
1.389208809E1,-2.181356907E0,-9.023932219E-1,-9.640383720E0
1.390180028E1,-2.178964138E0,-9.287142754E-1,-9.628418922E0
1.391151335E1,-2.174178362E0,-9.526425004E-1,-9.602098465E0
1.392122715E1,-2.171785593E0,-9.622138143E-1,-9.618847847E0
1.393094017E1,-2.162214279E0,-9.358927608E-1,-9.633204460E0
1.394065236E1,-2.174178362E0,-9.287142754E-1,-9.630811691E0
1.395036543E1,-2.183749676E0,-9.167501926E-1,-9.633204460E0
1.396007923E1,-2.193320990E0,-9.000003934E-1,-9.661918640E0
1.396979226E1,-2.181356907E0,-8.736793399E-1,-9.654740334E0
1.397950439E1,-2.178964138E0,-8.736793399E-1,-9.649954796E0
1.398921746E1,-2.174178362E0,-8.808578253E-1,-9.633204460E0
1.399893127E1,-2.167000055E0,-8.784649968E-1,-9.635597229E0
1.400864429E1,-2.169392824E0,-9.095717072E-1,-9.611669540E0
1.401835647E1,-2.174178362E0,-9.287142754E-1,-9.623633385E0
1.402806955E1,-2.164607286E0,-9.526425004E-1,-9.616455078E0
1.403778335E1,-2.174178362E0,-9.598209858E-1,-9.618847847E0
1.404749637E1,-2.183749676E0,-9.669994712E-1,-9.640383720E0
1.405720856E1,-2.183749676E0,-9.574281573E-1,-9.618847847E0
1.406692163E1,-2.205285072E0,-9.502496719E-1,-9.630811691E0
1.407663543E1,-2.178964138E0,-9.454640746E-1,-9.659525871E0
1.408634845E1,-2.202892303E0,-9.287142754E-1,-9.640383720E0
1.409606059E1,-2.205285072E0,-9.215358496E-1,-9.623633385E0
1.410577366E1,-2.205285072E0,-9.239286184E-1,-9.609276772E0
1.411548746E1,-2.181356907E0,-9.287142754E-1,-9.626026154E0
1.412520048E1,-2.190928221E0,-9.358927608E-1,-9.635597229E0
1.413491267E1,-2.181356907E0,-9.191430211E-1,-9.628418922E0
1.414462574E1,-2.186142683E0,-9.215358496E-1,-9.611669540E0
1.415433955E1,-2.183749676E0,-9.191430211E-1,-9.642776489E0
1.416405257E1,-2.183749676E0,-9.071788788E-1,-9.664311409E0
1.417376476E1,-2.176571369E0,-8.976075649E-1,-9.666704178E0
1.418347783E1,-2.171785593E0,-8.928219676E-1,-9.661918640E0
1.419319163E1,-2.159821510E0,-8.952147961E-1,-9.633204460E0
1.420290465E1,-2.162214279E0,-9.000003934E-1,-9.623633385E0
1.421261679E1,-2.143071890E0,-9.143573642E-1,-9.594920158E0
1.422232986E1,-2.140678883E0,-9.263214469E-1,-9.585348129E0
1.423204366E1,-2.143071890E0,-9.239286184E-1,-9.578169823E0
1.424175668E1,-2.164607286E0,-9.263214469E-1,-9.594920158E0
1.425146887E1,-2.171785593E0,-9.095717072E-1,-9.626026154E0
1.426118194E1,-2.200499535E0,-9.167501926E-1,-9.671489716E0
1.427089574E1,-2.212463617E0,-9.215358496E-1,-9.702596664E0
1.428060876E1,-2.219642162E0,-9.215358496E-1,-9.697811127E0
1.429032095E1,-2.210070848E0,-9.334999323E-1,-9.681061745E0
1.430003403E1,-2.224427700E0,-9.382855892E-1,-9.628418922E0
1.430974783E1,-2.198106766E0,-9.430712461E-1,-9.592526436E0
1.431946085E1,-2.174178362E0,-9.239286184E-1,-9.585348129E0
1.432917298E1,-2.152642965E0,-9.191430211E-1,-9.566205978E0
1.433888606E1,-2.152642965E0,-9.263214469E-1,-9.585348129E0
1.434859986E1,-2.169392824E0,-9.167501926E-1,-9.616455078E0
1.435831288E1,-2.171785593E0,-8.976075649E-1,-9.647562027E0
1.436802507E1,-2.186142683E0,-8.976075649E-1,-9.664311409E0
1.437773814E1,-2.183749676E0,-8.952147961E-1,-9.666704178E0
1.438745194E1,-2.157428741E0,-9.095717072E-1,-9.630811691E0
1.439716496E1,-2.162214279E0,-9.215358496E-1,-9.614062309E0
1.440687715E1,-2.167000055E0,-9.287142754E-1,-9.611669540E0
1.441659022E1,-2.150250196E0,-9.334999323E-1,-9.616455078E0
1.442630397E1,-2.157428741E0,-9.478568435E-1,-9.633204460E0
1.443601699E1,-2.150250196E0,-9.430712461E-1,-9.633204460E0
1.444572918E1,-2.164607286E0,-9.191430211E-1,-9.633204460E0
1.445544226E1,-2.159821510E0,-9.167501926E-1,-9.623633385E0
1.446515606E1,-2.174178362E0,-8.928219676E-1,-9.652347565E0
1.447486908E1,-2.186142683E0,-9.023932219E-1,-9.640383720E0
1.448458127E1,-2.181356907E0,-9.095717072E-1,-9.652347565E0
1.449429434E1,-2.183749676E0,-9.239286184E-1,-9.657133102E0
1.450400814E1,-2.181356907E0,-9.263214469E-1,-9.669096947E0
1.451372116E1,-2.186142683E0,-9.263214469E-1,-9.664311409E0
1.452343335E1,-2.178964138E0,-9.382855892E-1,-9.666704178E0
1.453314637E1,-2.169392824E0,-9.311071038E-1,-9.645169258E0
1.454286017E1,-2.171785593E0,-9.311071038E-1,-9.623633385E0
1.455257319E1,-2.183749676E0,-9.191430211E-1,-9.594920158E0
1.456228538E1,-2.169392824E0,-9.430712461E-1,-9.580562592E0
1.457199845E1,-2.152642965E0,-9.454640746E-1,-9.578169823E0
1.458171226E1,-2.150250196E0,-9.287142754E-1,-9.611669540E0
1.459142528E1,-2.157428741E0,-9.191430211E-1,-9.635597229E0
1.460113746E1,-2.176571369E0,-8.856434822E-1,-9.642776489E0
1.461085054E1,-2.169392824E0,-8.976075649E-1,-9.637990952E0
1.462056434E1,-2.178964138E0,-8.856434822E-1,-9.642776489E0
1.463027736E1,-2.176571369E0,-9.000003934E-1,-9.621240616E0
1.463998949E1,-2.190928221E0,-8.976075649E-1,-9.609276772E0
1.464970257E1,-2.200499535E0,-9.047860503E-1,-9.599705696E0
1.465941637E1,-2.207678080E0,-9.215358496E-1,-9.606884003E0
1.466912939E1,-2.217249393E0,-9.143573642E-1,-9.630811691E0
1.467884158E1,-2.224427700E0,-9.550353289E-1,-9.657133102E0
1.468855465E1,-2.226820469E0,-9.478568435E-1,-9.659525871E0
1.469826845E1,-2.226820469E0,-9.382855892E-1,-9.657133102E0
1.470798147E1,-2.226820469E0,-9.287142754E-1,-9.657133102E0
1.471769361E1,-2.217249393E0,-9.143573642E-1,-9.645169258E0
1.472740668E1,-2.198106766E0,-9.023932219E-1,-9.633204460E0
1.473712048E1,-2.183749676E0,-9.263214469E-1,-9.623633385E0
1.474683351E1,-2.176571369E0,-9.239286184E-1,-9.621240616E0
1.475654569E1,-2.176571369E0,-9.167501926E-1,-9.628418922E0
1.476625877E1,-2.171785593E0,-9.023932219E-1,-9.621240616E0
1.477597257E1,-2.174178362E0,-8.952147961E-1,-9.614062309E0
1.478568559E1,-2.178964138E0,-8.904291391E-1,-9.626026154E0
1.479539778E1,-2.190928221E0,-9.071788788E-1,-9.637990952E0
1.480511085E1,-2.186142683E0,-9.406784177E-1,-9.645169258E0
1.481482465E1,-2.188535452E0,-9.526425004E-1,-9.654740334E0
1.482453767E1,-2.178964138E0,-9.598209858E-1,-9.647562027E0
1.483424981E1,-2.164607286E0,-9.598209858E-1,-9.645169258E0
1.484396288E1,-2.167000055E0,-9.550353289E-1,-9.623633385E0
1.485367668E1,-2.147857428E0,-9.406784177E-1,-9.599705696E0
1.486338970E1,-2.169392824E0,-9.191430211E-1,-9.582955360E0
1.487310189E1,-2.171785593E0,-9.047860503E-1,-9.606884003E0
1.488281496E1,-2.186142683E0,-8.856434822E-1,-9.618847847E0
1.489252877E1,-2.195713997E0,-8.688937426E-1,-9.614062309E0
1.490224179E1,-2.183749676E0,-8.569296002E-1,-9.623633385E0
1.491195392E1,-2.169392824E0,-8.808578253E-1,-9.623633385E0
1.492166699E1,-2.171785593E0,-8.760721684E-1,-9.635597229E0
1.493138080E1,-2.167000055E0,-8.880363107E-1,-9.623633385E0
1.494109382E1,-2.152642965E0,-9.071788788E-1,-9.647562027E0
1.495080600E1,-2.164607286E0,-9.143573642E-1,-9.637990952E0
1.496051908E1,-2.164607286E0,-9.023932219E-1,-9.633204460E0
1.497023288E1,-2.159821510E0,-9.311071038E-1,-9.621240616E0
1.497994590E1,-2.162214279E0,-9.406784177E-1,-9.621240616E0
1.498965809E1,-2.167000055E0,-9.622138143E-1,-9.630811691E0
1.499937111E1,-2.159821510E0,-9.741778970E-1,-9.637990952E0
1.500908496E1,-2.169392824E0,-9.669994712E-1,-9.637990952E0
1.501879788E1,-2.171785593E0,-9.669994712E-1,-9.633204460E0
1.502851012E1,-2.193320990E0,-9.574281573E-1,-9.626026154E0
1.503822319E1,-2.195713997E0,-9.215358496E-1,-9.623633385E0
1.504793699E1,-2.181356907E0,-9.119645357E-1,-9.626026154E0
1.505765002E1,-2.190928221E0,-9.000003934E-1,-9.633204460E0
1.506736220E1,-2.181356907E0,-9.095717072E-1,-9.623633385E0
