"Time (s)","Gyroscope x (rad/s)","Gyroscope y (rad/s)","Gyroscope z (rad/s)"
1.821653800E-1,-2.290677279E-3,-4.581354558E-3,-1.221694518E-2
1.918784010E-1,-1.068982761E-3,3.054236295E-4,-1.099525020E-2
2.015922030E-1,1.374406274E-3,7.635590620E-3,-6.108472589E-3
2.113051190E-1,-1.068982761E-3,7.635590620E-3,-2.443389036E-3
2.210173070E-1,-1.068982761E-3,7.635590620E-3,1.221694518E-3
2.307303800E-1,-2.290677279E-3,6.413896102E-3,3.665083554E-3
2.404441300E-1,-2.290677279E-3,3.970507067E-3,6.108472589E-3
2.501571510E-1,1.527118147E-4,2.748812549E-3,7.330167107E-3
2.598692860E-1,2.596100792E-3,1.527118147E-3,8.551862091E-3
2.695823590E-1,5.039489828E-3,-9.162708884E-4,8.551862091E-3
2.792961090E-1,6.261184346E-3,3.054236295E-4,9.773556143E-3
2.890091300E-1,6.261184346E-3,-9.162708884E-4,8.551862091E-3
2.987212650E-1,6.261184346E-3,3.054236295E-4,9.773556143E-3
3.084342860E-1,2.596100792E-3,3.054236295E-4,1.099525020E-2
3.181480880E-1,2.596100792E-3,2.748812549E-3,8.551862091E-3
3.278610050E-1,2.596100792E-3,1.527118147E-3,6.108472589E-3
3.375732440E-1,3.817795310E-3,-9.162708884E-4,3.665083554E-3
3.472862650E-1,5.039489828E-3,-4.581354558E-3,1.221694518E-3
3.570000670E-1,3.817795310E-3,-4.581354558E-3,2.443389036E-3
3.667130880E-1,3.817795310E-3,-4.581354558E-3,3.665083554E-3
3.764252240E-1,1.374406274E-3,-9.162708884E-4,4.886778072E-3
3.861382440E-1,-1.068982761E-3,3.054236295E-4,4.886778072E-3
3.958520460E-1,-2.290677279E-3,2.748812549E-3,3.665083554E-3
4.055650670E-1,-2.290677279E-3,3.970507067E-3,4.886778072E-3
4.152772030E-1,-1.068982761E-3,5.192201585E-3,6.108472589E-3
4.249902760E-1,-2.290677279E-3,6.413896102E-3,7.330167107E-3
4.347040260E-1,-2.290677279E-3,3.970507067E-3,7.330167107E-3
4.444170460E-1,-2.290677279E-3,-2.137965523E-3,2.443389036E-3
4.541291820E-1,-2.290677279E-3,-4.581354558E-3,-1.221694518E-3
4.638422550E-1,-1.068982761E-3,-4.581354558E-3,-1.221694518E-3
4.735560050E-1,1.527118147E-4,-4.581354558E-3,-1.221694518E-3
4.832690260E-1,2.596100792E-3,3.054236295E-4,0.000000000E0
4.929811610E-1,1.527118147E-4,1.527118147E-3,0.000000000E0
5.026942340E-1,-2.290677279E-3,3.054236295E-4,1.221694518E-3
5.124080360E-1,-2.290677279E-3,2.748812549E-3,1.221694518E-3
5.221209530E-1,-3.512371797E-3,6.413896102E-3,2.443389036E-3
5.318331920E-1,-3.512371797E-3,7.635590620E-3,2.443389036E-3
5.415462130E-1,-4.734066315E-3,6.413896102E-3,1.221694518E-3
5.512600150E-1,-3.512371797E-3,3.970507067E-3,0.000000000E0
5.609730360E-1,-3.512371797E-3,-2.137965523E-3,-2.443389036E-3
5.706851710E-1,-2.290677279E-3,-4.581354558E-3,-4.886778072E-3
5.803982440E-1,-1.068982761E-3,-8.246437646E-3,-4.886778072E-3
5.901120460E-1,1.527118147E-4,-9.468132630E-3,-6.108472589E-3
5.998249630E-1,-1.068982761E-3,-7.024743594E-3,-4.886778072E-3
6.095372030E-1,1.527118147E-4,-3.359660041E-3,-6.108472589E-3
6.192502240E-1,1.374406274E-3,3.054236295E-4,-3.665083554E-3
6.289640260E-1,1.374406274E-3,2.748812549E-3,-2.443389036E-3
6.386770460E-1,1.374406274E-3,3.970507067E-3,-1.221694518E-3
6.483891820E-1,-1.068982761E-3,3.970507067E-3,0.000000000E0
6.581022550E-1,-3.512371797E-3,5.192201585E-3,0.000000000E0
6.678160570E-1,-3.512371797E-3,3.970507067E-3,0.000000000E0
6.775290780E-1,-2.290677279E-3,3.970507067E-3,1.221694518E-3
6.872412130E-1,1.527118147E-4,3.970507067E-3,-1.221694518E-3
6.969542860E-1,1.374406274E-3,3.970507067E-3,1.221694518E-3
7.066680880E-1,2.596100792E-3,5.192201585E-3,2.443389036E-3
7.163811090E-1,2.596100792E-3,2.748812549E-3,2.443389036E-3
7.260932440E-1,3.817795310E-3,1.527118147E-3,3.665083554E-3
7.358063170E-1,3.817795310E-3,-9.162708884E-4,4.886778072E-3
7.455201190E-1,3.817795310E-3,-3.359660041E-3,6.108472589E-3
7.552330360E-1,5.039489828E-3,-4.581354558E-3,4.886778072E-3
7.649452760E-1,5.039489828E-3,-2.137965523E-3,3.665083554E-3
7.746583490E-1,3.817795310E-3,-2.137965523E-3,2.443389036E-3
7.843721510E-1,3.817795310E-3,-3.359660041E-3,1.221694518E-3
7.940851710E-1,3.817795310E-3,-2.137965523E-3,1.221694518E-3
8.037973070E-1,3.817795310E-3,3.054236295E-4,1.221694518E-3
8.135103800E-1,1.374406274E-3,1.527118147E-3,0.000000000E0
8.232241820E-1,1.374406274E-3,2.748812549E-3,-1.221694518E-3
8.329372030E-1,1.374406274E-3,3.970507067E-3,-1.221694518E-3
8.426493900E-1,2.596100792E-3,5.192201585E-3,-2.443389036E-3
8.523624110E-1,5.039489828E-3,6.413896102E-3,-2.443389036E-3
8.620762130E-1,6.261184346E-3,3.970507067E-3,-3.665083554E-3
8.717892340E-1,6.261184346E-3,6.413896102E-3,-2.443389036E-3
8.815014210E-1,7.482878864E-3,1.007897966E-2,-1.221694518E-3
8.912144940E-1,8.704573847E-3,1.130067464E-2,1.221694518E-3
9.009282960E-1,9.926267900E-3,1.130067464E-2,0.000000000E0
9.106413170E-1,1.114796288E-2,1.007897966E-2,-2.443389036E-3
9.203534530E-1,1.114796288E-2,7.635590620E-3,-3.665083554E-3
9.300665260E-1,9.926267900E-3,2.748812549E-3,-6.108472589E-3
9.397803280E-1,6.261184346E-3,-3.359660041E-3,-7.330167107E-3
9.494933490E-1,2.596100792E-3,-4.581354558E-3,-8.551862091E-3
9.592055360E-1,-1.068982761E-3,-2.137965523E-3,-1.099525020E-2
9.689186090E-1,-3.512371797E-3,-9.162708884E-4,-1.343864016E-2
9.786324110E-1,-4.734066315E-3,3.054236295E-4,-1.466033421E-2
9.883454320E-1,-3.512371797E-3,3.054236295E-4,-1.466033421E-2
9.980576190E-1,-3.512371797E-3,3.054236295E-4,-1.221694518E-2
1.007770692E0,-5.955760833E-3,3.054236295E-4,-9.773556143E-3
1.017484494E0,-8.399149403E-3,3.054236295E-4,-7.330167107E-3
1.027197515E0,-5.955760833E-3,3.054236295E-4,-6.108472589E-3
1.036909703E0,-3.512371797E-3,3.054236295E-4,-4.886778072E-3
1.046622776E0,1.374406274E-3,-9.162708884E-4,-3.665083554E-3
1.056336578E0,2.596100792E-3,1.527118147E-3,0.000000000E0
1.066049599E0,2.596100792E-3,3.970507067E-3,4.886778072E-3
1.075761786E0,2.596100792E-3,5.192201585E-3,7.330167107E-3
1.085474859E0,1.374406274E-3,5.192201585E-3,9.773556143E-3
1.095188661E0,1.374406274E-3,5.192201585E-3,1.221694518E-2
1.104901682E0,1.374406274E-3,6.413896102E-3,1.099525020E-2
1.114613869E0,1.374406274E-3,5.192201585E-3,9.773556143E-3
1.124326942E0,1.374406274E-3,1.527118147E-3,8.551862091E-3
1.134040744E0,1.374406274E-3,-3.359660041E-3,7.330167107E-3
1.143753765E0,2.596100792E-3,-5.803049076E-3,4.886778072E-3
1.153465953E0,2.596100792E-3,-4.581354558E-3,3.665083554E-3
1.163179026E0,1.527118147E-4,-3.359660041E-3,2.443389036E-3
1.172892880E0,-2.290677279E-3,-7.024743594E-3,0.000000000E0
1.182605901E0,-4.734066315E-3,-9.468132630E-3,-2.443389036E-3
1.192318088E0,-7.177455351E-3,-9.468132630E-3,-3.665083554E-3
1.202031161E0,-7.177455351E-3,-9.468132630E-3,-4.886778072E-3
1.211744963E0,-5.955760833E-3,-9.468132630E-3,-6.108472589E-3
1.221457984E0,-2.290677279E-3,-9.468132630E-3,-4.886778072E-3
1.231170171E0,-1.068982761E-3,-7.024743594E-3,-4.886778072E-3
1.240883244E0,1.527118147E-4,-4.581354558E-3,-2.443389036E-3
1.250597046E0,1.527118147E-4,-9.162708884E-4,1.221694518E-3
1.260310119E0,-1.068982761E-3,1.527118147E-3,3.665083554E-3
1.270022307E0,-1.068982761E-3,2.748812549E-3,6.108472589E-3
1.279735380E0,1.527118147E-4,2.748812549E-3,7.330167107E-3
1.289449182E0,1.374406274E-3,3.054236295E-4,7.330167107E-3
1.299162203E0,5.039489828E-3,3.054236295E-4,7.330167107E-3
1.308874390E0,6.261184346E-3,3.970507067E-3,8.551862091E-3
1.318587515E0,5.039489828E-3,3.970507067E-3,8.551862091E-3
1.328301317E0,2.596100792E-3,2.748812549E-3,7.330167107E-3
1.338014338E0,1.527118147E-4,3.054236295E-4,4.886778072E-3
1.347726526E0,-1.068982761E-3,-3.359660041E-3,2.443389036E-3
1.357439651E0,-1.068982761E-3,-4.581354558E-3,0.000000000E0
1.367153453E0,-1.068982761E-3,-4.581354558E-3,-2.443389036E-3
1.376866474E0,1.527118147E-4,-4.581354558E-3,-3.665083554E-3
1.386578661E0,1.374406274E-3,-4.581354558E-3,-6.108472589E-3
1.396291786E0,1.374406274E-3,-3.359660041E-3,-4.886778072E-3
1.406005588E0,2.596100792E-3,-3.359660041E-3,-4.886778072E-3
1.415718609E0,3.817795310E-3,-9.162708884E-4,-4.886778072E-3
1.425430796E0,2.596100792E-3,2.748812549E-3,-3.665083554E-3
1.435143921E0,1.374406274E-3,6.413896102E-3,-3.665083554E-3
1.444857724E0,1.374406274E-3,7.635590620E-3,-2.443389036E-3
1.454570744E0,-1.068982761E-3,6.413896102E-3,-1.221694518E-3
1.464282932E0,-1.068982761E-3,3.970507067E-3,-1.221694518E-3
1.473996057E0,1.527118147E-4,3.054236295E-4,-2.443389036E-3
1.483709859E0,1.374406274E-3,-3.359660041E-3,-4.886778072E-3
1.493422932E0,1.374406274E-3,-3.359660041E-3,-7.330167107E-3
1.503135119E0,1.374406274E-3,-9.162708884E-4,-7.330167107E-3
1.512848192E0,1.374406274E-3,1.527118147E-3,-4.886778072E-3
1.522562046E0,1.527118147E-4,3.054236295E-4,-3.665083554E-3
1.532275067E0,-3.512371797E-3,3.054236295E-4,-1.221694518E-3
1.541987255E0,-3.512371797E-3,1.527118147E-3,2.443389036E-3
1.551700328E0,-1.068982761E-3,2.748812549E-3,3.665083554E-3
1.561414182E0,1.527118147E-4,2.748812549E-3,1.221694518E-3
1.571127203E0,1.374406274E-3,1.527118147E-3,1.221694518E-3
1.580839442E0,1.374406274E-3,1.527118147E-3,1.221694518E-3
1.590552515E0,1.374406274E-3,3.970507067E-3,1.221694518E-3
1.600266317E0,1.527118147E-4,6.413896102E-3,2.443389036E-3
1.609979390E0,-1.068982761E-3,6.413896102E-3,2.443389036E-3
1.619691578E0,-4.734066315E-3,5.192201585E-3,3.665083554E-3
1.629404703E0,-5.955760833E-3,-9.162708884E-4,2.443389036E-3
1.639118505E0,-4.734066315E-3,-2.137965523E-3,2.443389036E-3
1.648831578E0,-2.290677279E-3,-2.137965523E-3,-1.221694518E-3
1.658543765E0,1.527118147E-4,-2.137965523E-3,-1.221694518E-3
1.668256838E0,2.596100792E-3,-2.137965523E-3,-2.443389036E-3
1.677970692E0,2.596100792E-3,-2.137965523E-3,-1.221694518E-3
1.687683713E0,2.596100792E-3,-2.137965523E-3,-1.221694518E-3
1.697395901E0,2.596100792E-3,-2.137965523E-3,-2.443389036E-3
1.707109026E0,1.374406274E-3,-9.162708884E-4,0.000000000E0
1.716822880E0,1.374406274E-3,3.054236295E-4,-1.221694518E-3
1.726535901E0,1.527118147E-4,-9.162708884E-4,-1.221694518E-3
1.736248088E0,-1.068982761E-3,2.748812549E-3,0.000000000E0
1.745961213E0,1.527118147E-4,5.192201585E-3,0.000000000E0
1.755675015E0,1.374406274E-3,2.748812549E-3,-1.221694518E-3
1.765388088E0,2.596100792E-3,-9.162708884E-4,-2.443389036E-3
1.775100276E0,2.596100792E-3,-3.359660041E-3,-3.665083554E-3
1.784813401E0,2.596100792E-3,-4.581354558E-3,-3.665083554E-3
1.794527203E0,2.596100792E-3,-3.359660041E-3,-3.665083554E-3
1.804240276E0,3.817795310E-3,-9.162708884E-4,-2.443389036E-3
1.813952463E0,2.596100792E-3,1.527118147E-3,-1.221694518E-3
1.823665588E0,2.596100792E-3,1.527118147E-3,-1.221694518E-3
1.833379442E0,2.596100792E-3,3.054236295E-4,0.000000000E0
1.843092463E0,-1.068982761E-3,2.748812549E-3,0.000000000E0
1.852804651E0,-1.068982761E-3,-9.162708884E-4,-1.221694518E-3
1.862517776E0,1.374406274E-3,-8.246437646E-3,-2.443389036E-3
1.872231630E0,3.817795310E-3,-8.246437646E-3,-3.665083554E-3
1.881944651E0,6.261184346E-3,-4.581354558E-3,-4.886778072E-3
1.891656890E0,6.261184346E-3,-9.162708884E-4,-3.665083554E-3
1.901369963E0,5.039489828E-3,-2.137965523E-3,0.000000000E0
1.911083817E0,3.817795310E-3,-9.162708884E-4,1.221694518E-3
1.920796838E0,2.596100792E-3,1.527118147E-3,3.665083554E-3
1.930509078E0,2.596100792E-3,6.413896102E-3,4.886778072E-3
1.940222151E0,1.527118147E-4,8.857285604E-3,6.108472589E-3
1.949936005E0,-2.290677279E-3,8.857285604E-3,4.886778072E-3
1.959649078E0,-2.290677279E-3,6.413896102E-3,3.665083554E-3
1.969361265E0,-1.068982761E-3,3.970507067E-3,0.000000000E0
1.979074390E0,1.527118147E-4,2.748812549E-3,-3.665083554E-3
1.988788192E0,1.374406274E-3,5.192201585E-3,-6.108472589E-3
1.998501265E0,1.374406274E-3,7.635590620E-3,-6.108472589E-3
2.008213505E0,-1.068982761E-3,6.413896102E-3,-4.886778072E-3
2.017926578E0,-2.290677279E-3,5.192201585E-3,-6.108472589E-3
2.027640432E0,-4.734066315E-3,1.527118147E-3,-8.551862091E-3
2.037353453E0,-4.734066315E-3,-9.162708884E-4,-1.099525020E-2
2.047065692E0,-5.955760833E-3,-2.137965523E-3,-1.221694518E-2
2.056778817E0,-5.955760833E-3,-2.137965523E-3,-1.221694518E-2
2.066492619E0,-2.290677279E-3,-4.581354558E-3,-1.221694518E-2
2.076205692E0,-1.068982761E-3,-5.803049076E-3,-9.773556143E-3
2.085917880E0,1.374406274E-3,-5.803049076E-3,-7.330167107E-3
2.095631005E0,2.596100792E-3,-4.581354558E-3,-4.886778072E-3
2.105344859E0,2.596100792E-3,1.527118147E-3,-2.443389036E-3
2.115057932E0,2.596100792E-3,6.413896102E-3,1.221694518E-3
2.124770119E0,3.817795310E-3,8.857285604E-3,3.665083554E-3
2.134483244E0,3.817795310E-3,8.857285604E-3,6.108472589E-3
2.144197099E0,6.261184346E-3,6.413896102E-3,6.108472589E-3
2.153910119E0,5.039489828E-3,3.970507067E-3,7.330167107E-3
2.163622359E0,5.039489828E-3,2.748812549E-3,4.886778072E-3
2.173335432E0,2.596100792E-3,-9.162708884E-4,4.886778072E-3
2.183049286E0,1.374406274E-3,-2.137965523E-3,6.108472589E-3
2.192762359E0,-2.290677279E-3,-2.137965523E-3,7.330167107E-3
2.202474599E0,-4.734066315E-3,-3.359660041E-3,8.551862091E-3
2.212187671E0,-7.177455351E-3,-5.803049076E-3,9.773556143E-3
2.221901526E0,-9.620844387E-3,-9.468132630E-3,9.773556143E-3
2.231614599E0,-1.084253844E-2,-1.191152167E-2,8.551862091E-3
2.241326786E0,-7.177455351E-3,-1.313321572E-2,6.108472589E-3
2.251039911E0,-2.290677279E-3,-1.068982668E-2,2.443389036E-3
2.260753765E0,1.374406274E-3,-4.581354558E-3,2.443389036E-3
2.270466838E0,2.596100792E-3,-3.359660041E-3,2.443389036E-3
2.280179026E0,2.596100792E-3,-3.359660041E-3,3.665083554E-3
2.289892151E0,1.374406274E-3,-3.359660041E-3,6.108472589E-3
2.299606005E0,1.374406274E-3,-4.581354558E-3,8.551862091E-3
2.309319078E0,1.374406274E-3,-3.359660041E-3,9.773556143E-3
2.319031265E0,2.596100792E-3,2.748812549E-3,8.551862091E-3
2.328744390E0,3.817795310E-3,6.413896102E-3,6.108472589E-3
2.338458244E0,5.039489828E-3,7.635590620E-3,1.221694518E-3
2.348171317E0,5.039489828E-3,6.413896102E-3,-1.221694518E-3
2.357883505E0,5.039489828E-3,2.748812549E-3,-1.221694518E-3
2.367596630E0,6.261184346E-3,3.054236295E-4,-3.665083554E-3
2.377310484E0,5.039489828E-3,1.527118147E-3,-2.443389036E-3
2.387023557E0,5.039489828E-3,2.748812549E-3,-1.221694518E-3
2.396735744E0,2.596100792E-3,2.748812549E-3,-2.443389036E-3
2.406448869E0,1.374406274E-3,3.970507067E-3,-3.665083554E-3
2.416162724E0,2.596100792E-3,2.748812549E-3,-3.665083554E-3
2.425875796E0,2.596100792E-3,3.054236295E-4,-4.886778072E-3
2.435588036E0,3.817795310E-3,-9.162708884E-4,-6.108472589E-3
2.445301109E0,2.596100792E-3,-9.162708884E-4,-7.330167107E-3
2.455014963E0,1.374406274E-3,-4.581354558E-3,-6.108472589E-3
2.464728036E0,1.527118147E-4,-7.024743594E-3,-6.108472589E-3
2.474440276E0,1.527118147E-4,-3.359660041E-3,-3.665083554E-3
2.484153401E0,1.527118147E-4,1.527118147E-3,-1.221694518E-3
2.493867255E0,-2.290677279E-3,5.192201585E-3,-1.221694518E-3
2.503580328E0,-2.290677279E-3,8.857285604E-3,-1.221694518E-3
2.513292515E0,-1.068982761E-3,1.007897966E-2,0.000000000E0
2.523005640E0,-1.068982761E-3,6.413896102E-3,-1.221694518E-3
2.532719494E0,-1.068982761E-3,1.527118147E-3,-2.443389036E-3
2.542432567E0,-2.290677279E-3,-4.581354558E-3,-3.665083554E-3
2.552144807E0,-4.734066315E-3,-7.024743594E-3,-3.665083554E-3
2.561857880E0,-4.734066315E-3,-7.024743594E-3,-6.108472589E-3
2.571571734E0,-3.512371797E-3,-4.581354558E-3,-7.330167107E-3
2.581284807E0,-2.290677279E-3,-4.581354558E-3,-6.108472589E-3
2.590997046E0,-2.290677279E-3,-3.359660041E-3,-4.886778072E-3
2.600710171E0,-1.068982761E-3,-3.359660041E-3,-4.886778072E-3
2.610424026E0,-2.290677279E-3,-3.359660041E-3,-2.443389036E-3
2.620137099E0,-1.068982761E-3,-2.137965523E-3,0.000000000E0
2.629849286E0,2.596100792E-3,1.527118147E-3,1.221694518E-3
2.639562411E0,3.817795310E-3,3.970507067E-3,2.443389036E-3
2.649276265E0,2.596100792E-3,5.192201585E-3,3.665083554E-3
2.658989338E0,1.527118147E-4,6.413896102E-3,4.886778072E-3
2.668701578E0,-2.290677279E-3,5.192201585E-3,2.443389036E-3
2.678414703E0,-3.512371797E-3,3.970507067E-3,4.886778072E-3
2.688128557E0,-3.512371797E-3,5.192201585E-3,4.886778072E-3
2.697841630E0,-3.512371797E-3,3.970507067E-3,3.665083554E-3
2.707553869E0,-2.290677279E-3,3.054236295E-4,2.443389036E-3
2.717266994E0,-1.068982761E-3,-4.581354558E-3,2.443389036E-3
2.726980849E0,1.527118147E-4,-5.803049076E-3,1.221694518E-3
2.736693869E0,1.374406274E-3,-4.581354558E-3,1.221694518E-3
2.746406109E0,1.374406274E-3,-3.359660041E-3,1.221694518E-3
2.756119234E0,1.374406274E-3,-3.359660041E-3,2.443389036E-3
2.765833088E0,1.374406274E-3,-4.581354558E-3,2.443389036E-3
2.775546161E0,2.596100792E-3,-7.024743594E-3,1.221694518E-3
2.785258401E0,3.817795310E-3,-5.803049076E-3,-1.221694518E-3
2.794971526E0,5.039489828E-3,-4.581354558E-3,-1.221694518E-3
2.804685380E0,3.817795310E-3,-2.137965523E-3,-1.221694518E-3
2.814398453E0,2.596100792E-3,1.527118147E-3,-1.221694518E-3
2.824110692E0,1.374406274E-3,1.527118147E-3,-1.221694518E-3
2.833823817E0,1.374406274E-3,2.748812549E-3,-2.443389036E-3
2.843537671E0,1.374406274E-3,2.748812549E-3,-2.443389036E-3
2.853250744E0,2.596100792E-3,1.527118147E-3,-2.443389036E-3
2.862962984E0,3.817795310E-3,3.970507067E-3,-2.443389036E-3
2.872676109E0,3.817795310E-3,6.413896102E-3,-2.443389036E-3
2.882389963E0,3.817795310E-3,6.413896102E-3,-2.443389036E-3
2.892103036E0,3.817795310E-3,2.748812549E-3,-3.665083554E-3
2.901815276E0,1.374406274E-3,3.054236295E-4,-3.665083554E-3
2.911528401E0,1.527118147E-4,-3.359660041E-3,-2.443389036E-3
2.921242255E0,1.527118147E-4,-4.581354558E-3,-3.665083554E-3
2.930955328E0,1.527118147E-4,-4.581354558E-3,-3.665083554E-3
2.940667567E0,2.596100792E-3,-9.162708884E-4,-3.665083554E-3
2.950380692E0,3.817795310E-3,3.054236295E-4,-2.443389036E-3
2.960094546E0,3.817795310E-3,2.748812549E-3,0.000000000E0
2.969807619E0,2.596100792E-3,3.970507067E-3,1.221694518E-3
2.979519859E0,2.596100792E-3,1.527118147E-3,2.443389036E-3
2.989232984E0,1.374406274E-3,2.748812549E-3,2.443389036E-3
2.998946838E0,1.374406274E-3,3.970507067E-3,2.443389036E-3
3.008659911E0,1.374406274E-3,1.527118147E-3,2.443389036E-3
3.018372151E0,2.596100792E-3,-2.137965523E-3,1.221694518E-3
3.028085276E0,3.817795310E-3,-3.359660041E-3,0.000000000E0
3.037799130E0,3.817795310E-3,-3.359660041E-3,-1.221694518E-3
3.047512203E0,1.374406274E-3,-9.162708884E-4,-1.221694518E-3
3.057224442E0,-2.290677279E-3,2.748812549E-3,2.443389036E-3
3.066937567E0,-3.512371797E-3,3.970507067E-3,2.443389036E-3
3.076651421E0,-2.290677279E-3,3.970507067E-3,1.221694518E-3
3.086364494E0,1.527118147E-4,1.527118147E-3,1.221694518E-3
3.096076734E0,1.527118147E-4,3.054236295E-4,1.221694518E-3
3.105789859E0,1.527118147E-4,3.054236295E-4,1.221694518E-3
3.115503713E0,-1.068982761E-3,3.054236295E-4,2.443389036E-3
3.125216786E0,-1.068982761E-3,-9.162708884E-4,1.221694518E-3
3.134929026E0,1.527118147E-4,-9.162708884E-4,0.000000000E0
3.144642151E0,1.527118147E-4,3.054236295E-4,0.000000000E0
3.154356057E0,1.374406274E-3,1.527118147E-3,-1.221694518E-3
3.164069130E0,1.374406274E-3,1.527118147E-3,0.000000000E0
3.173781317E0,1.527118147E-4,-9.162708884E-4,1.221694518E-3
3.183494494E0,1.527118147E-4,-5.803049076E-3,0.000000000E0
3.193208349E0,-1.068982761E-3,-4.581354558E-3,1.221694518E-3
3.202921421E0,-3.512371797E-3,-4.581354558E-3,2.443389036E-3
3.212633661E0,-8.399149403E-3,-1.068982668E-2,4.886778072E-3
3.222346786E0,-1.328592747E-2,-1.801999472E-2,4.886778072E-3
3.232060640E0,-1.328592747E-2,-1.924168877E-2,3.665083554E-3
3.241773713E0,-9.620844387E-3,-1.679829881E-2,1.221694518E-3
3.251485953E0,-7.177455351E-3,-1.557660475E-2,-3.665083554E-3
3.261199078E0,-5.955760833E-3,-1.557660475E-2,-8.551862091E-3
3.270912984E0,-8.399149403E-3,-9.468132630E-3,-9.773556143E-3
3.280626057E0,-9.620844387E-3,-3.359660041E-3,-8.551862091E-3
3.290338296E0,-1.084253844E-2,-9.162708884E-4,-7.330167107E-3
3.300051421E0,-9.620844387E-3,-2.137965523E-3,-7.330167107E-3
3.309765276E0,-7.177455351E-3,-3.359660041E-3,-6.108472589E-3
3.319478349E0,-2.290677279E-3,-4.581354558E-3,-7.330167107E-3
3.329190588E0,3.817795310E-3,-3.359660041E-3,-7.330167107E-3
3.338903713E0,6.261184346E-3,3.054236295E-4,-7.330167107E-3
3.348617619E0,7.482878864E-3,5.192201585E-3,-3.665083554E-3
3.358330692E0,6.261184346E-3,8.857285604E-3,-1.221694518E-3
3.368042932E0,6.261184346E-3,1.007897966E-2,1.221694518E-3
3.377756057E0,6.261184346E-3,1.130067464E-2,4.886778072E-3
3.387469911E0,6.261184346E-3,1.252236869E-2,7.330167107E-3
3.397182984E0,6.261184346E-3,1.496575773E-2,8.551862091E-3
3.406895224E0,7.482878864E-3,1.252236869E-2,7.330167107E-3
3.416608401E0,6.261184346E-3,1.007897966E-2,8.551862091E-3
3.426322255E0,5.039489828E-3,6.413896102E-3,7.330167107E-3
3.436035328E0,3.817795310E-3,2.748812549E-3,7.330167107E-3
3.445747567E0,3.817795310E-3,1.527118147E-3,4.886778072E-3
3.455460692E0,2.596100792E-3,3.054236295E-4,3.665083554E-3
3.465174599E0,1.374406274E-3,1.527118147E-3,3.665083554E-3
3.474887671E0,1.527118147E-4,-9.162708884E-4,2.443389036E-3
3.484599911E0,-2.290677279E-3,-3.359660041E-3,2.443389036E-3
3.494313036E0,-3.512371797E-3,-3.359660041E-3,2.443389036E-3
3.504026890E0,-3.512371797E-3,-2.137965523E-3,0.000000000E0
3.513740015E0,-3.512371797E-3,-2.137965523E-3,1.221694518E-3
3.523452255E0,-3.512371797E-3,-9.162708884E-4,2.443389036E-3
3.533165380E0,-3.512371797E-3,2.748812549E-3,3.665083554E-3
3.542879234E0,-4.734066315E-3,5.192201585E-3,4.886778072E-3
3.552592307E0,-5.955760833E-3,6.413896102E-3,7.330167107E-3
3.562304546E0,-8.399149403E-3,2.748812549E-3,6.108472589E-3
3.572017724E0,-8.399149403E-3,-9.162708884E-4,3.665083554E-3
3.581731578E0,-5.955760833E-3,-4.581354558E-3,1.221694518E-3
3.591444651E0,-3.512371797E-3,-4.581354558E-3,-1.221694518E-3
3.601156890E0,-2.290677279E-3,1.527118147E-3,-3.665083554E-3
3.610870067E0,-4.734066315E-3,6.413896102E-3,-6.108472589E-3
3.620583921E0,-8.399149403E-3,6.413896102E-3,-7.330167107E-3
3.630296994E0,-9.620844387E-3,6.413896102E-3,-8.551862091E-3
3.640009234E0,-7.177455351E-3,7.635590620E-3,-8.551862091E-3
3.649722411E0,-3.512371797E-3,7.635590620E-3,-6.108472589E-3
3.659436265E0,1.374406274E-3,7.635590620E-3,-4.886778072E-3
3.669149338E0,3.817795310E-3,5.192201585E-3,-4.886778072E-3
3.678861578E0,5.039489828E-3,1.527118147E-3,-3.665083554E-3
3.688574755E0,5.039489828E-3,3.054236295E-4,-1.221694518E-3
3.698288609E0,2.596100792E-3,3.054236295E-4,0.000000000E0
3.708001682E0,1.374406274E-3,3.054236295E-4,1.221694518E-3
3.717713921E0,1.527118147E-4,-9.162708884E-4,2.443389036E-3
3.727427099E0,1.527118147E-4,-4.581354558E-3,2.443389036E-3
3.737140953E0,-1.068982761E-3,-5.803049076E-3,4.886778072E-3
3.746854026E0,-2.290677279E-3,-5.803049076E-3,8.551862091E-3
3.756566265E0,-3.512371797E-3,-4.581354558E-3,1.099525020E-2
3.766279442E0,-3.512371797E-3,-4.581354558E-3,1.221694518E-2
3.775993296E0,-4.734066315E-3,-2.137965523E-3,1.466033421E-2
3.785706369E0,-8.399149403E-3,1.527118147E-3,1.466033421E-2
3.795418661E0,-8.399149403E-3,3.970507067E-3,1.466033421E-2
3.805131786E0,-8.399149403E-3,-9.162708884E-4,1.221694518E-2
3.814845640E0,-9.620844387E-3,-1.191152167E-2,9.773556143E-3
3.824558765E0,-1.206423342E-2,-2.168507688E-2,6.108472589E-3
3.834271005E0,-1.206423342E-2,-1.801999472E-2,2.443389036E-3
3.843984130E0,-9.620844387E-3,-8.246437646E-3,0.000000000E0
3.853697984E0,-7.177455351E-3,-4.581354558E-3,-3.665083554E-3
3.863411109E0,-4.734066315E-3,-4.581354558E-3,-6.108472589E-3
3.873123349E0,-5.955760833E-3,-8.246437646E-3,-7.330167107E-3
3.882836474E0,-4.734066315E-3,-8.246437646E-3,-6.108472589E-3
3.892550380E0,-3.512371797E-3,-3.359660041E-3,-4.886778072E-3
3.902263453E0,-1.068982761E-3,1.527118147E-3,-3.665083554E-3
3.911975692E0,1.374406274E-3,3.970507067E-3,-3.665083554E-3
3.921688869E0,5.039489828E-3,3.970507067E-3,-6.108472589E-3
3.931402724E0,6.261184346E-3,3.970507067E-3,-3.665083554E-3
3.941115849E0,6.261184346E-3,3.970507067E-3,-2.443389036E-3
3.950828088E0,6.261184346E-3,5.192201585E-3,-1.221694518E-3
3.960541213E0,7.482878864E-3,5.192201585E-3,0.000000000E0
3.970255119E0,7.482878864E-3,2.748812549E-3,0.000000000E0
3.979968192E0,9.926267900E-3,1.527118147E-3,1.221694518E-3
3.989680432E0,1.114796288E-2,3.970507067E-3,3.665083554E-3
3.999393557E0,1.114796288E-2,5.192201585E-3,4.886778072E-3
4.009107463E0,9.926267900E-3,6.413896102E-3,6.108472589E-3
4.018820536E0,8.704573847E-3,5.192201585E-3,7.330167107E-3
4.028532776E0,8.704573847E-3,3.970507067E-3,7.330167107E-3
4.038245953E0,7.482878864E-3,5.192201585E-3,6.108472589E-3
4.047959807E0,6.261184346E-3,5.192201585E-3,6.108472589E-3
4.057672932E0,3.817795310E-3,6.413896102E-3,4.886778072E-3
4.067385171E0,-1.068982761E-3,1.527118147E-3,3.665083554E-3
4.077098296E0,-4.734066315E-3,-5.803049076E-3,2.443389036E-3
4.086812203E0,-7.177455351E-3,-9.468132630E-3,1.221694518E-3
4.096525276E0,-4.734066315E-3,-8.246437646E-3,-1.221694518E-3
4.106237515E0,-3.512371797E-3,-8.246437646E-3,-2.443389036E-3
4.115950692E0,-2.290677279E-3,-5.803049076E-3,-3.665083554E-3
4.125664546E0,-2.290677279E-3,-2.137965523E-3,-2.443389036E-3
4.135377671E0,-1.068982761E-3,3.970507067E-3,-1.221694518E-3
4.145089911E0,-2.290677279E-3,8.857285604E-3,0.000000000E0
4.154803036E0,-2.290677279E-3,8.857285604E-3,0.000000000E0
4.164516942E0,-3.512371797E-3,5.192201585E-3,-2.443389036E-3
4.174230015E0,-3.512371797E-3,3.054236295E-4,-2.443389036E-3
4.183942255E0,-1.068982761E-3,-9.162708884E-4,-3.665083554E-3
4.193655432E0,1.374406274E-3,-9.162708884E-4,-4.886778072E-3
4.203369286E0,2.596100792E-3,2.748812549E-3,-4.886778072E-3
4.213082411E0,2.596100792E-3,5.192201585E-3,-3.665083554E-3
4.222794651E0,1.374406274E-3,2.748812549E-3,-2.443389036E-3
4.232507776E0,1.527118147E-4,2.748812549E-3,0.000000000E0
4.242221682E0,1.527118147E-4,3.054236295E-4,1.221694518E-3
4.251934755E0,-1.068982761E-3,1.527118147E-3,3.665083554E-3
4.261647046E0,1.527118147E-4,5.192201585E-3,2.443389036E-3
4.271360171E0,1.374406274E-3,5.192201585E-3,1.221694518E-3
4.281074078E0,1.374406274E-3,3.054236295E-4,-1.221694518E-3
4.290787151E0,3.817795310E-3,-9.162708884E-4,-2.443389036E-3
4.300499390E0,5.039489828E-3,-9.162708884E-4,-2.443389036E-3
4.310212567E0,3.817795310E-3,3.054236295E-4,-1.221694518E-3
4.319926421E0,2.596100792E-3,3.054236295E-4,-1.221694518E-3
4.329639546E0,2.596100792E-3,-9.162708884E-4,0.000000000E0
4.339351786E0,1.374406274E-3,-2.137965523E-3,1.221694518E-3
4.349064911E0,-1.068982761E-3,-9.162708884E-4,3.665083554E-3
4.358778817E0,-1.068982761E-3,3.054236295E-4,6.108472589E-3
4.368491890E0,-1.068982761E-3,3.054236295E-4,6.108472589E-3
4.378204130E0,1.527118147E-4,1.527118147E-3,6.108472589E-3
4.387917307E0,1.374406274E-3,1.527118147E-3,7.330167107E-3
4.397631161E0,3.817795310E-3,2.748812549E-3,8.551862091E-3
4.407344286E0,3.817795310E-3,3.970507067E-3,8.551862091E-3
4.417056526E0,3.817795310E-3,5.192201585E-3,7.330167107E-3
4.426769703E0,1.374406274E-3,5.192201585E-3,6.108472589E-3
4.436483557E0,1.374406274E-3,2.748812549E-3,4.886778072E-3
4.446196630E0,1.374406274E-3,3.054236295E-4,4.886778072E-3
4.455908921E0,1.374406274E-3,-3.359660041E-3,3.665083554E-3
4.465622046E0,2.596100792E-3,-2.137965523E-3,2.443389036E-3
4.475335953E0,2.596100792E-3,-2.137965523E-3,3.665083554E-3
4.485049026E0,1.374406274E-3,-2.137965523E-3,3.665083554E-3
4.494761265E0,1.527118147E-4,-9.162708884E-4,3.665083554E-3
4.504474442E0,-2.290677279E-3,1.527118147E-3,3.665083554E-3
4.514188296E0,-1.068982761E-3,1.527118147E-3,3.665083554E-3
4.523901421E0,1.527118147E-4,3.054236295E-4,0.000000000E0
4.533613661E0,1.374406274E-3,-9.162708884E-4,-1.221694518E-3
4.543326786E0,1.374406274E-3,-3.359660041E-3,-3.665083554E-3
4.553040692E0,2.596100792E-3,-3.359660041E-3,-6.108472589E-3
4.562753765E0,3.817795310E-3,3.054236295E-4,-6.108472589E-3
4.572466005E0,3.817795310E-3,3.970507067E-3,-6.108472589E-3
4.582179182E0,3.817795310E-3,5.192201585E-3,-6.108472589E-3
4.591893036E0,3.817795310E-3,5.192201585E-3,-6.108472589E-3
4.601606161E0,3.817795310E-3,5.192201585E-3,-4.886778072E-3
4.611318401E0,3.817795310E-3,7.635590620E-3,-4.886778072E-3
4.621031526E0,3.817795310E-3,6.413896102E-3,-6.108472589E-3
4.630745432E0,2.596100792E-3,7.635590620E-3,-4.886778072E-3
4.640458505E0,1.527118147E-4,7.635590620E-3,-6.108472589E-3
4.650170796E0,-1.068982761E-3,2.748812549E-3,-4.886778072E-3
4.659883921E0,-2.290677279E-3,3.054236295E-4,-4.886778072E-3
4.669597828E0,-2.290677279E-3,-9.162708884E-4,-4.886778072E-3
4.679310901E0,-2.290677279E-3,3.054236295E-4,-4.886778072E-3
4.689023140E0,-2.290677279E-3,3.054236295E-4,-1.221694518E-3
4.698736265E0,1.527118147E-4,3.054236295E-4,-2.443389036E-3
4.708450171E0,2.596100792E-3,1.527118147E-3,0.000000000E0
4.718163244E0,1.374406274E-3,3.054236295E-4,2.443389036E-3
4.727875536E0,1.527118147E-4,-3.359660041E-3,2.443389036E-3
4.737588661E0,-1.068982761E-3,-5.803049076E-3,3.665083554E-3
4.747302515E0,1.374406274E-3,-4.581354558E-3,6.108472589E-3
4.757015640E0,2.596100792E-3,-4.581354558E-3,4.886778072E-3
4.766727880E0,3.817795310E-3,-3.359660041E-3,4.886778072E-3
4.776441005E0,2.596100792E-3,-4.581354558E-3,7.330167107E-3
4.786154911E0,1.374406274E-3,-4.581354558E-3,7.330167107E-3
4.795867984E0,1.374406274E-3,-3.359660041E-3,7.330167107E-3
4.805580224E0,1.374406274E-3,3.054236295E-4,6.108472589E-3
4.815293401E0,2.596100792E-3,2.748812549E-3,4.886778072E-3
4.825007255E0,1.374406274E-3,1.527118147E-3,3.665083554E-3
4.834720380E0,1.527118147E-4,3.054236295E-4,2.443389036E-3
4.844432619E0,-1.068982761E-3,1.527118147E-3,1.221694518E-3
4.854145744E0,-2.290677279E-3,1.527118147E-3,0.000000000E0
4.863859651E0,-1.068982761E-3,-9.162708884E-4,-2.443389036E-3
4.873572724E0,1.527118147E-4,-2.137965523E-3,-3.665083554E-3
4.883284963E0,1.527118147E-4,-2.137965523E-3,-4.886778072E-3
4.892998140E0,1.374406274E-3,-2.137965523E-3,-6.108472589E-3
4.902711994E0,1.374406274E-3,1.527118147E-3,-6.108472589E-3
4.912425067E0,2.596100792E-3,3.970507067E-3,-6.108472589E-3
4.922137359E0,1.374406274E-3,1.527118147E-3,-4.886778072E-3
4.931850484E0,1.527118147E-4,-9.162708884E-4,-3.665083554E-3
4.941564338E0,-2.290677279E-3,-9.162708884E-4,-2.443389036E-3
4.951277463E0,-2.290677279E-3,3.054236295E-4,-1.221694518E-3
4.960989703E0,1.527118147E-4,3.970507067E-3,0.000000000E0
4.970702828E0,1.374406274E-3,7.635590620E-3,-1.221694518E-3
4.980416734E0,2.596100792E-3,7.635590620E-3,0.000000000E0
4.990129807E0,2.596100792E-3,5.192201585E-3,0.000000000E0
4.999842046E0,1.527118147E-4,2.748812549E-3,0.000000000E0
5.009555224E0,1.374406274E-3,-9.162708884E-4,-1.221694518E-3
5.019269078E0,3.817795310E-3,-3.359660041E-3,-2.443389036E-3
5.028982151E0,3.817795310E-3,-4.581354558E-3,-3.665083554E-3
5.038694390E0,3.817795310E-3,-4.581354558E-3,-7.330167107E-3
5.048407567E0,5.039489828E-3,-2.137965523E-3,-9.773556143E-3
5.058121421E0,5.039489828E-3,-2.137965523E-3,-7.330167107E-3
5.067834494E0,3.817795310E-3,-3.359660041E-3,-4.886778072E-3
5.077546786E0,2.596100792E-3,-4.581354558E-3,-2.443389036E-3
5.087259911E0,3.817795310E-3,-3.359660041E-3,-1.221694518E-3
5.096973765E0,5.039489828E-3,-9.162708884E-4,1.221694518E-3
5.106686890E0,3.817795310E-3,3.054236295E-4,3.665083554E-3
5.116399130E0,3.817795310E-3,2.748812549E-3,4.886778072E-3
5.126112255E0,2.596100792E-3,3.970507067E-3,4.886778072E-3
5.135826109E0,1.374406274E-3,2.748812549E-3,3.665083554E-3
5.145539234E0,2.596100792E-3,1.527118147E-3,1.221694518E-3
5.155251474E0,2.596100792E-3,3.054236295E-4,2.443389036E-3
5.164964599E0,2.596100792E-3,-2.137965523E-3,1.221694518E-3
5.174678505E0,3.817795310E-3,-9.162708884E-4,0.000000000E0
5.184391578E0,1.374406274E-3,3.054236295E-4,0.000000000E0
5.194103817E0,1.527118147E-4,3.054236295E-4,0.000000000E0
5.203816942E0,-2.290677279E-3,-2.137965523E-3,0.000000000E0
5.213530849E0,-4.734066315E-3,-3.359660041E-3,0.000000000E0
5.223243921E0,-5.955760833E-3,-2.137965523E-3,-1.221694518E-3
5.232956161E0,-5.955760833E-3,-9.162708884E-4,-1.221694518E-3
5.242669286E0,-4.734066315E-3,-5.803049076E-3,-2.443389036E-3
5.252383140E0,-3.512371797E-3,-9.468132630E-3,-6.108472589E-3
5.262096265E0,-4.734066315E-3,-1.068982668E-2,-6.108472589E-3
5.271808505E0,-4.734066315E-3,-9.468132630E-3,-7.330167107E-3
5.281521630E0,-5.955760833E-3,-5.803049076E-3,-6.108472589E-3
5.291235484E0,-3.512371797E-3,-4.581354558E-3,-4.886778072E-3
5.300948609E0,1.527118147E-4,-3.359660041E-3,-6.108472589E-3
5.310660849E0,2.596100792E-3,-9.162708884E-4,-4.886778072E-3
5.320373974E0,5.039489828E-3,3.970507067E-3,-3.665083554E-3
5.330087880E0,6.261184346E-3,7.635590620E-3,-1.221694518E-3
5.339800953E0,7.482878864E-3,1.007897966E-2,0.000000000E0
5.349513192E0,3.817795310E-3,1.007897966E-2,2.443389036E-3
5.359226317E0,1.374406274E-3,7.635590620E-3,3.665083554E-3
5.368940171E0,-1.068982761E-3,6.413896102E-3,3.665083554E-3
5.378653244E0,-2.290677279E-3,3.970507067E-3,3.665083554E-3
5.388365536E0,-3.512371797E-3,-9.162708884E-4,1.221694518E-3
5.398078661E0,-1.068982761E-3,-3.359660041E-3,0.000000000E0
5.407792515E0,1.527118147E-4,-3.359660041E-3,-1.221694518E-3
5.417505588E0,1.374406274E-3,-4.581354558E-3,-2.443389036E-3
5.427217828E0,2.596100792E-3,-5.803049076E-3,-2.443389036E-3
5.436931005E0,3.817795310E-3,-7.024743594E-3,-2.443389036E-3
5.446644859E0,3.817795310E-3,-8.246437646E-3,-1.221694518E-3
5.456357932E0,5.039489828E-3,-7.024743594E-3,0.000000000E0
5.466070171E0,5.039489828E-3,-2.137965523E-3,1.221694518E-3
5.475783296E0,3.817795310E-3,1.527118147E-3,3.665083554E-3
5.485497203E0,2.596100792E-3,2.748812549E-3,3.665083554E-3
5.495210276E0,1.374406274E-3,2.748812549E-3,3.665083554E-3
5.504922515E0,-1.068982761E-3,1.527118147E-3,2.443389036E-3
5.514635640E0,-1.068982761E-3,-9.162708884E-4,2.443389036E-3
5.524349494E0,1.527118147E-4,-2.137965523E-3,0.000000000E0
5.534062619E0,2.596100792E-3,-2.137965523E-3,0.000000000E0
5.543774859E0,3.817795310E-3,3.054236295E-4,0.000000000E0
5.553487984E0,3.817795310E-3,3.054236295E-4,0.000000000E0
5.563201838E0,3.817795310E-3,1.527118147E-3,0.000000000E0
5.572914911E0,2.596100792E-3,3.054236295E-4,0.000000000E0
5.582627151E0,3.817795310E-3,3.054236295E-4,0.000000000E0
5.592340276E0,2.596100792E-3,3.054236295E-4,1.221694518E-3
5.602054182E0,1.374406274E-3,3.054236295E-4,0.000000000E0
5.611767255E0,1.527118147E-4,3.054236295E-4,0.000000000E0
5.621479494E0,-1.068982761E-3,-9.162708884E-4,0.000000000E0
5.631192619E0,1.527118147E-4,-3.359660041E-3,-2.443389036E-3
5.640906474E0,1.527118147E-4,-2.137965523E-3,-2.443389036E-3
5.650619599E0,1.374406274E-3,1.527118147E-3,0.000000000E0
5.660331838E0,1.527118147E-4,5.192201585E-3,0.000000000E0
5.670044963E0,1.527118147E-4,7.635590620E-3,0.000000000E0
5.679758817E0,-1.068982761E-3,8.857285604E-3,1.221694518E-3
5.689471890E0,-1.068982761E-3,7.635590620E-3,0.000000000E0
5.699184130E0,-1.068982761E-3,2.748812549E-3,-1.221694518E-3
5.708897255E0,1.527118147E-4,1.527118147E-3,-3.665083554E-3
5.718611161E0,1.527118147E-4,3.054236295E-4,-3.665083554E-3
5.728324234E0,1.527118147E-4,-9.162708884E-4,-2.443389036E-3
5.738036474E0,1.374406274E-3,-9.162708884E-4,-2.443389036E-3
5.747749599E0,1.374406274E-3,3.054236295E-4,-1.221694518E-3
5.757463453E0,1.374406274E-3,1.527118147E-3,0.000000000E0
5.767176526E0,1.374406274E-3,1.527118147E-3,0.000000000E0
5.776888765E0,1.374406274E-3,2.748812549E-3,0.000000000E0
5.786601890E0,2.596100792E-3,3.970507067E-3,0.000000000E0
5.796315796E0,3.817795310E-3,2.748812549E-3,1.221694518E-3
5.806028869E0,5.039489828E-3,1.527118147E-3,0.000000000E0
5.815741109E0,7.482878864E-3,-9.162708884E-4,-2.443389036E-3
5.825454234E0,6.261184346E-3,-2.137965523E-3,-4.886778072E-3
5.835168088E0,1.374406274E-3,-2.137965523E-3,-3.665083554E-3
5.844881161E0,1.527118147E-4,-2.137965523E-3,-3.665083554E-3
5.854593401E0,1.527118147E-4,-3.359660041E-3,-3.665083554E-3
5.864306526E0,1.527118147E-4,-9.162708884E-4,-2.443389036E-3
5.874020432E0,1.527118147E-4,3.970507067E-3,0.000000000E0
5.883733505E0,1.527118147E-4,5.192201585E-3,1.221694518E-3
5.893445744E0,1.527118147E-4,3.970507067E-3,2.443389036E-3
5.903158869E0,1.527118147E-4,2.748812549E-3,2.443389036E-3
5.912872724E0,1.374406274E-3,2.748812549E-3,2.443389036E-3
5.922585796E0,1.527118147E-4,3.970507067E-3,1.221694518E-3
5.932298036E0,-1.068982761E-3,5.192201585E-3,0.000000000E0
5.942011161E0,-1.068982761E-3,3.970507067E-3,0.000000000E0
5.951725015E0,-1.068982761E-3,3.970507067E-3,0.000000000E0
5.961438088E0,1.527118147E-4,3.970507067E-3,-1.221694518E-3
5.971150328E0,1.527118147E-4,3.970507067E-3,-1.221694518E-3
5.980863453E0,1.527118147E-4,3.970507067E-3,-2.443389036E-3
5.990577359E0,-1.068982761E-3,6.413896102E-3,0.000000000E0
6.000290432E0,-2.290677279E-3,6.413896102E-3,0.000000000E0
6.010002671E0,-3.512371797E-3,3.970507067E-3,1.221694518E-3
6.019715796E0,-4.734066315E-3,3.054236295E-4,-1.221694518E-3
6.029429651E0,-4.734066315E-3,-4.581354558E-3,-2.443389036E-3
6.039142724E0,-2.290677279E-3,-8.246437646E-3,-3.665083554E-3
6.048854963E0,-1.068982761E-3,-7.024743594E-3,-3.665083554E-3
6.058568088E0,1.527118147E-4,-4.581354558E-3,-4.886778072E-3
6.068281942E0,3.817795310E-3,-4.581354558E-3,-4.886778072E-3
6.077995015E0,6.261184346E-3,-2.137965523E-3,-4.886778072E-3
6.087707255E0,5.039489828E-3,-9.162708884E-4,-2.443389036E-3
6.097420380E0,6.261184346E-3,2.748812549E-3,-1.221694518E-3
6.107134234E0,5.039489828E-3,5.192201585E-3,0.000000000E0
6.116847307E0,2.596100792E-3,6.413896102E-3,1.221694518E-3
6.126559546E0,2.596100792E-3,6.413896102E-3,3.665083554E-3
6.136272671E0,1.374406274E-3,6.413896102E-3,3.665083554E-3
6.145986578E0,-1.068982761E-3,5.192201585E-3,2.443389036E-3
6.155699651E0,-2.290677279E-3,3.970507067E-3,2.443389036E-3
6.165411890E0,-1.068982761E-3,3.054236295E-4,1.221694518E-3
6.175124963E0,-1.068982761E-3,-2.137965523E-3,0.000000000E0
6.184838869E0,1.527118147E-4,-2.137965523E-3,0.000000000E0
6.194551942E0,1.374406274E-3,3.054236295E-4,0.000000000E0
6.204264182E0,1.374406274E-3,2.748812549E-3,-1.221694518E-3
6.213977307E0,1.374406274E-3,3.054236295E-4,-1.221694518E-3
6.223691161E0,-1.068982761E-3,-3.359660041E-3,0.000000000E0
6.233404234E0,-2.290677279E-3,-3.359660041E-3,0.000000000E0
6.243116474E0,-3.512371797E-3,-3.359660041E-3,-1.221694518E-3
6.252829599E0,-3.512371797E-3,-2.137965523E-3,-1.221694518E-3
6.262543453E0,-3.512371797E-3,-2.137965523E-3,-1.221694518E-3
6.272256526E0,-3.512371797E-3,-9.162708884E-4,0.000000000E0
6.281968765E0,-3.512371797E-3,3.054236295E-4,0.000000000E0
6.291681890E0,-3.512371797E-3,-9.162708884E-4,0.000000000E0
6.301395744E0,-1.068982761E-3,-2.137965523E-3,0.000000000E0
6.311108817E0,1.527118147E-4,-9.162708884E-4,0.000000000E0
6.320821057E0,1.527118147E-4,1.527118147E-3,0.000000000E0
6.330534182E0,1.527118147E-4,3.054236295E-4,0.000000000E0
6.340248036E0,1.527118147E-4,-3.359660041E-3,-1.221694518E-3
6.349961109E0,-1.068982761E-3,-5.803049076E-3,0.000000000E0
6.359673349E0,-1.068982761E-3,-4.581354558E-3,0.000000000E0
6.369386474E0,-1.068982761E-3,-3.359660041E-3,0.000000000E0
6.379100328E0,-1.068982761E-3,-9.162708884E-4,-2.443389036E-3
6.388813401E0,-1.068982761E-3,3.054236295E-4,-3.665083554E-3
6.398525640E0,-2.290677279E-3,2.748812549E-3,-3.665083554E-3
6.408238765E0,-1.068982761E-3,2.748812549E-3,-3.665083554E-3
6.417952619E0,-1.068982761E-3,1.527118147E-3,-2.443389036E-3
6.427665692E0,-1.068982761E-3,1.527118147E-3,-2.443389036E-3
6.437377932E0,-2.290677279E-3,1.527118147E-3,-1.221694518E-3
6.447091057E0,-3.512371797E-3,3.054236295E-4,0.000000000E0
6.456804911E0,-2.290677279E-3,-9.162708884E-4,-1.221694518E-3
6.466517984E0,1.527118147E-4,-9.162708884E-4,-1.221694518E-3
6.476230171E0,2.596100792E-3,1.527118147E-3,-1.221694518E-3
6.485943296E0,3.817795310E-3,3.970507067E-3,-2.443389036E-3
6.495657151E0,3.817795310E-3,3.970507067E-3,0.000000000E0
6.505370224E0,2.596100792E-3,2.748812549E-3,1.221694518E-3
6.515082463E0,1.527118147E-4,2.748812549E-3,1.221694518E-3
6.524795588E0,1.527118147E-4,1.527118147E-3,1.221694518E-3
6.534509442E0,2.596100792E-3,-9.162708884E-4,-1.221694518E-3
6.544222515E0,3.817795310E-3,-2.137965523E-3,-1.221694518E-3
6.553934755E0,5.039489828E-3,-4.581354558E-3,-2.443389036E-3
6.563647880E0,5.039489828E-3,-5.803049076E-3,-4.886778072E-3
6.573361734E0,5.039489828E-3,-8.246437646E-3,-4.886778072E-3
6.583074807E0,3.817795310E-3,-9.468132630E-3,-6.108472589E-3
6.592787046E0,3.817795310E-3,-9.468132630E-3,-7.330167107E-3
6.602500171E0,5.039489828E-3,-8.246437646E-3,-4.886778072E-3
6.612214026E0,3.817795310E-3,-5.803049076E-3,-2.443389036E-3
6.621927099E0,3.817795310E-3,-3.359660041E-3,-1.221694518E-3
6.631639286E0,2.596100792E-3,-2.137965523E-3,2.443389036E-3
6.641352411E0,3.817795310E-3,1.527118147E-3,3.665083554E-3
6.651066265E0,3.817795310E-3,3.970507067E-3,6.108472589E-3
6.660779338E0,1.374406274E-3,2.748812549E-3,4.886778072E-3
6.670491578E0,1.527118147E-4,2.748812549E-3,4.886778072E-3
6.680204703E0,1.527118147E-4,2.748812549E-3,3.665083554E-3
6.689918557E0,1.527118147E-4,2.748812549E-3,2.443389036E-3
6.699631630E0,1.374406274E-3,1.527118147E-3,1.221694518E-3
6.709343869E0,2.596100792E-3,2.748812549E-3,1.221694518E-3
6.719056994E0,2.596100792E-3,3.970507067E-3,0.000000000E0
6.728770849E0,1.527118147E-4,7.635590620E-3,0.000000000E0
6.738483921E0,-1.068982761E-3,8.857285604E-3,-1.221694518E-3
6.748196109E0,-1.068982761E-3,7.635590620E-3,-1.221694518E-3
6.757909234E0,-2.290677279E-3,5.192201585E-3,-1.221694518E-3
6.767623088E0,-3.512371797E-3,1.527118147E-3,-2.443389036E-3
6.777336161E0,-3.512371797E-3,1.527118147E-3,-3.665083554E-3
6.787048401E0,-3.512371797E-3,-9.162708884E-4,-4.886778072E-3
6.796761526E0,-2.290677279E-3,-3.359660041E-3,-4.886778072E-3
6.806475380E0,-1.068982761E-3,-5.803049076E-3,-6.108472589E-3
6.816188453E0,1.527118147E-4,-5.803049076E-3,-7.330167107E-3
6.825900640E0,2.596100792E-3,-9.162708884E-4,-6.108472589E-3
6.835613765E0,3.817795310E-3,3.970507067E-3,-3.665083554E-3
6.845327619E0,3.817795310E-3,3.970507067E-3,-1.221694518E-3
6.855040692E0,5.039489828E-3,2.748812549E-3,0.000000000E0
6.864752932E0,3.817795310E-3,2.748812549E-3,2.443389036E-3
6.874466057E0,3.817795310E-3,3.970507067E-3,2.443389036E-3
6.884179911E0,2.596100792E-3,3.970507067E-3,2.443389036E-3
6.893892984E0,2.596100792E-3,2.748812549E-3,2.443389036E-3
6.903605171E0,1.374406274E-3,2.748812549E-3,2.443389036E-3
6.913318296E0,1.374406274E-3,3.054236295E-4,1.221694518E-3
6.923032151E0,1.374406274E-3,-2.137965523E-3,1.221694518E-3
6.932745224E0,1.527118147E-4,-2.137965523E-3,0.000000000E0
6.942457411E0,1.527118147E-4,-9.162708884E-4,2.443389036E-3
6.952170536E0,2.596100792E-3,-9.162708884E-4,1.221694518E-3
6.961884390E0,3.817795310E-3,3.054236295E-4,2.443389036E-3
6.971597463E0,2.596100792E-3,1.527118147E-3,2.443389036E-3
6.981309703E0,1.374406274E-3,-9.162708884E-4,0.000000000E0
6.991022828E0,1.527118147E-4,-3.359660041E-3,0.000000000E0
7.000736682E0,1.527118147E-4,-4.581354558E-3,-1.221694518E-3
7.010449703E0,1.374406274E-3,-5.803049076E-3,0.000000000E0
7.020161942E0,1.374406274E-3,-5.803049076E-3,-2.443389036E-3
7.029875067E0,2.596100792E-3,-4.581354558E-3,-1.221694518E-3
7.039588921E0,2.596100792E-3,-2.137965523E-3,-1.221694518E-3
7.049301994E0,2.596100792E-3,1.527118147E-3,-1.221694518E-3
7.059014182E0,2.596100792E-3,2.748812549E-3,0.000000000E0
7.068727307E0,1.374406274E-3,2.748812549E-3,0.000000000E0
7.078441161E0,1.374406274E-3,2.748812549E-3,1.221694518E-3
7.088154234E0,1.527118147E-4,3.054236295E-4,0.000000000E0
7.097866474E0,1.527118147E-4,-9.162708884E-4,0.000000000E0
7.107579546E0,1.527118147E-4,-3.359660041E-3,-1.221694518E-3
7.117293401E0,1.374406274E-3,-2.137965523E-3,-2.443389036E-3
7.127006474E0,1.374406274E-3,-9.162708884E-4,-2.443389036E-3
7.136718713E0,1.527118147E-4,3.054236295E-4,-1.221694518E-3
7.146431838E0,1.527118147E-4,-9.162708884E-4,-1.221694518E-3
7.156145640E0,-1.068982761E-3,-9.162708884E-4,1.221694518E-3
7.165858713E0,-1.068982761E-3,3.054236295E-4,1.221694518E-3
7.175570953E0,-1.068982761E-3,2.748812549E-3,1.221694518E-3
7.185284078E0,-1.068982761E-3,3.970507067E-3,0.000000000E0
7.194997932E0,-2.290677279E-3,2.748812549E-3,0.000000000E0
7.204710953E0,-1.068982761E-3,2.748812549E-3,0.000000000E0
7.214423192E0,1.527118147E-4,2.748812549E-3,0.000000000E0
7.224136317E0,2.596100792E-3,2.748812549E-3,-1.221694518E-3
7.233850171E0,2.596100792E-3,2.748812549E-3,0.000000000E0
7.243563192E0,2.596100792E-3,3.970507067E-3,0.000000000E0
7.253275432E0,2.596100792E-3,3.970507067E-3,-1.221694518E-3
7.262988557E0,1.527118147E-4,1.527118147E-3,-2.443389036E-3
7.272702411E0,-1.068982761E-3,3.054236295E-4,-3.665083554E-3
7.282415432E0,1.374406274E-3,-9.162708884E-4,-4.886778072E-3
7.292127671E0,2.596100792E-3,3.054236295E-4,-2.443389036E-3
7.301840796E0,1.374406274E-3,3.054236295E-4,-1.221694518E-3
7.311554651E0,-2.290677279E-3,-3.359660041E-3,-2.443389036E-3
7.321267724E0,-2.290677279E-3,-8.246437646E-3,-2.443389036E-3
7.330979911E0,-1.068982761E-3,-1.068982668E-2,-1.221694518E-3
7.340693036E0,3.817795310E-3,-8.246437646E-3,-1.221694518E-3
7.350406890E0,6.261184346E-3,-3.359660041E-3,0.000000000E0
7.360119963E0,6.261184346E-3,3.054236295E-4,0.000000000E0
7.369832151E0,3.817795310E-3,-9.162708884E-4,1.221694518E-3
7.379545276E0,2.596100792E-3,-9.162708884E-4,0.000000000E0
7.389259130E0,1.374406274E-3,1.527118147E-3,2.443389036E-3
7.398972151E0,1.527118147E-4,1.527118147E-3,2.443389036E-3
7.408684390E0,-1.068982761E-3,1.527118147E-3,3.665083554E-3
7.418397515E0,-1.068982761E-3,2.748812549E-3,3.665083554E-3
7.428111369E0,-1.068982761E-3,2.748812549E-3,3.665083554E-3
7.437824390E0,-2.290677279E-3,3.054236295E-4,2.443389036E-3
7.447536630E0,-2.290677279E-3,-2.137965523E-3,2.443389036E-3
7.457249755E0,-1.068982761E-3,-3.359660041E-3,2.443389036E-3
7.466963557E0,1.374406274E-3,-2.137965523E-3,2.443389036E-3
7.476676630E0,2.596100792E-3,-9.162708884E-4,1.221694518E-3
7.486388869E0,3.817795310E-3,3.054236295E-4,1.221694518E-3
7.496101942E0,5.039489828E-3,3.054236295E-4,0.000000000E0
7.505815796E0,5.039489828E-3,1.527118147E-3,0.000000000E0
7.515528869E0,3.817795310E-3,2.748812549E-3,1.221694518E-3
7.525241109E0,1.374406274E-3,3.970507067E-3,1.221694518E-3
7.534954182E0,1.374406274E-3,3.970507067E-3,0.000000000E0
7.544668036E0,3.817795310E-3,2.748812549E-3,-2.443389036E-3
7.554381109E0,7.482878864E-3,-9.162708884E-4,-3.665083554E-3
7.564093296E0,8.704573847E-3,-3.359660041E-3,-1.221694518E-3
7.573806421E0,8.704573847E-3,-9.162708884E-4,0.000000000E0
7.583520276E0,6.261184346E-3,3.970507067E-3,0.000000000E0
7.593233296E0,1.374406274E-3,6.413896102E-3,0.000000000E0
7.602945536E0,-3.512371797E-3,5.192201585E-3,0.000000000E0
7.612658661E0,-5.955760833E-3,3.970507067E-3,0.000000000E0
7.622372463E0,-7.177455351E-3,2.748812549E-3,0.000000000E0
7.632085536E0,-5.955760833E-3,1.527118147E-3,0.000000000E0
7.641797776E0,-3.512371797E-3,-9.162708884E-4,-3.665083554E-3
7.651510849E0,1.527118147E-4,-9.162708884E-4,-3.665083554E-3
7.661224703E0,2.596100792E-3,2.748812549E-3,-3.665083554E-3
7.670937776E0,1.527118147E-4,5.192201585E-3,-2.443389036E-3
7.680649963E0,-2.290677279E-3,5.192201585E-3,0.000000000E0
7.690363088E0,-4.734066315E-3,3.054236295E-4,3.665083554E-3
7.700076942E0,-4.734066315E-3,-3.359660041E-3,3.665083554E-3
7.709789963E0,-4.734066315E-3,-4.581354558E-3,4.886778072E-3
7.719502203E0,-3.512371797E-3,-5.803049076E-3,3.665083554E-3
7.729215328E0,1.527118147E-4,-5.803049076E-3,2.443389036E-3
7.738929130E0,5.039489828E-3,-2.137965523E-3,1.221694518E-3
7.748642203E0,6.261184346E-3,2.748812549E-3,0.000000000E0
7.758354442E0,6.261184346E-3,2.748812549E-3,0.000000000E0
7.768067515E0,3.817795310E-3,1.527118147E-3,1.221694518E-3
7.777781369E0,2.596100792E-3,3.054236295E-4,1.221694518E-3
7.787494442E0,1.374406274E-3,-9.162708884E-4,0.000000000E0
7.797206630E0,1.374406274E-3,-2.137965523E-3,0.000000000E0
7.806919755E0,1.527118147E-4,-2.137965523E-3,-3.665083554E-3
7.816633557E0,1.527118147E-4,-9.162708884E-4,-3.665083554E-3
7.826346630E0,1.527118147E-4,-9.162708884E-4,-6.108472589E-3
7.836058817E0,-1.068982761E-3,-9.162708884E-4,-6.108472589E-3
7.845771942E0,-1.068982761E-3,2.748812549E-3,-4.886778072E-3
7.855485796E0,-3.512371797E-3,6.413896102E-3,-3.665083554E-3
7.865198817E0,-4.734066315E-3,7.635590620E-3,-2.443389036E-3
7.874911057E0,-3.512371797E-3,1.007897966E-2,-1.221694518E-3
7.884624182E0,-2.290677279E-3,1.374406368E-2,0.000000000E0
7.894337984E0,-1.068982761E-3,1.374406368E-2,-1.221694518E-3
7.904051057E0,-1.068982761E-3,1.007897966E-2,-3.665083554E-3
7.913763244E0,1.527118147E-4,6.413896102E-3,-4.886778072E-3
7.923476369E0,1.374406274E-3,2.748812549E-3,-8.551862091E-3
7.933190224E0,2.596100792E-3,1.527118147E-3,-8.551862091E-3
7.942903244E0,2.596100792E-3,5.192201585E-3,-7.330167107E-3
7.952615484E0,-1.068982761E-3,6.413896102E-3,-7.330167107E-3
7.962328557E0,-4.734066315E-3,5.192201585E-3,-3.665083554E-3
7.972042411E0,-4.734066315E-3,3.970507067E-3,0.000000000E0
7.981755484E0,-3.512371797E-3,3.970507067E-3,3.665083554E-3
7.991467671E0,-1.068982761E-3,3.970507067E-3,4.886778072E-3
8.001180796E0,1.374406274E-3,2.748812549E-3,2.443389036E-3
8.010894651E0,3.817795310E-3,2.748812549E-3,1.221694518E-3
8.020607671E0,2.596100792E-3,3.054236295E-4,1.221694518E-3
8.030319911E0,1.374406274E-3,-9.162708884E-4,0.000000000E0
8.040032984E0,2.596100792E-3,-2.137965523E-3,-1.221694518E-3
8.049746838E0,1.374406274E-3,-2.137965523E-3,-1.221694518E-3
8.059459911E0,-1.068982761E-3,-9.162708884E-4,1.221694518E-3
8.069172099E0,-2.290677279E-3,-2.137965523E-3,1.221694518E-3
8.078885171E0,-2.290677279E-3,-9.162708884E-4,1.221694518E-3
8.088599026E0,-2.290677279E-3,-9.162708884E-4,1.221694518E-3
8.098312099E0,-2.290677279E-3,-2.137965523E-3,1.221694518E-3
8.108024286E0,1.527118147E-4,-2.137965523E-3,-1.221694518E-3
8.117737411E0,1.374406274E-3,-2.137965523E-3,-1.221694518E-3
8.127451213E0,2.596100792E-3,-2.137965523E-3,-2.443389036E-3
8.137164286E0,3.817795310E-3,-3.359660041E-3,-3.665083554E-3
8.146876474E0,2.596100792E-3,-4.581354558E-3,-4.886778072E-3
8.156589599E0,2.596100792E-3,-4.581354558E-3,-2.443389036E-3
8.166303453E0,1.374406274E-3,-9.162708884E-4,-2.443389036E-3
8.176016474E0,1.374406274E-3,1.527118147E-3,-2.443389036E-3
8.185728713E0,1.374406274E-3,3.970507067E-3,0.000000000E0
8.195441786E0,1.374406274E-3,3.970507067E-3,1.221694518E-3
8.205155640E0,1.374406274E-3,1.527118147E-3,1.221694518E-3
8.214868661E0,1.374406274E-3,-9.162708884E-4,2.443389036E-3
8.224580901E0,2.596100792E-3,-9.162708884E-4,2.443389036E-3
8.234293974E0,1.374406274E-3,3.054236295E-4,3.665083554E-3
8.244007828E0,1.374406274E-3,1.527118147E-3,3.665083554E-3
8.253720849E0,1.527118147E-4,1.527118147E-3,3.665083554E-3
8.263433088E0,-1.068982761E-3,3.054236295E-4,2.443389036E-3
8.273146161E0,-2.290677279E-3,-9.162708884E-4,3.665083554E-3
8.282860015E0,-3.512371797E-3,-2.137965523E-3,2.443389036E-3
8.292573088E0,-3.512371797E-3,-2.137965523E-3,3.665083554E-3
8.302285276E0,-3.512371797E-3,-5.803049076E-3,3.665083554E-3
8.311998401E0,-3.512371797E-3,-9.468132630E-3,3.665083554E-3
8.321712203E0,-1.068982761E-3,-1.068982668E-2,2.443389036E-3
8.331425276E0,1.527118147E-4,-9.468132630E-3,3.665083554E-3
8.341137463E0,1.527118147E-4,-4.581354558E-3,4.886778072E-3
8.350850588E0,1.527118147E-4,-2.137965523E-3,4.886778072E-3
8.360564390E0,1.374406274E-3,-2.137965523E-3,4.886778072E-3
8.370277463E0,1.527118147E-4,-2.137965523E-3,4.886778072E-3
8.379989651E0,1.527118147E-4,-2.137965523E-3,3.665083554E-3
8.389702776E0,1.527118147E-4,-9.162708884E-4,2.443389036E-3
8.399416578E0,1.527118147E-4,3.970507067E-3,1.221694518E-3
8.409129651E0,-1.068982761E-3,6.413896102E-3,0.000000000E0
8.418841838E0,-3.512371797E-3,2.748812549E-3,-1.221694518E-3
8.428554963E0,-3.512371797E-3,3.054236295E-4,0.000000000E0
8.438268765E0,-2.290677279E-3,3.054236295E-4,-2.443389036E-3
8.447981838E0,-2.290677279E-3,1.527118147E-3,-2.443389036E-3
8.457694026E0,1.527118147E-4,1.527118147E-3,-3.665083554E-3
8.467407151E0,1.374406274E-3,3.054236295E-4,-6.108472589E-3
8.477120953E0,2.596100792E-3,-9.162708884E-4,-7.330167107E-3
8.486834026E0,1.527118147E-4,-9.162708884E-4,-7.330167107E-3
8.496546213E0,1.527118147E-4,-9.162708884E-4,-4.886778072E-3
8.506259338E0,1.527118147E-4,-9.162708884E-4,-2.443389036E-3
8.515973140E0,1.527118147E-4,-3.359660041E-3,-1.221694518E-3
8.525686213E0,1.374406274E-3,-9.162708884E-4,-1.221694518E-3
8.535398401E0,2.596100792E-3,1.527118147E-3,-1.221694518E-3
8.545111474E0,3.817795310E-3,3.054236295E-4,-1.221694518E-3
8.554825328E0,2.596100792E-3,-9.162708884E-4,-1.221694518E-3
8.564538349E0,2.596100792E-3,-2.137965523E-3,-2.443389036E-3
8.574250588E0,3.817795310E-3,-2.137965523E-3,-3.665083554E-3
8.583963661E0,3.817795310E-3,-2.137965523E-3,-2.443389036E-3
8.593677515E0,2.596100792E-3,-2.137965523E-3,-1.221694518E-3
8.603390536E0,1.374406274E-3,-4.581354558E-3,0.000000000E0
8.613102776E0,1.527118147E-4,-5.803049076E-3,0.000000000E0
8.622815849E0,1.374406274E-3,-7.024743594E-3,1.221694518E-3
8.632529703E0,2.596100792E-3,-4.581354558E-3,1.221694518E-3
8.642242724E0,3.817795310E-3,-9.162708884E-4,2.443389036E-3
8.651954911E0,3.817795310E-3,1.527118147E-3,1.221694518E-3
8.661668036E0,3.817795310E-3,2.748812549E-3,1.221694518E-3
8.671381890E0,3.817795310E-3,3.970507067E-3,1.221694518E-3
8.681094911E0,1.527118147E-4,5.192201585E-3,2.443389036E-3
8.690807099E0,-2.290677279E-3,5.192201585E-3,3.665083554E-3
8.700520224E0,-3.512371797E-3,3.970507067E-3,2.443389036E-3
8.710234078E0,-4.734066315E-3,3.970507067E-3,1.221694518E-3
8.719947099E0,-5.955760833E-3,2.748812549E-3,2.443389036E-3
8.729659286E0,-5.955760833E-3,-9.162708884E-4,2.443389036E-3
8.739372411E0,-4.734066315E-3,-4.581354558E-3,-1.221694518E-3
8.749086213E0,-1.068982761E-3,-4.581354558E-3,-2.443389036E-3
8.758799286E0,-1.068982761E-3,-4.581354558E-3,-1.221694518E-3
8.768511474E0,1.374406274E-3,-3.359660041E-3,-3.665083554E-3
8.778224546E0,2.596100792E-3,-9.162708884E-4,-2.443389036E-3
8.787938401E0,3.817795310E-3,1.527118147E-3,-2.443389036E-3
8.797651474E0,5.039489828E-3,2.748812549E-3,-2.443389036E-3
8.807363661E0,2.596100792E-3,2.748812549E-3,-2.443389036E-3
8.817076734E0,1.374406274E-3,3.054236295E-4,-1.221694518E-3
8.826790588E0,1.527118147E-4,3.054236295E-4,0.000000000E0
8.836503609E0,1.527118147E-4,3.054236295E-4,0.000000000E0
8.846215849E0,1.374406274E-3,1.527118147E-3,1.221694518E-3
8.855928921E0,3.817795310E-3,3.054236295E-4,-2.443389036E-3
8.865642724E0,5.039489828E-3,3.054236295E-4,-1.221694518E-3
8.875355796E0,5.039489828E-3,3.970507067E-3,2.443389036E-3
8.885067984E0,3.817795310E-3,6.413896102E-3,3.665083554E-3
8.894781109E0,2.596100792E-3,2.748812549E-3,3.665083554E-3
8.904494911E0,1.527118147E-4,1.527118147E-3,4.886778072E-3
8.914207984E0,-1.068982761E-3,3.054236295E-4,3.665083554E-3
8.923920171E0,-2.290677279E-3,-2.137965523E-3,2.443389036E-3
8.933633244E0,-1.068982761E-3,-3.359660041E-3,0.000000000E0
8.943347099E0,1.374406274E-3,-4.581354558E-3,0.000000000E0
8.953060119E0,2.596100792E-3,-5.803049076E-3,-1.221694518E-3
8.962772359E0,3.817795310E-3,-7.024743594E-3,-1.221694518E-3
8.972485432E0,5.039489828E-3,-4.581354558E-3,-2.443389036E-3
8.982199286E0,5.039489828E-3,-9.162708884E-4,-1.221694518E-3
8.991912307E0,2.596100792E-3,2.748812549E-3,-1.221694518E-3
9.001624494E0,1.374406274E-3,5.192201585E-3,0.000000000E0
9.011337619E0,1.527118147E-4,7.635590620E-3,1.221694518E-3
9.021051421E0,1.527118147E-4,6.413896102E-3,0.000000000E0
9.030764494E0,1.374406274E-3,3.970507067E-3,-2.443389036E-3
9.040476682E0,1.527118147E-4,1.527118147E-3,-2.443389036E-3
9.050189755E0,-1.068982761E-3,-2.137965523E-3,-1.221694518E-3
9.059903609E0,-2.290677279E-3,-4.581354558E-3,-1.221694518E-3
9.069616630E0,-3.512371797E-3,-4.581354558E-3,-1.221694518E-3
9.079328869E0,-3.512371797E-3,-5.803049076E-3,-3.665083554E-3
9.089041942E0,-3.512371797E-3,-7.024743594E-3,-3.665083554E-3
9.098755744E0,-2.290677279E-3,-1.068982668E-2,-3.665083554E-3
9.108468817E0,-1.068982761E-3,-8.246437646E-3,-3.665083554E-3
9.118181005E0,1.527118147E-4,-4.581354558E-3,-3.665083554E-3
9.127894130E0,1.527118147E-4,-2.137965523E-3,-2.443389036E-3
9.137607932E0,1.527118147E-4,3.054236295E-4,-1.221694518E-3
9.147320953E0,-1.068982761E-3,3.054236295E-4,0.000000000E0
9.157033192E0,-2.290677279E-3,3.054236295E-4,2.443389036E-3
9.166746265E0,-2.290677279E-3,3.054236295E-4,2.443389036E-3
9.176460119E0,-1.068982761E-3,2.748812549E-3,3.665083554E-3
9.186173140E0,-1.068982761E-3,5.192201585E-3,3.665083554E-3
9.195885328E0,-2.290677279E-3,5.192201585E-3,1.221694518E-3
9.205598453E0,-1.068982761E-3,2.748812549E-3,1.221694518E-3
9.215312255E0,1.527118147E-4,2.748812549E-3,1.221694518E-3
9.225025328E0,1.374406274E-3,2.748812549E-3,2.443389036E-3
9.234737515E0,1.374406274E-3,3.970507067E-3,3.665083554E-3
9.244450588E0,1.374406274E-3,5.192201585E-3,3.665083554E-3
9.254164442E0,5.039489828E-3,6.413896102E-3,-1.221694518E-3
9.263877463E0,6.261184346E-3,1.252236869E-2,4.886778072E-3
9.273589651E0,5.039489828E-3,1.618745178E-2,6.108472589E-3
9.283302724E0,5.039489828E-3,1.863084175E-2,4.886778072E-3
9.293016578E0,6.261184346E-3,1.740914769E-2,1.221694518E-3
9.302729599E0,5.039489828E-3,1.496575773E-2,3.665083554E-3
9.312441838E0,5.039489828E-3,8.857285604E-3,3.665083554E-3
9.322154911E0,3.817795310E-3,3.970507067E-3,2.443389036E-3
9.331868765E0,1.374406274E-3,2.748812549E-3,1.221694518E-3
9.341581786E0,1.527118147E-4,-9.162708884E-4,-2.443389036E-3
9.351293974E0,-2.290677279E-3,-4.581354558E-3,2.443389036E-3
9.361007046E0,-3.512371797E-3,-4.581354558E-3,7.330167107E-3
9.370720901E0,-1.068982761E-3,-5.803049076E-3,7.330167107E-3
9.380433921E0,1.374406274E-3,-7.024743594E-3,3.665083554E-3
9.390146161E0,5.039489828E-3,-8.246437646E-3,0.000000000E0
9.399859234E0,6.261184346E-3,-8.246437646E-3,-1.221694518E-3
9.409573036E0,5.039489828E-3,-8.246437646E-3,-3.665083554E-3
9.419286109E0,3.817795310E-3,-8.246437646E-3,-3.665083554E-3
9.428998296E0,2.596100792E-3,-5.803049076E-3,-1.221694518E-3
9.438711369E0,1.374406274E-3,-2.137965523E-3,1.221694518E-3
9.448425224E0,1.374406274E-3,-9.162708884E-4,2.443389036E-3
9.458138244E0,1.374406274E-3,-9.162708884E-4,2.443389036E-3
9.467850432E0,3.817795310E-3,1.527118147E-3,2.443389036E-3
9.477563557E0,5.039489828E-3,2.748812549E-3,0.000000000E0
9.487277359E0,6.261184346E-3,5.192201585E-3,-1.221694518E-3
9.496990380E0,5.039489828E-3,6.413896102E-3,-2.443389036E-3
9.506702619E0,5.039489828E-3,7.635590620E-3,-2.443389036E-3
9.516415692E0,3.817795310E-3,7.635590620E-3,-1.221694518E-3
9.526129494E0,3.817795310E-3,8.857285604E-3,-1.221694518E-3
9.535842567E0,2.596100792E-3,7.635590620E-3,1.221694518E-3
9.545554755E0,2.596100792E-3,3.970507067E-3,0.000000000E0
9.555267828E0,2.596100792E-3,-3.359660041E-3,0.000000000E0
9.564981682E0,1.527118147E-4,-9.468132630E-3,1.221694518E-3
9.574694703E0,1.527118147E-4,-1.313321572E-2,-1.221694518E-3
9.584406890E0,1.527118147E-4,-1.313321572E-2,-2.443389036E-3
9.594120015E0,-1.068982761E-3,-1.191152167E-2,-2.443389036E-3
9.603833817E0,-1.068982761E-3,-1.191152167E-2,-2.443389036E-3
9.613546838E0,1.527118147E-4,-1.068982668E-2,-2.443389036E-3
9.623259078E0,1.527118147E-4,-7.024743594E-3,-1.221694518E-3
9.632972151E0,-1.068982761E-3,-9.162708884E-4,0.000000000E0
9.642685953E0,-1.068982761E-3,2.748812549E-3,1.221694518E-3
9.652399026E0,-3.512371797E-3,2.748812549E-3,2.443389036E-3
9.662111213E0,-3.512371797E-3,2.748812549E-3,3.665083554E-3
9.671824286E0,-2.290677279E-3,2.748812549E-3,3.665083554E-3
9.681538140E0,-1.068982761E-3,1.527118147E-3,2.443389036E-3
9.691251161E0,1.527118147E-4,3.054236295E-4,2.443389036E-3
9.700963349E0,1.374406274E-3,-9.162708884E-4,1.221694518E-3
9.710676421E0,1.527118147E-4,-3.359660041E-3,2.443389036E-3
9.720390276E0,-1.068982761E-3,-3.359660041E-3,2.443389036E-3
9.730103296E0,-2.290677279E-3,-9.162708884E-4,2.443389036E-3
9.739815484E0,-1.068982761E-3,3.054236295E-4,2.443389036E-3
9.749528609E0,1.527118147E-4,3.054236295E-4,2.443389036E-3
9.759242411E0,3.817795310E-3,1.527118147E-3,2.443389036E-3
9.768955432E0,6.261184346E-3,1.527118147E-3,2.443389036E-3
9.778667619E0,5.039489828E-3,1.527118147E-3,3.665083554E-3
9.788380744E0,5.039489828E-3,-9.162708884E-4,3.665083554E-3
9.798094546E0,3.817795310E-3,-2.137965523E-3,3.665083554E-3
9.807807619E0,2.596100792E-3,-9.162708884E-4,4.886778072E-3
9.817519807E0,1.527118147E-4,-2.137965523E-3,6.108472589E-3
9.827232880E0,-2.290677279E-3,-3.359660041E-3,6.108472589E-3
9.836946682E0,-2.290677279E-3,-3.359660041E-3,6.108472589E-3
9.846659755E0,-1.068982761E-3,-3.359660041E-3,4.886778072E-3
9.856371942E0,2.596100792E-3,-4.581354558E-3,3.665083554E-3
9.866085015E0,5.039489828E-3,-4.581354558E-3,1.221694518E-3
9.875798869E0,7.482878864E-3,-3.359660041E-3,-1.221694518E-3
9.885511890E0,8.704573847E-3,-2.137965523E-3,-1.221694518E-3
9.895224078E0,9.926267900E-3,3.054236295E-4,-2.443389036E-3
9.904937151E0,8.704573847E-3,2.748812549E-3,-1.221694518E-3
9.914651005E0,6.261184346E-3,5.192201585E-3,0.000000000E0
9.924364026E0,2.596100792E-3,5.192201585E-3,2.443389036E-3
9.934076213E0,-1.068982761E-3,2.748812549E-3,3.665083554E-3
9.943789286E0,-3.512371797E-3,1.527118147E-3,4.886778072E-3
9.953503140E0,-4.734066315E-3,1.527118147E-3,3.665083554E-3
9.963216161E0,-3.512371797E-3,2.748812549E-3,2.443389036E-3
9.972928349E0,-2.290677279E-3,2.748812549E-3,1.221694518E-3
9.982641474E0,-1.068982761E-3,2.748812549E-3,1.221694518E-3
9.992355276E0,-1.068982761E-3,3.054236295E-4,0.000000000E0
1.000206830E1,-1.068982761E-3,3.054236295E-4,1.221694518E-3
1.001178048E1,1.527118147E-4,3.054236295E-4,1.221694518E-3
1.002149361E1,2.596100792E-3,-9.162708884E-4,-2.443389036E-3
1.003120741E1,2.596100792E-3,-2.137965523E-3,-2.443389036E-3
1.004092043E1,3.817795310E-3,-3.359660041E-3,-2.443389036E-3
1.005063262E1,5.039489828E-3,-3.359660041E-3,-3.665083554E-3
1.006034574E1,6.261184346E-3,-2.137965523E-3,-1.221694518E-3
1.007005955E1,6.261184346E-3,-2.137965523E-3,-2.443389036E-3
1.007977257E1,5.039489828E-3,3.054236295E-4,0.000000000E0
1.008948476E1,3.817795310E-3,2.748812549E-3,1.221694518E-3
1.009919788E1,3.817795310E-3,3.970507067E-3,2.443389036E-3
1.010891168E1,3.817795310E-3,3.970507067E-3,2.443389036E-3
1.011862470E1,2.596100792E-3,5.192201585E-3,3.665083554E-3
1.012833689E1,1.374406274E-3,3.970507067E-3,3.665083554E-3
1.013805002E1,3.817795310E-3,3.054236295E-4,3.665083554E-3
1.014776382E1,5.039489828E-3,3.054236295E-4,2.443389036E-3
1.015747684E1,6.261184346E-3,1.527118147E-3,1.221694518E-3
1.016718903E1,5.039489828E-3,3.970507067E-3,3.665083554E-3
1.017690215E1,3.817795310E-3,1.527118147E-3,3.665083554E-3
1.018661595E1,1.527118147E-4,-2.137965523E-3,3.665083554E-3
1.019632897E1,-3.512371797E-3,-8.246437646E-3,4.886778072E-3
1.020604116E1,-5.955760833E-3,-1.557660475E-2,3.665083554E-3
1.021575429E1,-5.955760833E-3,-1.924168877E-2,2.443389036E-3
1.022546809E1,-4.734066315E-3,-2.168507688E-2,0.000000000E0
1.023518111E1,-2.290677279E-3,-2.168507688E-2,-1.221694518E-3
1.024489330E1,-1.068982761E-3,-1.679829881E-2,-1.221694518E-3
1.025460642E1,2.596100792E-3,-1.313321572E-2,-3.665083554E-3
1.026432022E1,5.039489828E-3,-9.468132630E-3,-1.221694518E-3
1.027403324E1,6.261184346E-3,-4.581354558E-3,-1.221694518E-3
1.028374543E1,5.039489828E-3,1.527118147E-3,2.443389036E-3
1.029345850E1,2.596100792E-3,5.192201585E-3,3.665083554E-3
1.030317236E1,1.374406274E-3,6.413896102E-3,3.665083554E-3
1.031288538E1,1.527118147E-4,6.413896102E-3,3.665083554E-3
1.032259757E1,1.527118147E-4,8.857285604E-3,2.443389036E-3
1.033231064E1,1.374406274E-3,1.252236869E-2,2.443389036E-3
1.034202449E1,1.374406274E-3,1.374406368E-2,1.221694518E-3
1.035173752E1,1.527118147E-4,1.374406368E-2,0.000000000E0
1.036144970E1,1.527118147E-4,8.857285604E-3,-1.221694518E-3
1.037116278E1,1.527118147E-4,5.192201585E-3,-2.443389036E-3
1.038087663E1,1.527118147E-4,3.970507067E-3,-2.443389036E-3
1.039058965E1,1.374406274E-3,3.970507067E-3,-3.665083554E-3
1.040030184E1,2.596100792E-3,2.748812549E-3,-3.665083554E-3
1.041001491E1,3.817795310E-3,-9.162708884E-4,-3.665083554E-3
1.041972876E1,5.039489828E-3,-4.581354558E-3,-2.443389036E-3
1.042944179E1,5.039489828E-3,-4.581354558E-3,-1.221694518E-3
1.043915397E1,5.039489828E-3,-3.359660041E-3,-1.221694518E-3
1.044886705E1,5.039489828E-3,-2.137965523E-3,-1.221694518E-3
1.045858090E1,3.817795310E-3,-2.137965523E-3,0.000000000E0
1.046829392E1,3.817795310E-3,-9.162708884E-4,1.221694518E-3
1.047800611E1,2.596100792E-3,1.527118147E-3,2.443389036E-3
1.048771918E1,2.596100792E-3,2.748812549E-3,3.665083554E-3
1.049743298E1,2.596100792E-3,1.527118147E-3,2.443389036E-3
1.050714601E1,3.817795310E-3,1.527118147E-3,1.221694518E-3
1.051685824E1,3.817795310E-3,-9.162708884E-4,1.221694518E-3
1.052657132E1,3.817795310E-3,-9.162708884E-4,2.443389036E-3
1.053628512E1,1.527118147E-4,-9.162708884E-4,2.443389036E-3
1.054599814E1,-1.068982761E-3,1.527118147E-3,3.665083554E-3
1.055571033E1,-2.290677279E-3,1.527118147E-3,2.443389036E-3
1.056542345E1,-3.512371797E-3,1.527118147E-3,3.665083554E-3
1.057513726E1,-3.512371797E-3,2.748812549E-3,3.665083554E-3
1.058485028E1,-2.290677279E-3,3.970507067E-3,3.665083554E-3
1.059456246E1,-3.512371797E-3,5.192201585E-3,3.665083554E-3
1.060427554E1,-4.734066315E-3,7.635590620E-3,4.886778072E-3
1.061398939E1,-5.955760833E-3,6.413896102E-3,4.886778072E-3
1.062370241E1,-5.955760833E-3,3.970507067E-3,2.443389036E-3
1.063341460E1,-4.734066315E-3,1.527118147E-3,1.221694518E-3
1.064312767E1,-2.290677279E-3,3.054236295E-4,2.443389036E-3
1.065284147E1,1.374406274E-3,-9.162708884E-4,1.221694518E-3
1.066255455E1,2.596100792E-3,-2.137965523E-3,1.221694518E-3
1.067226673E1,3.817795310E-3,-4.581354558E-3,0.000000000E0
1.068197981E1,5.039489828E-3,-5.803049076E-3,-1.221694518E-3
1.069169361E1,5.039489828E-3,-7.024743594E-3,0.000000000E0
1.070140663E1,6.261184346E-3,-4.581354558E-3,1.221694518E-3
1.071111882E1,6.261184346E-3,-2.137965523E-3,2.443389036E-3
1.072083194E1,6.261184346E-3,-9.162708884E-4,3.665083554E-3
1.073054574E1,6.261184346E-3,3.054236295E-4,4.886778072E-3
1.074025876E1,5.039489828E-3,1.527118147E-3,4.886778072E-3
1.074997095E1,3.817795310E-3,-9.162708884E-4,6.108472589E-3
1.075968403E1,2.596100792E-3,-2.137965523E-3,6.108472589E-3
1.076939788E1,1.374406274E-3,-2.137965523E-3,6.108472589E-3
1.077911090E1,3.817795310E-3,-2.137965523E-3,4.886778072E-3
1.078882309E1,5.039489828E-3,3.054236295E-4,6.108472589E-3
1.079853616E1,3.817795310E-3,2.748812549E-3,7.330167107E-3
1.080824996E1,3.817795310E-3,1.527118147E-3,6.108472589E-3
1.081796304E1,3.817795310E-3,-9.162708884E-4,6.108472589E-3
1.082767522E1,2.596100792E-3,-3.359660041E-3,6.108472589E-3
1.083738830E1,2.596100792E-3,-3.359660041E-3,4.886778072E-3
1.084710210E1,1.374406274E-3,-3.359660041E-3,3.665083554E-3
1.085681512E1,1.374406274E-3,-2.137965523E-3,2.443389036E-3
1.086652731E1,1.527118147E-4,1.527118147E-3,2.443389036E-3
1.087624038E1,1.527118147E-4,3.054236295E-4,2.443389036E-3
1.088595423E1,2.596100792E-3,3.054236295E-4,2.443389036E-3
1.089566726E1,2.596100792E-3,-9.162708884E-4,1.221694518E-3
1.090537944E1,3.817795310E-3,-9.162708884E-4,1.221694518E-3
1.091509252E1,3.817795310E-3,-9.162708884E-4,2.443389036E-3
1.092480632E1,3.817795310E-3,3.054236295E-4,2.443389036E-3
1.093451939E1,2.596100792E-3,2.748812549E-3,1.221694518E-3
1.094423158E1,-1.068982761E-3,3.970507067E-3,1.221694518E-3
1.095394465E1,-3.512371797E-3,3.970507067E-3,1.221694518E-3
1.096365845E1,-5.955760833E-3,1.527118147E-3,1.221694518E-3
1.097337147E1,-5.955760833E-3,3.054236295E-4,1.221694518E-3
1.098308366E1,-2.290677279E-3,3.054236295E-4,0.000000000E0
1.099279673E1,1.527118147E-4,-9.162708884E-4,1.221694518E-3
1.100251059E1,2.596100792E-3,-2.137965523E-3,-1.221694518E-3
1.101222361E1,5.039489828E-3,-9.162708884E-4,-1.221694518E-3
1.102193580E1,6.261184346E-3,3.054236295E-4,1.221694518E-3
1.103164887E1,5.039489828E-3,-9.162708884E-4,2.443389036E-3
1.104136267E1,3.817795310E-3,-2.137965523E-3,1.221694518E-3
1.105107569E1,5.039489828E-3,-9.162708884E-4,1.221694518E-3
1.106078793E1,7.482878864E-3,2.748812549E-3,0.000000000E0
1.107050100E1,7.482878864E-3,6.413896102E-3,3.665083554E-3
1.108021481E1,5.039489828E-3,8.857285604E-3,3.665083554E-3
1.108992783E1,1.374406274E-3,6.413896102E-3,6.108472589E-3
1.109964002E1,-2.290677279E-3,5.192201585E-3,7.330167107E-3
1.110935309E1,-4.734066315E-3,3.970507067E-3,7.330167107E-3
1.111906689E1,-4.734066315E-3,3.970507067E-3,7.330167107E-3
1.112877996E1,-3.512371797E-3,2.748812549E-3,6.108472589E-3
1.113849210E1,-1.068982761E-3,3.054236295E-4,3.665083554E-3
1.114820522E1,1.374406274E-3,-9.162708884E-4,1.221694518E-3
1.115791903E1,2.596100792E-3,3.054236295E-4,1.221694518E-3
1.116763205E1,1.374406274E-3,3.054236295E-4,2.443389036E-3
1.117734423E1,-1.068982761E-3,-9.162708884E-4,3.665083554E-3
1.118705731E1,-1.068982761E-3,-2.137965523E-3,3.665083554E-3
1.119677116E1,-1.068982761E-3,3.054236295E-4,3.665083554E-3
1.120648418E1,-1.068982761E-3,1.527118147E-3,4.886778072E-3
1.121619637E1,-1.068982761E-3,2.748812549E-3,3.665083554E-3
1.122590944E1,1.527118147E-4,1.527118147E-3,3.665083554E-3
1.123562324E1,1.527118147E-4,3.054236295E-4,2.443389036E-3
1.124533626E1,-1.068982761E-3,-9.162708884E-4,3.665083554E-3
1.125504845E1,1.527118147E-4,-3.359660041E-3,2.443389036E-3
1.126476153E1,2.596100792E-3,-2.137965523E-3,1.221694518E-3
1.127447538E1,5.039489828E-3,-2.137965523E-3,1.221694518E-3
1.128418840E1,5.039489828E-3,-2.137965523E-3,2.443389036E-3
1.129390059E1,6.261184346E-3,-4.581354558E-3,1.221694518E-3
1.130361366E1,6.261184346E-3,-7.024743594E-3,2.443389036E-3
1.131332746E1,5.039489828E-3,-9.468132630E-3,2.443389036E-3
1.132304048E1,3.817795310E-3,-9.468132630E-3,0.000000000E0
1.133275267E1,2.596100792E-3,-7.024743594E-3,2.443389036E-3
1.134246574E1,2.596100792E-3,-5.803049076E-3,2.443389036E-3
1.135217955E1,5.039489828E-3,-7.024743594E-3,1.221694518E-3
1.136189262E1,6.261184346E-3,-5.803049076E-3,2.443389036E-3
1.137160481E1,7.482878864E-3,-2.137965523E-3,2.443389036E-3
1.138131788E1,7.482878864E-3,3.054236295E-4,3.665083554E-3
1.139103168E1,6.261184346E-3,2.748812549E-3,3.665083554E-3
1.140074470E1,5.039489828E-3,1.527118147E-3,1.221694518E-3
1.141045689E1,1.374406274E-3,1.527118147E-3,2.443389036E-3
1.142016996E1,-1.068982761E-3,3.970507067E-3,2.443389036E-3
1.142988377E1,-1.068982761E-3,6.413896102E-3,1.221694518E-3
1.143959679E1,-1.068982761E-3,5.192201585E-3,1.221694518E-3
1.144930897E1,-2.290677279E-3,1.527118147E-3,0.000000000E0
1.145902210E1,-2.290677279E-3,-3.359660041E-3,0.000000000E0
1.146873590E1,-2.290677279E-3,-4.581354558E-3,0.000000000E0
1.147844892E1,1.527118147E-4,-5.803049076E-3,0.000000000E0
1.148816111E1,1.527118147E-4,-5.803049076E-3,2.443389036E-3
1.149787418E1,-1.068982761E-3,1.527118147E-3,2.443389036E-3
1.150758798E1,1.527118147E-4,-9.162708884E-4,3.665083554E-3
1.151730100E1,1.374406274E-3,-2.137965523E-3,3.665083554E-3
1.152701319E1,1.527118147E-4,3.054236295E-4,4.886778072E-3
1.153672626E1,1.374406274E-3,1.527118147E-3,3.665083554E-3
1.154644012E1,1.527118147E-4,1.527118147E-3,4.886778072E-3
1.155615314E1,-1.068982761E-3,3.054236295E-4,6.108472589E-3
1.156586533E1,-1.068982761E-3,1.527118147E-3,6.108472589E-3
1.157557840E1,-3.512371797E-3,2.748812549E-3,8.551862091E-3
1.158529220E1,-3.512371797E-3,1.527118147E-3,6.108472589E-3
1.159500522E1,-2.290677279E-3,-2.137965523E-3,6.108472589E-3
1.160471741E1,1.374406274E-3,-2.137965523E-3,4.886778072E-3
1.161443048E1,3.817795310E-3,-9.162708884E-4,1.221694518E-3
1.162414429E1,5.039489828E-3,-9.162708884E-4,1.221694518E-3
1.163385731E1,5.039489828E-3,1.527118147E-3,0.000000000E0
1.164356949E1,3.817795310E-3,5.192201585E-3,0.000000000E0
1.165328257E1,2.596100792E-3,5.192201585E-3,0.000000000E0
1.166299642E1,2.596100792E-3,2.748812549E-3,-1.221694518E-3
1.167270944E1,1.527118147E-4,1.527118147E-3,-2.443389036E-3
1.168242163E1,1.527118147E-4,3.970507067E-3,-1.221694518E-3
1.169213470E1,1.527118147E-4,6.413896102E-3,0.000000000E0
1.170184851E1,1.527118147E-4,5.192201585E-3,0.000000000E0
1.171156153E1,-1.068982761E-3,2.748812549E-3,0.000000000E0
1.172127371E1,1.527118147E-4,2.748812549E-3,1.221694518E-3
1.173098679E1,1.374406274E-3,3.970507067E-3,1.221694518E-3
1.174070059E1,3.817795310E-3,5.192201585E-3,1.221694518E-3
1.175041361E1,3.817795310E-3,6.413896102E-3,0.000000000E0
1.176012580E1,3.817795310E-3,3.970507067E-3,1.221694518E-3
1.176983887E1,2.596100792E-3,1.527118147E-3,1.221694518E-3
1.177955272E1,1.374406274E-3,1.527118147E-3,1.221694518E-3
1.178926574E1,1.527118147E-4,3.054236295E-4,1.221694518E-3
1.179897793E1,1.527118147E-4,-3.359660041E-3,1.221694518E-3
1.180869100E1,1.527118147E-4,-7.024743594E-3,1.221694518E-3
1.181840481E1,-1.068982761E-3,-1.068982668E-2,0.000000000E0
1.182811783E1,1.374406274E-3,-9.468132630E-3,-2.443389036E-3
1.183783002E1,3.817795310E-3,-5.803049076E-3,-4.886778072E-3
1.184754309E1,3.817795310E-3,-2.137965523E-3,-4.886778072E-3
1.185725689E1,2.596100792E-3,-9.162708884E-4,-4.886778072E-3
1.186696991E1,1.374406274E-3,-2.137965523E-3,-3.665083554E-3
1.187668210E1,1.527118147E-4,3.054236295E-4,-1.221694518E-3
1.188639517E1,-1.068982761E-3,3.054236295E-4,0.000000000E0
1.189610897E1,-2.290677279E-3,2.748812549E-3,2.443389036E-3
1.190582199E1,-3.512371797E-3,2.748812549E-3,2.443389036E-3
1.191553418E1,1.527118147E-4,3.054236295E-4,2.443389036E-3
1.192524731E1,3.817795310E-3,-9.162708884E-4,3.665083554E-3
1.193496111E1,6.261184346E-3,-3.359660041E-3,3.665083554E-3
1.194467413E1,7.482878864E-3,-3.359660041E-3,3.665083554E-3
1.195438632E1,6.261184346E-3,-3.359660041E-3,4.886778072E-3
1.196409939E1,3.817795310E-3,3.054236295E-4,7.330167107E-3
1.197381319E1,1.527118147E-4,2.748812549E-3,9.773556143E-3
1.198352621E1,-2.290677279E-3,3.970507067E-3,1.221694518E-2
1.199323840E1,-3.512371797E-3,2.748812549E-3,1.099525020E-2
1.200295147E1,-2.290677279E-3,3.054236295E-4,7.330167107E-3
1.201266528E1,1.374406274E-3,-2.137965523E-3,4.886778072E-3
1.202237830E1,3.817795310E-3,-3.359660041E-3,3.665083554E-3
1.203209048E1,6.261184346E-3,-3.359660041E-3,2.443389036E-3
1.204180356E1,5.039489828E-3,-3.359660041E-3,1.221694518E-3
1.205151736E1,3.817795310E-3,-4.581354558E-3,1.221694518E-3
1.206123038E1,3.817795310E-3,-4.581354558E-3,1.221694518E-3
1.207094257E1,1.374406274E-3,-3.359660041E-3,0.000000000E0
1.208065564E1,1.374406274E-3,-3.359660041E-3,-1.221694518E-3
1.209036949E1,1.374406274E-3,-9.162708884E-4,-1.221694518E-3
1.210008252E1,1.374406274E-3,1.527118147E-3,-1.221694518E-3
1.210979465E1,1.527118147E-4,2.748812549E-3,-1.221694518E-3
1.211950772E1,-1.068982761E-3,2.748812549E-3,-3.665083554E-3
1.212922158E1,1.527118147E-4,3.054236295E-4,-7.330167107E-3
1.213893460E1,2.596100792E-3,3.054236295E-4,-6.108472589E-3
1.214864679E1,2.596100792E-3,1.527118147E-3,-6.108472589E-3
1.215835986E1,1.374406274E-3,5.192201585E-3,-6.108472589E-3
1.216807366E1,1.527118147E-4,6.413896102E-3,-4.886778072E-3
1.217778668E1,-1.068982761E-3,7.635590620E-3,-2.443389036E-3
1.218749887E1,-2.290677279E-3,5.192201585E-3,-1.221694518E-3
1.219721194E1,-2.290677279E-3,5.192201585E-3,0.000000000E0
1.220692574E1,-2.290677279E-3,3.970507067E-3,2.443389036E-3
1.221663876E1,1.527118147E-4,3.054236295E-4,3.665083554E-3
1.222635095E1,1.374406274E-3,-2.137965523E-3,2.443389036E-3
1.223606403E1,1.527118147E-4,-3.359660041E-3,2.443389036E-3
1.224577783E1,-1.068982761E-3,-4.581354558E-3,2.443389036E-3
1.225549085E1,-3.512371797E-3,-3.359660041E-3,3.665083554E-3
1.226520304E1,-3.512371797E-3,-9.162708884E-4,3.665083554E-3
1.227491611E1,-2.290677279E-3,3.054236295E-4,4.886778072E-3
1.228462991E1,1.527118147E-4,3.054236295E-4,4.886778072E-3
1.229434293E1,1.527118147E-4,2.748812549E-3,6.108472589E-3
1.230405512E1,-1.068982761E-3,5.192201585E-3,4.886778072E-3
1.231376819E1,-3.512371797E-3,6.413896102E-3,6.108472589E-3
1.232348199E1,-4.734066315E-3,7.635590620E-3,3.665083554E-3
1.233319502E1,-5.955760833E-3,6.413896102E-3,1.221694518E-3
1.234290720E1,-3.512371797E-3,3.054236295E-4,0.000000000E0
1.235262028E1,1.527118147E-4,-5.803049076E-3,-2.443389036E-3
1.236233408E1,2.596100792E-3,-9.468132630E-3,-3.665083554E-3
1.237204715E1,3.817795310E-3,-7.024743594E-3,-1.221694518E-3
1.238175929E1,3.817795310E-3,-4.581354558E-3,-1.221694518E-3
1.239147236E1,2.596100792E-3,-3.359660041E-3,0.000000000E0
1.240118621E1,1.374406274E-3,-3.359660041E-3,2.443389036E-3
1.241089923E1,2.596100792E-3,-4.581354558E-3,2.443389036E-3
1.242061137E1,5.039489828E-3,-4.581354558E-3,2.443389036E-3
1.243032444E1,6.261184346E-3,-9.162708884E-4,2.443389036E-3
1.244003830E1,7.482878864E-3,2.748812549E-3,2.443389036E-3
1.244975132E1,6.261184346E-3,3.970507067E-3,1.221694518E-3
1.245946345E1,5.039489828E-3,6.413896102E-3,2.443389036E-3
1.246917653E1,5.039489828E-3,1.130067464E-2,4.886778072E-3
1.247889038E1,3.817795310E-3,1.496575773E-2,6.108472589E-3
1.248860340E1,1.374406274E-3,1.130067464E-2,4.886778072E-3
1.249831559E1,-1.068982761E-3,5.192201585E-3,3.665083554E-3
1.250802866E1,-1.068982761E-3,2.748812549E-3,1.221694518E-3
1.251774246E1,-1.068982761E-3,-9.162708884E-4,0.000000000E0
1.252745548E1,-1.068982761E-3,-4.581354558E-3,-3.665083554E-3
1.253716767E1,-1.068982761E-3,-1.068982668E-2,-4.886778072E-3
1.254688074E1,-1.068982761E-3,-7.024743594E-3,-6.108472589E-3
1.255659455E1,-1.068982761E-3,-3.359660041E-3,-7.330167107E-3
1.256630757E1,-1.068982761E-3,-4.581354558E-3,-8.551862091E-3
1.257601976E1,-1.068982761E-3,-3.359660041E-3,-6.108472589E-3
1.258573283E1,1.527118147E-4,-3.359660041E-3,-7.330167107E-3
1.259544663E1,1.527118147E-4,-3.359660041E-3,-4.886778072E-3
1.260515965E1,1.374406274E-3,3.054236295E-4,-4.886778072E-3
1.261487184E1,1.527118147E-4,3.970507067E-3,-3.665083554E-3
1.262458491E1,-2.290677279E-3,3.970507067E-3,-3.665083554E-3
1.263429871E1,-3.512371797E-3,2.748812549E-3,-2.443389036E-3
1.264401173E1,-4.734066315E-3,2.748812549E-3,0.000000000E0
1.265372392E1,-3.512371797E-3,2.748812549E-3,1.221694518E-3
1.266343699E1,-3.512371797E-3,2.748812549E-3,2.443389036E-3
1.267315080E1,-2.290677279E-3,3.054236295E-4,1.221694518E-3
1.268286382E1,1.527118147E-4,-9.162708884E-4,2.443389036E-3
1.269257601E1,1.374406274E-3,3.054236295E-4,3.665083554E-3
1.270228908E1,1.374406274E-3,-9.162708884E-4,4.886778072E-3
1.271200288E1,-1.068982761E-3,-9.162708884E-4,3.665083554E-3
1.272171590E1,-1.068982761E-3,-9.162708884E-4,4.886778072E-3
1.273142809E1,1.527118147E-4,-2.137965523E-3,4.886778072E-3
1.274114116E1,1.374406274E-3,-3.359660041E-3,4.886778072E-3
1.275085496E1,3.817795310E-3,-3.359660041E-3,3.665083554E-3
1.276056798E1,6.261184346E-3,-3.359660041E-3,2.443389036E-3
1.277028017E1,7.482878864E-3,-3.359660041E-3,2.443389036E-3
1.277999324E1,5.039489828E-3,-2.137965523E-3,2.443389036E-3
1.278970705E1,5.039489828E-3,-2.137965523E-3,2.443389036E-3
1.279942007E1,5.039489828E-3,-9.162708884E-4,3.665083554E-3
1.280913226E1,5.039489828E-3,-9.162708884E-4,4.886778072E-3
1.281884528E1,3.817795310E-3,3.054236295E-4,3.665083554E-3
1.282855913E1,3.817795310E-3,3.054236295E-4,2.443389036E-3
1.283827215E1,2.596100792E-3,3.054236295E-4,2.443389036E-3
1.284798429E1,1.374406274E-3,3.054236295E-4,2.443389036E-3
1.285769736E1,1.527118147E-4,-9.162708884E-4,2.443389036E-3
1.286741121E1,-1.068982761E-3,-9.162708884E-4,2.443389036E-3
1.287712423E1,-1.068982761E-3,-2.137965523E-3,2.443389036E-3
1.288683637E1,-1.068982761E-3,-9.162708884E-4,3.665083554E-3
1.289654949E1,1.527118147E-4,3.054236295E-4,3.665083554E-3
1.290626330E1,1.374406274E-3,2.748812549E-3,2.443389036E-3
1.291597632E1,1.374406274E-3,2.748812549E-3,1.221694518E-3
1.292568845E1,-1.068982761E-3,2.748812549E-3,1.221694518E-3
1.293540153E1,-4.734066315E-3,2.748812549E-3,1.221694518E-3
1.294511533E1,-5.955760833E-3,3.054236295E-4,0.000000000E0
1.295482835E1,-5.955760833E-3,-3.359660041E-3,-1.221694518E-3
1.296454054E1,-3.512371797E-3,-8.246437646E-3,-2.443389036E-3
1.297425361E1,-1.068982761E-3,-9.468132630E-3,-1.221694518E-3
1.298396741E1,2.596100792E-3,-8.246437646E-3,1.221694518E-3
1.299368043E1,3.817795310E-3,-7.024743594E-3,0.000000000E0
1.300339262E1,3.817795310E-3,-4.581354558E-3,1.221694518E-3
1.301310569E1,2.596100792E-3,-2.137965523E-3,2.443389036E-3
1.302281949E1,3.817795310E-3,3.054236295E-4,1.221694518E-3
1.303253252E1,3.817795310E-3,3.054236295E-4,2.443389036E-3
1.304224470E1,3.817795310E-3,3.054236295E-4,2.443389036E-3
1.305195778E1,3.817795310E-3,3.054236295E-4,2.443389036E-3
1.306167158E1,3.817795310E-3,1.527118147E-3,2.443389036E-3
1.307138460E1,5.039489828E-3,1.527118147E-3,1.221694518E-3
1.308109679E1,3.817795310E-3,1.527118147E-3,2.443389036E-3
1.309080986E1,2.596100792E-3,2.748812549E-3,3.665083554E-3
1.310052366E1,2.596100792E-3,2.748812549E-3,3.665083554E-3
1.311023668E1,1.527118147E-4,1.527118147E-3,6.108472589E-3
1.311994887E1,1.527118147E-4,3.054236295E-4,4.886778072E-3
1.312966194E1,1.374406274E-3,3.054236295E-4,3.665083554E-3
1.313937574E1,1.374406274E-3,-9.162708884E-4,2.443389036E-3
1.314908876E1,1.374406274E-3,-3.359660041E-3,0.000000000E0
1.315880095E1,1.527118147E-4,-4.581354558E-3,0.000000000E0
1.316851403E1,-1.068982761E-3,-5.803049076E-3,1.221694518E-3
1.317822783E1,-2.290677279E-3,-4.581354558E-3,1.221694518E-3
1.318794085E1,-2.290677279E-3,-3.359660041E-3,1.221694518E-3
1.319765304E1,-1.068982761E-3,-2.137965523E-3,1.221694518E-3
1.320736606E1,2.596100792E-3,3.054236295E-4,1.221694518E-3
1.321707991E1,2.596100792E-3,1.527118147E-3,3.665083554E-3
1.322679293E1,1.527118147E-4,-9.162708884E-4,3.665083554E-3
1.323650507E1,-1.068982761E-3,-3.359660041E-3,3.665083554E-3
1.324621814E1,-1.068982761E-3,-3.359660041E-3,3.665083554E-3
1.325593194E1,1.527118147E-4,-9.162708884E-4,2.443389036E-3
1.326564496E1,1.527118147E-4,-9.162708884E-4,0.000000000E0
1.327535715E1,1.374406274E-3,-2.137965523E-3,0.000000000E0
1.328507022E1,2.596100792E-3,-3.359660041E-3,-1.221694518E-3
1.329478403E1,3.817795310E-3,-3.359660041E-3,-1.221694518E-3
1.330449705E1,3.817795310E-3,-2.137965523E-3,0.000000000E0
1.331420923E1,2.596100792E-3,-2.137965523E-3,1.221694518E-3
1.332392231E1,1.374406274E-3,-2.137965523E-3,2.443389036E-3
1.333363611E1,-1.068982761E-3,-2.137965523E-3,2.443389036E-3
1.334334913E1,-2.290677279E-3,-2.137965523E-3,3.665083554E-3
1.335306132E1,-2.290677279E-3,3.054236295E-4,3.665083554E-3
1.336277439E1,-2.290677279E-3,3.054236295E-4,1.221694518E-3
1.337248819E1,-1.068982761E-3,3.054236295E-4,1.221694518E-3
1.338220121E1,-1.068982761E-3,3.054236295E-4,-1.221694518E-3
1.339191335E1,-2.290677279E-3,1.527118147E-3,-2.443389036E-3
1.340162642E1,-2.290677279E-3,2.748812549E-3,-2.443389036E-3
1.341134028E1,-2.290677279E-3,3.970507067E-3,-1.221694518E-3
1.342105319E1,-1.068982761E-3,2.748812549E-3,0.000000000E0
1.343076543E1,1.374406274E-3,3.054236295E-4,0.000000000E0
1.344047851E1,5.039489828E-3,-3.359660041E-3,0.000000000E0
1.345019231E1,7.482878864E-3,-5.803049076E-3,1.221694518E-3
1.345990533E1,6.261184346E-3,-8.246437646E-3,2.443389036E-3
1.346961752E1,6.261184346E-3,-7.024743594E-3,2.443389036E-3
1.347933059E1,5.039489828E-3,-5.803049076E-3,2.443389036E-3
1.348904439E1,2.596100792E-3,-5.803049076E-3,1.221694518E-3
1.349875741E1,1.527118147E-4,-3.359660041E-3,0.000000000E0
1.350846960E1,-1.068982761E-3,-9.162708884E-4,-2.443389036E-3
1.351818267E1,-2.290677279E-3,-3.359660041E-3,-3.665083554E-3
1.352789647E1,-1.068982761E-3,-4.581354558E-3,-2.443389036E-3
1.353760949E1,1.527118147E-4,-2.137965523E-3,-1.221694518E-3
1.354732168E1,1.374406274E-3,3.054236295E-4,-1.221694518E-3
1.355703470E1,2.596100792E-3,1.527118147E-3,2.443389036E-3
1.356674856E1,2.596100792E-3,3.970507067E-3,4.886778072E-3
1.357646147E1,2.596100792E-3,5.192201585E-3,3.665083554E-3
1.358617371E1,2.596100792E-3,6.413896102E-3,4.886778072E-3
1.359588679E1,2.596100792E-3,8.857285604E-3,3.665083554E-3
1.360560059E1,1.374406274E-3,7.635590620E-3,4.886778072E-3
1.361531361E1,-2.290677279E-3,5.192201585E-3,2.443389036E-3
1.362502580E1,-5.955760833E-3,-9.162708884E-4,0.000000000E0
1.363473887E1,-5.955760833E-3,-2.137965523E-3,-1.221694518E-3
1.364445267E1,-3.512371797E-3,-3.359660041E-3,0.000000000E0
1.365416569E1,-1.068982761E-3,-9.162708884E-4,0.000000000E0
1.366387788E1,1.527118147E-4,2.748812549E-3,-1.221694518E-3
1.367359095E1,1.374406274E-3,6.413896102E-3,-1.221694518E-3
1.368330476E1,2.596100792E-3,8.857285604E-3,-1.221694518E-3
1.369301778E1,3.817795310E-3,7.635590620E-3,-2.443389036E-3
1.370272991E1,5.039489828E-3,5.192201585E-3,-2.443389036E-3
1.371244298E1,2.596100792E-3,3.970507067E-3,-1.221694518E-3
1.372215679E1,1.527118147E-4,1.527118147E-3,0.000000000E0
1.373186981E1,-1.068982761E-3,1.527118147E-3,0.000000000E0
1.374158199E1,-2.290677279E-3,1.527118147E-3,0.000000000E0
1.375129507E1,-3.512371797E-3,1.527118147E-3,2.443389036E-3
1.376100887E1,-3.512371797E-3,-9.162708884E-4,2.443389036E-3
1.377072189E1,-1.068982761E-3,-9.162708884E-4,2.443389036E-3
1.378043408E1,1.374406274E-3,-9.162708884E-4,1.221694518E-3
1.379014715E1,2.596100792E-3,-2.137965523E-3,0.000000000E0
1.379986095E1,2.596100792E-3,-3.359660041E-3,0.000000000E0
1.380957397E1,2.596100792E-3,-3.359660041E-3,1.221694518E-3
1.381928616E1,1.374406274E-3,-9.162708884E-4,0.000000000E0
1.382899918E1,1.527118147E-4,-9.162708884E-4,0.000000000E0
1.383871304E1,-2.290677279E-3,-4.581354558E-3,0.000000000E0
1.384842595E1,-2.290677279E-3,-8.246437646E-3,1.221694518E-3
1.385813819E1,-3.512371797E-3,-8.246437646E-3,1.221694518E-3
1.386785126E1,-3.512371797E-3,-7.024743594E-3,-1.221694518E-3
1.387756507E1,-1.068982761E-3,-1.068982668E-2,-3.665083554E-3
1.388727809E1,1.374406274E-3,-7.024743594E-3,-3.665083554E-3
1.389699028E1,2.596100792E-3,-3.359660041E-3,-2.443389036E-3
1.390670335E1,1.374406274E-3,-3.359660041E-3,-2.443389036E-3
1.391641715E1,1.527118147E-4,-5.803049076E-3,-2.443389036E-3
1.392613017E1,1.527118147E-4,-5.803049076E-3,-2.443389036E-3
1.393584236E1,-1.068982761E-3,-4.581354558E-3,-1.221694518E-3
1.394555543E1,1.374406274E-3,-3.359660041E-3,-1.221694518E-3
1.395526923E1,1.374406274E-3,-2.137965523E-3,0.000000000E0
1.396498226E1,3.817795310E-3,3.054236295E-4,0.000000000E0
1.397469439E1,2.596100792E-3,1.527118147E-3,1.221694518E-3
1.398440746E1,2.596100792E-3,3.054236295E-4,1.221694518E-3
1.399412126E1,2.596100792E-3,1.527118147E-3,1.221694518E-3
1.400383429E1,2.596100792E-3,1.527118147E-3,2.443389036E-3
1.401354647E1,3.817795310E-3,3.054236295E-4,3.665083554E-3
1.402325955E1,2.596100792E-3,-9.162708884E-4,3.665083554E-3
1.403297335E1,2.596100792E-3,-9.162708884E-4,2.443389036E-3
1.404268637E1,2.596100792E-3,3.054236295E-4,1.221694518E-3
1.405239856E1,2.596100792E-3,1.527118147E-3,1.221694518E-3
1.406211163E1,1.374406274E-3,-9.162708884E-4,0.000000000E0
1.407182543E1,-1.068982761E-3,-3.359660041E-3,0.000000000E0
1.408153845E1,-2.290677279E-3,-4.581354558E-3,-1.221694518E-3
1.409125059E1,-2.290677279E-3,-2.137965523E-3,-2.443389036E-3
1.410096366E1,-3.512371797E-3,3.054236295E-4,-1.221694518E-3
1.411067746E1,-4.734066315E-3,3.054236295E-4,-1.221694518E-3
1.412039048E1,-4.734066315E-3,3.970507067E-3,-1.221694518E-3
1.413010267E1,-4.734066315E-3,5.192201585E-3,-1.221694518E-3
1.413981574E1,-4.734066315E-3,2.748812549E-3,-1.221694518E-3
1.414952955E1,-3.512371797E-3,1.527118147E-3,0.000000000E0
1.415924257E1,1.527118147E-4,1.527118147E-3,1.221694518E-3
1.416895476E1,3.817795310E-3,1.527118147E-3,1.221694518E-3
1.417866783E1,6.261184346E-3,1.527118147E-3,2.443389036E-3
1.418838163E1,6.261184346E-3,1.527118147E-3,2.443389036E-3
1.419809465E1,6.261184346E-3,1.527118147E-3,4.886778072E-3
1.420780679E1,3.817795310E-3,2.748812549E-3,6.108472589E-3
1.421751986E1,1.374406274E-3,3.970507067E-3,6.108472589E-3
1.422723366E1,1.527118147E-4,1.527118147E-3,3.665083554E-3
1.423694668E1,1.374406274E-3,1.527118147E-3,1.221694518E-3
1.424665887E1,1.374406274E-3,-9.162708884E-4,-2.443389036E-3
1.425637194E1,2.596100792E-3,-3.359660041E-3,-6.108472589E-3
1.426608574E1,2.596100792E-3,-2.137965523E-3,-7.330167107E-3
1.427579877E1,1.374406274E-3,1.527118147E-3,-6.108472589E-3
1.428551095E1,1.527118147E-4,5.192201585E-3,-4.886778072E-3
1.429522403E1,-3.512371797E-3,7.635590620E-3,-2.443389036E-3
1.430493783E1,-4.734066315E-3,6.413896102E-3,0.000000000E0
1.431465085E1,-5.955760833E-3,6.413896102E-3,0.000000000E0
1.432436298E1,-4.734066315E-3,3.970507067E-3,-2.443389036E-3
1.433407606E1,-4.734066315E-3,3.054236295E-4,-4.886778072E-3
1.434378986E1,-2.290677279E-3,-3.359660041E-3,-4.886778072E-3
1.435350288E1,1.527118147E-4,-3.359660041E-3,-4.886778072E-3
1.436321507E1,1.374406274E-3,-3.359660041E-3,-2.443389036E-3
1.437292814E1,1.374406274E-3,-2.137965523E-3,1.221694518E-3
1.438264194E1,1.527118147E-4,3.054236295E-4,3.665083554E-3
1.439235496E1,1.527118147E-4,-9.162708884E-4,3.665083554E-3
1.440206715E1,2.596100792E-3,-9.162708884E-4,2.443389036E-3
1.441178022E1,5.039489828E-3,3.054236295E-4,2.443389036E-3
1.442149397E1,6.261184346E-3,3.054236295E-4,2.443389036E-3
1.443120699E1,3.817795310E-3,-9.162708884E-4,2.443389036E-3
1.444091918E1,1.374406274E-3,-3.359660041E-3,3.665083554E-3
1.445063226E1,1.527118147E-4,-4.581354558E-3,3.665083554E-3
1.446034606E1,1.527118147E-4,-5.803049076E-3,2.443389036E-3
1.447005908E1,1.527118147E-4,-5.803049076E-3,2.443389036E-3
1.447977126E1,1.527118147E-4,-4.581354558E-3,2.443389036E-3
1.448948434E1,1.374406274E-3,-3.359660041E-3,0.000000000E0
1.449919814E1,2.596100792E-3,-2.137965523E-3,-2.443389036E-3
1.450891116E1,3.817795310E-3,-9.162708884E-4,-2.443389036E-3
1.451862335E1,2.596100792E-3,-9.162708884E-4,-2.443389036E-3
1.452833637E1,1.374406274E-3,3.054236295E-4,-1.221694518E-3
1.453805017E1,-1.068982761E-3,3.054236295E-4,-2.443389036E-3
1.454776319E1,-2.290677279E-3,1.527118147E-3,1.221694518E-3
1.455747538E1,-3.512371797E-3,1.527118147E-3,1.221694518E-3
1.456718845E1,-3.512371797E-3,1.527118147E-3,3.665083554E-3
1.457690226E1,-1.068982761E-3,3.054236295E-4,1.221694518E-3
1.458661528E1,1.527118147E-4,1.527118147E-3,1.221694518E-3
1.459632746E1,1.374406274E-3,1.527118147E-3,0.000000000E0
1.460604054E1,2.596100792E-3,-9.162708884E-4,-1.221694518E-3
1.461575434E1,2.596100792E-3,-4.581354558E-3,-2.443389036E-3
1.462546736E1,2.596100792E-3,-7.024743594E-3,-2.443389036E-3
1.463517949E1,2.596100792E-3,-8.246437646E-3,-2.443389036E-3
1.464489257E1,2.596100792E-3,-7.024743594E-3,-3.665083554E-3
1.465460637E1,3.817795310E-3,-5.803049076E-3,-4.886778072E-3
1.466431939E1,3.817795310E-3,-4.581354558E-3,-3.665083554E-3
1.467403158E1,3.817795310E-3,-9.162708884E-4,-3.665083554E-3
1.468374465E1,1.374406274E-3,1.527118147E-3,-2.443389036E-3
1.469345845E1,-1.068982761E-3,3.054236295E-4,-1.221694518E-3
1.470317147E1,-1.068982761E-3,3.054236295E-4,-2.443389036E-3
1.471288361E1,-1.068982761E-3,2.748812549E-3,-1.221694518E-3
1.472259668E1,-1.068982761E-3,5.192201585E-3,-1.221694518E-3
1.473231048E1,-1.068982761E-3,5.192201585E-3,0.000000000E0
1.474202350E1,-1.068982761E-3,3.970507067E-3,1.221694518E-3
1.475173569E1,-1.068982761E-3,1.527118147E-3,0.000000000E0
1.476144876E1,1.527118147E-4,3.054236295E-4,-2.443389036E-3
1.477116257E1,1.374406274E-3,-9.162708884E-4,-2.443389036E-3
1.478087559E1,2.596100792E-3,-9.162708884E-4,-3.665083554E-3
1.479058778E1,2.596100792E-3,1.527118147E-3,-2.443389036E-3
1.480030085E1,2.596100792E-3,3.970507067E-3,-2.443389036E-3
1.481001465E1,2.596100792E-3,5.192201585E-3,-1.221694518E-3
1.481972767E1,3.817795310E-3,5.192201585E-3,0.000000000E0
1.482943981E1,2.596100792E-3,7.635590620E-3,1.221694518E-3
1.483915288E1,1.374406274E-3,1.007897966E-2,2.443389036E-3
1.484886668E1,1.374406274E-3,1.007897966E-2,1.221694518E-3
1.485857970E1,1.527118147E-4,7.635590620E-3,2.443389036E-3
1.486829189E1,1.527118147E-4,3.970507067E-3,1.221694518E-3
1.487800496E1,2.596100792E-3,5.192201585E-3,0.000000000E0
1.488771876E1,2.596100792E-3,2.748812549E-3,-1.221694518E-3
1.489743179E1,2.596100792E-3,1.527118147E-3,0.000000000E0
1.490714392E1,3.817795310E-3,-9.162708884E-4,0.000000000E0
1.491685699E1,2.596100792E-3,-9.162708884E-4,-1.221694518E-3
1.492657080E1,3.817795310E-3,3.054236295E-4,-1.221694518E-3
1.493628382E1,5.039489828E-3,1.527118147E-3,-1.221694518E-3
1.494599601E1,3.817795310E-3,1.527118147E-3,-2.443389036E-3
1.495570908E1,3.817795310E-3,5.192201585E-3,-1.221694518E-3
1.496542288E1,2.596100792E-3,7.635590620E-3,-1.221694518E-3
1.497513590E1,1.374406274E-3,7.635590620E-3,-2.443389036E-3
1.498484809E1,1.374406274E-3,7.635590620E-3,-3.665083554E-3
1.499456111E1,1.527118147E-4,5.192201585E-3,-3.665083554E-3
1.500427496E1,-2.290677279E-3,2.748812549E-3,-3.665083554E-3
1.501398788E1,-3.512371797E-3,-9.162708884E-4,-4.886778072E-3
1.502370012E1,-3.512371797E-3,-3.359660041E-3,-6.108472589E-3
1.503341319E1,-4.734066315E-3,-2.137965523E-3,-4.886778072E-3
1.504312699E1,-3.512371797E-3,-9.162708884E-4,-4.886778072E-3
1.505284002E1,-4.734066315E-3,3.054236295E-4,-4.886778072E-3
1.506255220E1,-3.512371797E-3,1.527118147E-3,-3.665083554E-3
