"Time (s)","Acceleration x (m/s^2)","Acceleration y (m/s^2)","Acceleration z (m/s^2)"
5.102720400E-2,8.344969153E-2,1.350449324E0,-3.655036688E-1
6.074126600E-2,-1.544566989E0,1.283450246E0,-6.290132403E-1
7.045449500E-2,-2.547757864E0,9.385846853E-1,-3.559323549E-1
8.016694300E-2,-2.566900492E0,2.324029058E-1,-4.184448719E-1
8.988027700E-2,-1.645065546E0,-8.928219676E-1,-1.974377751E0
9.959433900E-2,-9.699904919E-1,-2.233400822E0,-6.918248653E0
1.093075680E-1,-2.367997169E0,-4.165605068E0,-8.357232094E0
1.190200160E-1,-5.255535603E0,-6.083153248E0,-7.725227833E0
1.287333500E-1,-7.175477028E0,-9.990333557E0,-3.224328458E-1
1.384474120E-1,-6.785147667E0,-1.432612801E1,3.936492443E0
1.481606410E-1,-4.635495663E0,-1.727797318E1,2.117049932E0
1.578731410E-1,-1.568495274E0,-1.913091660E1,-4.893023014E0
1.675864750E-1,-1.345962733E-1,-2.182912254E1,-1.552523136E1
1.773005370E-1,1.049850956E-1,-2.419921303E1,-7.744370461E0
1.870137660E-1,5.216353536E-1,-2.701496696E1,6.826124668E0
1.967262140E-1,2.724228621E0,-2.577937317E1,4.661816597E0
2.064395480E-1,2.717050076E0,-2.410589409E1,-5.402694225E0
2.161536100E-1,-4.528416991E-1,-2.452493668E1,-5.275874615E0
2.258668390E-1,-5.123631477E0,-2.569083977E1,-2.961117923E-1
2.355793390E-1,-6.801897526E0,-2.634198570E1,2.126621008E0
2.452926730E-1,-6.260820389E0,-2.533161736E1,2.186441660E0
2.550067350E-1,-5.530710220E0,-2.390250397E1,1.310369492E0
2.647199640E-1,-4.946562767E0,-2.290409851E1,1.101894855E0
2.744324120E-1,-3.754338741E0,-2.218834496E1,9.702895880E-1
2.841457450E-1,-2.164607286E0,-2.150609207E1,-5.356931686E-1
2.938598600E-1,-6.924230456E-1,-2.096501541E1,-1.979163408E0
3.035730370E-1,2.078764737E-1,-2.015564156E1,-2.335993052E0
3.132855370E-1,-6.011966988E-2,-1.882224274E1,-1.751845241E0
3.229988700E-1,-6.370890141E-1,-1.686610985E1,-1.153340459E0
3.327129330E-1,-8.718847632E-1,-1.447209072E1,-1.268195987E0
3.424261620E-1,-5.437689424E-1,-1.234606743E1,-1.445264935E0
3.521386620E-1,2.916252613E-1,-1.040698433E1,-1.124626637E0
3.618519950E-1,6.795616150E-1,-8.410173416E0,-1.129412293E0
3.715660580E-1,3.586242795E-1,-6.186044693E0,-1.837986946E0
3.812792870E-1,4.037888348E-2,-3.775275946E0,-3.547359467E0
3.909917350E-1,1.815554202E-1,-1.331007600E0,-5.898307800E0
4.007050680E-1,7.627122104E-2,1.376770377E0,-8.295019150E0
4.104191310E-1,-7.857431173E-1,3.667897940E0,-8.879166603E0
4.201323600E-1,-1.721635938E0,4.340580463E0,-6.068497181E0
4.298448600E-1,-2.875574589E0,3.881158352E0,-2.252244234E0
4.395581930E-1,-4.649852753E0,2.933002472E0,3.263211846E-1
4.492722560E-1,-5.664708614E0,1.948953986E0,9.535398483E-1
4.589854850E-1,-4.166203499E0,7.088736892E-1,3.478565812E-1
4.686979850E-1,-1.170987606E0,-6.655037999E-1,-2.075773627E-1
4.784113180E-1,1.759322882E0,-1.800299883E0,-4.232304990E-1
4.881253810E-1,3.504587889E0,-2.374876499E0,-8.276175261E-1
4.978386100E-1,3.380161047E0,-2.384447813E0,-1.055234790E0
5.075511100E-1,2.623430967E0,-1.967797518E0,-1.155733347E0
5.172644430E-1,1.852642894E0,-1.235294700E0,-1.045663476E0
5.269785060E-1,1.211067319E0,-6.439684033E-1,-8.180462122E-1
5.366917350E-1,9.116654396E-1,-4.115654826E-1,-5.093721151E-1
5.464042350E-1,9.212366939E-1,-3.182454109E-1,1.776670814E-1
5.561175680E-1,5.551348329E-1,-2.081755698E-1,3.933202326E-1
5.658316310E-1,-1.489532143E-1,-1.962114573E-1,-8.973085321E-3
5.755448600E-1,-9.987043738E-1,-3.684946895E-1,-1.692921966E-1
5.852573600E-1,-1.266999602E0,-8.497511148E-1,-1.022931710E-1
5.949706930E-1,-1.077667475E0,-1.390828133E0,-1.811665893E0
6.046847560E-1,-7.833502889E-1,-2.257328987E0,-5.816951752E0
6.143979850E-1,-1.242772222E0,-4.124927044E0,-6.592824459E0
6.241104850E-1,-1.539781332E0,-7.009773731E0,-4.184149265E0
6.338238180E-1,-2.741576433E0,-1.107727337E1,1.152144074E0
6.435378810E-1,-3.617947817E0,-1.464676666E1,2.638984203E0
6.532511100E-1,-3.194119215E0,-1.812802505E1,8.482556343E-1
6.629636100E-1,-2.655434847E0,-2.071586227E1,-4.564907551E0
6.726769430E-1,-2.222034931E0,-2.287299156E1,-1.152921772E1
6.823910060E-1,-1.333998680E0,-2.472832680E1,-4.335196495E0
6.921042350E-1,5.072783828E-1,-2.636830711E1,7.814958572E0
7.018167350E-1,1.601396561E0,-2.512104797E1,6.436094761E0
7.115300680E-1,-5.030909777E-1,-2.243241310E1,-3.686143398E0
7.212441830E-1,-3.948157310E0,-2.213570404E1,-5.450850010E0
7.309574120E-1,-6.620042801E0,-2.389771843E1,-3.686143398E0
7.406699120E-1,-7.697411537E0,-2.534866524E1,-2.774178743E0
7.503832450E-1,-6.615257263E0,-2.625823784E1,-2.738286495E0
7.600973080E-1,-4.252345085E0,-2.656003189E1,-2.900998354E0
7.698105370E-1,-1.326820135E0,-2.626302338E1,-2.072782516E0
7.795230370E-1,1.699502230E0,-2.500140762E1,-1.028913736E0
7.892363700E-1,3.973880291E0,-2.317000008E1,-6.744768620E-1
7.989504850E-1,4.548456669E0,-2.134068871E1,-3.921238184E-1
8.086637140E-1,2.668894529E0,-1.881506348E1,-1.214357466E-1
8.183762140E-1,-5.772684813E-1,-1.559731483E1,-3.702892959E-1
8.280895480E-1,-3.170190811E0,-1.270050430E1,-9.523434043E-1
8.378036100E-1,-4.077668667E0,-1.013629627E1,-6.505486369E-1
8.475168390E-1,-3.122334480E0,-8.056035995E0,-1.645065546E-1
8.572293390E-1,-1.903789520E0,-6.286842346E0,-2.745763958E-1
8.669426730E-1,-1.142273664E0,-4.587040901E0,-1.091127157E0
8.766567870E-1,-4.528416991E-1,-2.733799934E0,-2.266601324E0
8.863700160E-1,2.362912335E-2,-8.473583460E-1,-3.142673492E0
8.960825160E-1,-6.610172391E-1,1.166201949E0,-4.253541470E0
9.057958500E-1,-2.001895189E0,2.710170746E0,-5.022235394E0
9.155099120E-1,-2.614757061E0,3.155534744E0,-4.962415218E0
9.252232450E-1,-1.949253201E0,2.224427700E0,-3.509074450E0
9.349356930E-1,-1.372283816E0,1.012762189E0,-1.531705618E0
9.446490270E-1,-1.113559842E0,-1.405783277E-2,-5.237290859E-1
9.543630890E-1,-9.293124676E-1,-7.205387354E-1,-3.535395563E-1
9.640763180E-1,-7.686942816E-2,-1.278365493E0,-5.093721151E-1
9.737888180E-1,1.132104158E0,-1.553540111E0,-9.041878581E-1
9.835022040E-1,2.180758715E0,-1.642074585E0,-1.361516118E0
9.932162660E-1,2.707478762E0,-1.543968797E0,-1.390229940E0
1.002929495E0,2.676073074E0,-1.304686546E0,-2.889333367E-1
1.012641995E0,2.010569334E0,-8.856434822E-1,1.087537885E0
1.022355381E0,1.419242978E0,-4.689932466E-1,1.659721613E0
1.032069443E0,1.065105200E0,-9.810572863E-2,1.355833173E0
1.041782673E0,8.949156404E-1,6.969095767E-2,5.751747489E-1
1.051495173E0,6.771687865E-1,7.208377868E-2,-1.932204217E-1
1.061208558E0,3.945166469E-1,-1.746760458E-1,-8.563314080E-1
1.070922620E0,3.346960545E-1,-6.340979934E-1,-1.064806104E0
1.080635850E0,7.627122104E-2,-1.055533886E0,-8.706883192E-1
1.090348402E0,-1.537388563E-1,-1.402792215E0,-8.635098934E-1
1.100061735E0,-7.522436380E-1,-1.924726725E0,-3.348755360E0
1.109775798E0,-2.198106766E0,-3.174378395E0,-6.475276947E0
1.119489027E0,-4.628317356E0,-4.890929699E0,-6.456134796E0
1.129201579E0,-6.253642082E0,-8.154141426E0,-2.273779631E0
1.138914912E0,-6.818647385E0,-1.214507008E1,2.686840773E0
1.148628975E0,-5.739185333E0,-1.545135307E1,2.408974171E0
1.158342308E0,-4.010370731E0,-1.783819389E1,1.166501045E0
1.168054756E0,-2.370688915E0,-2.109662056E1,-6.051747799E0
1.177768089E0,-1.168594718E0,-2.414417839E1,-5.065306664E0
1.187482204E0,9.547362328E-1,-2.612902451E1,4.817649364E0
1.197195433E0,2.171187401E0,-2.671556664E1,7.838887215E0
1.206907933E0,8.709874153E-1,-2.487937355E1,-4.351946115E-1
1.216621266E0,-3.117548704E0,-2.448425865E1,-5.189733028E0
1.226335381E0,-5.763113499E0,-2.585115814E1,-3.985545158E0
1.236048610E0,-5.913861275E0,-2.804417992E1,-2.594418049E0
1.245761162E0,-4.757529736E0,-2.888465881E1,-2.683251381E0
1.255474495E0,-3.438187122E0,-2.849432945E1,-3.042174816E0
1.265188610E0,-2.492722988E0,-2.749353218E1,-1.845165372E0
1.274901839E0,-1.345962763E0,-2.594477844E1,-7.773682475E-1
1.284614339E0,2.294118702E-1,-2.387139702E1,-3.032902777E-1
1.294327673E0,1.038784146E0,-2.146780586E1,-6.337988973E-1
1.304041787E0,4.426721931E-1,-1.846062660E1,-1.028913736E0
1.313755016E0,-7.809575200E-1,-1.538196087E1,-7.007979155E-1
1.323467568E0,-1.704886079E0,-1.247079372E1,-2.602194548E-1
1.333180902E0,-2.042573214E0,-9.901799202E0,-1.621137410E-1
1.342895016E0,-1.860718727E0,-7.792526245E0,-9.032905847E-2
1.352608245E0,-1.008275628E0,-6.140581131E0,-1.501496136E-1
1.362320745E0,-4.815555736E-2,-4.666004181E0,-6.840481758E-1
1.372034079E0,4.929214716E-1,-3.212663412E0,-1.701596022E0
1.381748193E0,4.905286431E-1,-1.752144337E0,-3.248256683E0
1.391461423E0,-1.226321608E-2,-2.368894368E-1,-5.055735111E0
1.401173975E0,-1.166201949E0,1.230808139E0,-6.023033619E0
1.410887308E0,-2.126322031E0,2.198106766E0,-5.412265778E0
1.420601423E0,-2.483151674E0,2.087737799E0,-3.561716557E0
1.430314652E0,-2.392224550E0,1.606780410E0,-1.268195987E0
1.440027152E0,-2.164607286E0,1.058524966E0,-1.333998591E-1
1.449740537E0,-1.827219248E0,2.874378264E-1,4.845465720E-2
1.459454600E0,-1.065703392E0,-6.364908218E-1,1.016949583E-2
1.469167933E0,5.886343718E-1,-1.443470240E0,-5.548357368E-1
1.478880381E0,2.561217546E0,-1.941476464E0,-1.330409408E0
1.488593714E0,3.765405416E0,-2.034796476E0,-1.759023786E0
1.498307829E0,3.700799227E0,-1.805085540E0,-1.550848126E0
1.508021058E0,2.815155745E0,-1.242473125E0,-6.601199508E-1
1.517733610E0,1.771286964E0,-8.330013752E-1,5.440680385E-1
1.527446943E0,8.015955687E-1,-4.594219327E-1,1.398903966E0
1.537161058E0,-2.470589429E-1,-1.884347759E-2,1.238285661E0
1.546874287E0,-6.777670383E-1,2.659024298E-1,6.804589629E-1
1.556586787E0,-5.724828243E-1,4.863412082E-1,1.752742529E-1
1.566300173E0,-4.743770957E-1,4.863412082E-1,-4.375874400E-1
1.576014235E0,-3.571287692E-1,1.893320978E-1,-1.079162955E0
1.585727568E0,-1.657029688E-1,-2.536391914E-1,-1.287338614E0
1.595440016E0,-2.853440940E-1,-8.473583460E-1,-9.619147182E-1
1.605153350E0,-6.083751321E-1,-1.603789330E0,-3.678964853E0
1.614867464E0,-1.855933070E0,-3.313162088E0,-5.170590401E0
1.624580693E0,-4.058526516E0,-5.204688549E0,-4.931308270E0
1.634293245E0,-5.707779408E0,-8.764610291E0,-2.912962437E0
1.644006579E0,-6.000002861E0,-1.352632713E1,1.587936878E0
1.653720693E0,-5.066203594E0,-1.794587135E1,1.855933070E0
1.663433923E0,-2.875574589E0,-2.130958176E1,-1.861915112E0
1.673146475E0,1.053141117E0,-2.463261414E1,-1.101924706E1
1.682859808E0,3.686442375E0,-2.685434914E1,-6.932605267E0
1.692573923E0,5.063212872E0,-2.835315323E1,3.608675718E0
1.702287152E0,3.657728434E0,-2.691656303E1,6.584449768E0
1.711999652E0,-7.809575200E-1,-2.352892494E1,-1.522134304E0
1.721713037E0,-6.212964058E0,-2.211895370E1,-4.258327007E0
1.731427100E0,-9.287142754E0,-2.326810646E1,-2.443670034E0
1.741140433E0,-8.164310455E0,-2.559751892E1,-1.648953915E0
1.750852881E0,-6.021538258E0,-2.673710060E1,-1.359123230E0
1.760566266E0,-4.340879440E0,-2.713700104E1,-7.965108156E-1
1.770280329E0,-2.849253654E0,-2.636112976E1,6.759724021E-2
1.779993662E0,-7.594220638E-1,-2.483869553E1,2.617149651E-1
1.789706110E0,1.282852054E0,-2.303091812E1,-2.530409992E-1
1.799419443E0,2.058425665E0,-2.092912292E1,-6.242275834E-1
1.809133558E0,1.110568762E0,-1.851566124E1,-7.438687682E-1
1.818846787E0,-8.790631890E-1,-1.577917004E1,-6.505486369E-1
1.828559339E0,-2.164607286E0,-1.306690502E1,-5.117649436E-1
1.838272673E0,-2.324926376E0,-1.081645584E1,-4.088735580E-1
1.847986787E0,-1.659422517E0,-8.927322388E0,-5.572285652E-1
1.857700016E0,-5.102694035E-1,-7.380960464E0,-9.690931439E-1
1.867412568E0,5.551348329E-1,-5.949155331E0,-1.514955878E0
1.877125902E0,1.084247708E0,-4.361816406E0,-2.046162367E0
1.886840016E0,1.098604679E0,-2.805584431E0,-2.831606388E0
1.896553245E0,8.398807645E-1,-9.669994712E-1,-4.275076866E0
1.906265745E0,-4.073780477E-1,1.316949725E0,-5.855237007E0
1.915979131E0,-2.147857428E0,3.031108141E0,-6.408277988E0
1.925693193E0,-3.064906597E0,3.069393158E0,-5.134698391E0
1.935406527E0,-3.069692373E0,1.838884234E0,-2.319243431E0
1.945118975E0,-2.985943556E0,7.567301393E-1,-2.673979402E-1
1.954832360E0,-2.511865616E0,2.691925503E-3,2.712862790E-1
1.964546423E0,-1.460818172E0,-6.293123364E-1,-1.166501045E-1
1.974259756E0,7.627122104E-2,-1.208973646E0,-1.026520967E0
1.983972204E0,1.924427629E0,-1.836192250E0,-1.919342875E0
1.993685589E0,3.552444220E0,-2.264507532E0,-2.087139606E0
2.003399652E0,4.225126743E0,-2.463410854E0,-1.172483087E0
2.013112881E0,3.926023722E0,-2.221436739E0,2.114657015E-1
2.022825433E0,3.147758245E0,-1.536790371E0,1.235892892E0
2.032538766E0,2.120938063E0,-6.607181430E-1,1.587936878E0
2.042252881E0,7.106683254E-1,8.404789865E-2,1.377368569E0
2.051966110E0,-5.772684813E-1,5.820540786E-1,6.780661345E-1
2.061678662E0,-1.503889084E0,8.931210637E-1,-3.272185028E-1
2.071391995E0,-1.961217284E0,8.021938205E-1,-1.119840980E0
2.081106110E0,-1.934896231E0,3.640081584E-1,-1.270588875E0
2.090819339E0,-1.161416292E0,-1.890329868E-1,-9.209375978E-1
2.100531839E0,-2.566302419E-1,-7.396813035E-1,-2.003091574E0
2.110245225E0,-5.557330847E-1,-1.821835399E0,-5.151448250E0
2.119959287E0,-2.507079840E0,-3.870988846E0,-6.149853230E0
2.129672620E0,-4.269094467E0,-6.284449577E0,-6.812964439E0
2.139385068E0,-5.439783096E0,-1.106770229E1,1.851147413E0
2.149098402E0,-5.152345181E0,-1.588475323E1,6.428916454E0
2.158812516E0,-3.244368315E0,-1.834337807E1,3.601497173E0
2.168525850E0,-9.197412133E-1,-2.059861374E1,-7.662715435E0
2.178238298E0,-1.345962733E-1,-2.357199478E1,-1.376291752E1
2.187951631E0,-5.844469070E-1,-2.700270462E1,-3.408575773E0
2.197665745E0,4.785645306E-1,-2.887269592E1,8.899505615E0
2.207378975E0,1.814357758E0,-2.641377068E1,4.753043175E0
2.217091527E0,-9.364909530E-1,-2.376132774E1,-2.266601324E0
2.226804860E0,-4.012763500E0,-2.387857628E1,-2.405385017E0
2.236518975E0,-4.431806564E0,-2.554726982E1,-8.826524615E-1
2.246232204E0,-3.354438305E0,-2.666770935E1,5.249254704E-1
2.255944704E0,-3.196511984E0,-2.644487762E1,1.144965649E0
2.265658089E0,-3.639483213E0,-2.538455772E1,1.030110121E0
2.275372152E0,-3.328117132E0,-2.427368927E1,2.991028363E-3
2.285085485E0,-2.021037817E0,-2.319871521E1,-1.100698471E0
2.294797933E0,-2.542374134E-1,-2.214527512E1,-1.988734722E0
2.304511266E0,9.332008362E-1,-2.071825409E1,-2.240280151E0
2.314225381E0,8.111668825E-1,-1.842951965E1,-1.952842355E0
2.323938610E0,-5.294120312E-1,-1.541306782E1,-1.723131418E0
2.333651162E0,-2.186142683E0,-1.238674545E1,-1.328016520E0
2.343364495E0,-2.897109985E0,-9.834799767E0,-7.151548862E-1
2.353078610E0,-2.897109985E0,-7.835597038E0,-5.093721151E-1
2.362791839E0,-2.327319145E0,-6.138188362E0,-6.098706722E-1
2.372504339E0,-1.604387641E0,-4.654039860E0,-1.332802176E0
2.382217725E0,-8.647062778E-1,-3.152842999E0,-2.944069147E0
2.391931787E0,-4.671986103E-1,-1.508076429E0,-4.962415218E0
2.401645120E0,-2.997010350E-1,4.238287210E-1,-6.549753666E0
2.411357568E0,-7.426723242E-1,1.743171334E0,-6.231209278E0
2.421070902E0,-1.570888042E0,1.838884234E0,-4.042973042E0
2.430785016E0,-1.338784218E0,8.309076428E-1,-1.567597985E0
2.440498245E0,-1.336391449E0,6.490531564E-2,-2.267199457E-1
2.450210798E0,-1.601994753E0,-3.038884699E-1,-6.553342938E-1
2.459924131E0,-1.003489971E0,-6.798607111E-1,-1.658525229E0
2.469638245E0,2.413759828E-1,-9.000003934E-1,-2.240280151E0
2.479351475E0,1.491027594E0,-1.175175071E0,-2.187638044E0
2.489063975E0,2.144866467E0,-1.419542074E0,-1.689631939E0
2.498777360E0,2.319542408E0,-1.268794179E0,-1.153340459E0
2.508491423E0,2.939582586E0,-1.084247708E0,-5.620142221E-1
2.518204756E0,3.650550127E0,-8.784649968E-1,-1.854437590E-2
2.527917204E0,3.786941051E0,-6.726822853E-1,2.425723970E-1
2.537630537E0,3.416053534E0,-5.000999570E-1,4.127619043E-2
2.547344652E0,2.534896374E0,-2.799602449E-1,-7.597211748E-2
2.557057881E0,1.371386528E0,-6.669992954E-2,-2.817548811E-1
2.566770381E0,2.581257522E-1,1.151545867E-1,-7.677969933E-1
2.576483766E0,-7.354938388E-1,3.664009571E-1,-1.277767301E0
2.586197829E0,-1.546959877E0,5.054837838E-2,-1.040877819E0
2.595911162E0,-1.930110574E0,-6.942176819E-1,4.459623098E-1
2.605623610E0,-1.515853167E0,-1.342971683E0,1.334297776E0
2.615336943E0,-8.431708813E-1,-1.927119493E0,-1.723131418E0
2.625051058E0,-1.606780410E0,-3.507279873E0,-4.294219494E0
2.634764287E0,-3.414258718E0,-4.917250633E0,-5.029414177E0
2.644476839E0,-3.972085476E0,-8.831609726E0,4.316053987E-1
2.654190173E0,-3.646661758E0,-1.366301727E1,4.654638290E0
2.663904235E0,-3.431008577E0,-1.722772408E1,4.647459984E0
2.673617568E0,-4.350450516E0,-1.998096657E1,-5.428716540E-1
2.683330016E0,-4.252345085E0,-2.277488518E1,-1.289163113E1
2.693043350E0,-3.306581736E0,-2.531008148E1,-1.086132145E1
2.702757464E0,-1.920240223E-1,-2.943052292E1,1.776670814E-1
2.712470693E0,4.565206528E0,-3.079024315E1,2.528914452E0
2.722183245E0,6.049654007E0,-3.023720169E1,-3.580859184E0
2.731896579E0,2.736192703E0,-2.932284546E1,-3.789333820E0
2.741610641E0,-2.374876440E-1,-2.877219772E1,-6.505486369E-1
2.751323975E0,-1.961217284E0,-2.759911537E1,1.252642632E0
2.761036423E0,-4.295415878E0,-2.568126869E1,6.924230456E-1
2.770749756E0,-6.433403015E0,-2.344517517E1,-7.366902828E-1
2.780463870E0,-7.280761242E0,-2.158983994E1,-1.555633783E0
2.790177100E0,-6.239284992E0,-2.071107674E1,-1.703988791E0
2.799889600E0,-4.125525475E0,-2.039761734E1,-2.642573595E0
2.809602985E0,-1.985145450E0,-1.970549202E1,-3.279363394E0
2.819317048E0,-1.008275628E0,-1.821895218E1,-2.477169752E0
2.829030381E0,-1.149452209E0,-1.597328758E1,-1.351944804E0
2.838742829E0,-1.530210137E0,-1.346411419E1,-3.702892959E-1
2.848456162E0,-1.475175142E0,-1.095284653E1,-2.338984162E-1
2.858170277E0,-1.257428288E0,-8.585148811E0,-9.547362328E-1
2.867883506E0,-1.051346421E0,-6.590730667E0,-1.694417477E0
2.877596006E0,-7.163512707E-1,-5.060820103E0,-2.118246317E0
2.887309339E0,-2.303091735E-1,-3.370589733E0,-2.673680305E0
2.897023454E0,1.025922745E-1,-1.465005636E0,-4.232006073E0
2.906736683E0,2.602194622E-2,6.490531564E-1,-5.553741455E0
2.916449183E0,-4.001995921E-1,2.468495607E0,-5.776273727E0
2.926162568E0,4.277170449E-2,3.009572744E0,-5.058127880E0
2.935876631E0,1.005284667E0,2.236391783E0,-3.360719442E0
2.945589964E0,4.184448719E-1,1.065703392E0,-1.339980721E0
2.955302412E0,-1.132702470E0,1.654038578E-1,-2.434697002E-1
2.965015745E0,-1.420140266E0,-6.942176819E-1,-1.615155302E-2
2.974729808E0,-6.059823632E-1,-1.421934843E0,2.808575630E-1
2.984443141E0,6.508477330E-1,-1.756929994E0,5.823532343E-1
2.994155589E0,1.534098387E0,-1.536790371E0,5.009972453E-1
3.003868923E0,1.435992718E0,-9.478568435E-1,1.609173268E-1
3.013583037E0,9.810572863E-1,-5.048855543E-1,-2.333002165E-2
3.023296266E0,8.757730722E-1,-1.483550072E-1,-9.990034252E-2
3.033008766E0,8.303094506E-1,2.422732860E-2,-4.423730969E-1
3.042722100E0,9.140582681E-1,-1.405783277E-2,-4.926223755E-1
3.052436214E0,1.239781260E0,-2.129612118E-1,-3.343969584E-1
3.062149443E0,1.392921925E0,-4.474578202E-1,-5.380859971E-1
3.071861943E0,1.167996526E0,-6.173482537E-1,-9.547362328E-1
3.081575329E0,6.269195080E-1,-7.588238716E-1,-1.198804140E0
3.091289391E0,2.102692872E-1,-9.550353289E-1,-1.366301775E0
3.101002620E0,1.432702541E-1,-1.266401410E0,-1.174875975E0
3.110715120E0,2.198405862E-1,-1.821835399E0,-1.406979680E0
3.120428506E0,6.879365072E-3,-2.681157827E0,-4.212863445E0
3.130142568E0,-1.130309582E0,-4.481457710E0,-4.859224796E0
3.139855798E0,-2.650649309E0,-5.994618893E0,-4.612763882E0
3.149568298E0,-4.611268520E0,-9.150154114E0,-7.007979155E-1
3.159281683E0,-5.269892693E0,-1.329422379E1,5.214858055E0
3.168995745E0,-4.623531342E0,-1.737847328E1,5.425725460E0
3.178708975E0,-3.536591768E0,-2.017717743E1,-3.801597059E-1
3.188421527E0,-5.174478889E-1,-2.353849602E1,-1.404556942E1
3.198134860E0,8.255237937E-1,-2.684956360E1,-1.262333584E1
3.207848923E0,1.213460207E0,-3.024916649E1,3.237488985E0
3.217562152E0,2.168794632E0,-3.068256569E1,9.138788223E0
3.227274704E0,4.351946115E-1,-2.760150909E1,7.091727853E-1
3.236988037E0,-3.069692373E0,-2.524547577E1,-3.880260944E0
3.246702100E0,-5.312963486E0,-2.556162643E1,-2.757428885E0
3.256415329E0,-6.114858150E0,-2.680649376E1,1.752742529E-1
3.266127881E0,-5.933003902E0,-2.656242561E1,3.526422381E-1
3.275841214E0,-5.533103466E0,-2.536302185E1,-6.385845542E-1
3.285555277E0,-3.931407690E0,-2.410589409E1,-1.249053478E0
3.295268506E0,-9.269196987E-1,-2.304288292E1,-1.055234790E0
3.304981006E0,1.900499344E0,-2.172383881E1,-9.185447693E-1
3.314694391E0,3.545265913E0,-1.988286018E1,-6.074778438E-1
3.324408454E0,2.755335331E0,-1.722293854E1,-3.032902777E-1
3.334121683E0,4.450650215E-1,-1.398126316E1,-5.443671346E-2
3.343834183E0,-1.757528186E0,-1.076381397E1,-2.793620527E-1
3.353547568E0,-2.938086987E0,-7.876275063E0,-5.285146832E-1
3.363261631E0,-2.935694218E0,-5.463113308E0,-6.481558084E-1
3.372974860E0,-2.416152716E0,-3.365804195E0,-1.265803218E0
3.382687360E0,-1.776670814E0,-1.575075507E0,-2.477169752E0
3.392400693E0,-1.668993831E0,2.691925503E-3,-3.609572887E0
3.402114808E0,-2.317747831E0,1.441376567E0,-4.304089546E0
3.411828037E0,-3.220440149E0,2.602493763E0,-4.636692047E0
3.421540537E0,-3.332902908E0,2.959323406E0,-4.196113586E0
3.431253870E0,-1.820040703E0,2.296212435E0,-3.168994427E0
3.440967985E0,-1.752742529E-1,1.319342613E0,-2.469991207E0
3.450681214E0,7.417750359E-1,2.132603228E-1,-2.072782516E0
3.460393714E0,1.368993640E0,-9.765707254E-1,-1.823629975E0
3.470107048E0,2.135295153E0,-2.077867270E0,-2.161317110E0
3.479821110E0,2.946761131E0,-2.968595505E0,-2.644966364E0
3.489534339E0,3.382553816E0,-3.490530014E0,-2.501097918E0
3.499246839E0,3.365804195E0,-3.535993576E0,-1.368694544E0
3.508960225E0,3.162115097E0,-3.131307602E0,1.202393398E-1
3.518674287E0,2.652144909E0,-2.374876499E0,1.202393413E0
3.528387516E0,2.070389748E0,-1.527219057E0,1.681257010E0
3.538100016E0,1.613360643E0,-5.623133183E-1,1.705185294E0
3.547813350E0,1.258923769E0,5.102694035E-1,1.583151340E0
3.557527464E0,8.111668825E-1,1.324128270E0,1.889731646E0
3.567240693E0,-1.944168359E-1,1.987239242E0,1.920838356E0
3.576953193E0,-1.322034478E0,2.217249393E0,1.492223978E0
3.586666527E0,-2.214856386E0,1.762313843E0,7.956135273E-1
3.596380589E0,-2.612364054E0,8.261220455E-1,-7.342974544E-1
3.606093923E0,-2.533401012E0,-3.445664644E-1,-5.745167255E0
3.615806318E0,-2.923431158E0,-2.190330029E0,-9.549455643E0
3.625519704E0,-2.983550787E0,-5.087141037E0,-8.306982994E0
3.635233766E0,-2.983550787E0,-9.825228691E0,9.391828626E-2
3.644946995E0,-3.189333439E0,-1.336361504E1,5.035396099E0
3.654659495E0,-1.700100541E0,-1.600678635E1,4.649852753E0
3.664372829E0,-5.700899959E-1,-1.816870308E1,-1.775773525E0
3.674086891E0,-1.001097202E0,-2.036172485E1,-1.052154064E1
3.683800225E0,-1.573280931E0,-2.203998947E1,-6.221638203E0
3.693512673E0,-4.336991161E-2,-2.536780930E1,3.749852180E0
3.703226006E0,1.474277854E0,-2.601177597E1,5.765506268E0
3.712940068E0,9.068797827E-1,-2.449382973E1,1.633101404E-1
3.722653298E0,-3.256332397E0,-2.331357002E1,-1.043270707E0
3.732365798E0,-6.033502102E0,-2.341646194E1,-1.596311808E0
3.742079131E0,-5.736792088E0,-2.499662209E1,-2.479562521E0
3.751793193E0,-4.068097591E0,-2.671077919E1,-2.891427040E0
3.761506527E0,-3.019443035E0,-2.789103889E1,-2.154138565E0
3.771218923E0,-2.033001900E0,-2.775225639E1,-1.543669701E0
3.780932308E0,-6.634100676E-1,-2.679692078E1,-2.022234201E0
3.790646370E0,1.153639674E0,-2.568366051E1,-2.479562521E0
3.800359600E0,2.120938063E0,-2.467568398E1,-2.225923300E0
3.810072100E0,1.000499010E0,-2.299263191E1,-2.300100803E0
3.819785433E0,-1.302891970E0,-2.037368774E1,-2.264208317E0
3.829499495E0,-2.542972326E0,-1.733061600E1,-1.904985905E0
3.839212725E0,-2.758326292E0,-1.428305721E1,-1.339980721E0
3.848925225E0,-1.930110574E0,-1.166142082E1,-7.342974544E-1
3.858638558E0,-8.838488460E-1,-9.207581520E0,-5.787639618E-1
3.868352673E0,-2.111666054E-1,-6.859025955E0,-8.778668046E-1
3.878065902E0,4.450650215E-1,-4.737788677E0,-1.227517962E0
3.887778402E0,6.699903607E-1,-2.834298372E0,-1.687239051E0
3.897491735E0,5.264210105E-1,-9.789635539E-1,-2.589632273E0
3.907205798E0,1.408774406E-1,8.500502706E-1,-3.497110367E0
3.916919027E0,-5.581258535E-1,2.356033087E0,-3.782155275E0
3.926631527E0,-7.857431173E-1,3.011965513E0,-2.905783892E0
3.936344860E0,-3.236292601E-1,2.384746790E0,-1.354337573E0
3.946058923E0,-1.345962733E-1,1.388734460E0,-3.415754437E-1
3.955772152E0,-6.203392744E-1,5.246263742E-1,3.526422381E-1
3.965484652E0,-1.439282775E0,-2.273181528E-1,9.607182741E-1
3.975197985E0,-1.899003863E0,-7.372884750E-1,8.338986635E-1
3.984912048E0,-1.664208174E0,-9.406784177E-1,-7.118647546E-2
3.994625277E0,-8.958129883E-1,-1.033998489E0,-1.328016520E0
4.004337777E0,1.336989701E-1,-1.292722464E0,-2.443670034E0
4.014051110E0,1.187139153E0,-1.565504193E0,-2.812463999E0
4.023765225E0,2.164009094E0,-1.687538147E0,-2.302493572E0
4.033478454E0,2.877369165E0,-1.783550143E0,-1.502991676E0
4.043190954E0,3.071187973E0,-1.651645780E0,-9.595218897E-1
4.052904287E0,2.659323215E0,-1.342971683E0,-6.792625189E-1
4.062618350E0,1.960319996E0,-1.038784146E0,-3.921238184E-1
4.072331579E0,1.012463093E0,-6.966105103E-1,-8.075776696E-2
4.082044079E0,-1.824527234E-1,-2.488535494E-1,3.885345757E-1
4.091757412E0,-1.262213945E0,1.342971772E-1,5.967101455E-1
4.101471475E0,-2.219642162E0,4.887340367E-1,2.425723970E-1
4.111184704E0,-2.858824968E0,7.567301393E-1,-4.830510616E-1
4.120897204E0,-2.973979473E0,7.232306600E-1,-1.182054400E0
4.130610537E0,-2.629113913E0,1.701895148E-1,-3.978366852E0
4.140324600E0,-3.040978432E0,-1.723430514E0,-5.809773445E0
4.150037829E0,-3.127120018E0,-4.184747696E0,-5.828916073E0
4.159750329E0,-2.107179403E0,-8.759824753E0,-1.028913736E0
4.169463662E0,-1.922932148E0,-1.379940796E1,3.402593851E0
4.179177725E0,-1.887039781E0,-1.891077614E1,1.906481385E0
4.188890954E0,-5.940182209E-1,-2.367279243E1,-1.790130496E0
4.198603454E0,2.510968208E0,-2.775704193E1,-9.235696793E0
4.208316787E0,4.414458752E0,-2.819044113E1,-7.940581799E0
4.218030850E0,4.651348114E0,-2.849193764E1,5.100002289E0
4.227744079E0,4.699204445E0,-2.727578545E1,1.062802124E1
4.237456579E0,2.240579367E0,-2.345713997E1,2.040479422E0
4.247169912E0,-3.766302824E0,-2.103679848E1,-3.332005501E0
4.256883975E0,-8.405985832E0,-2.111815453E1,-2.953640461E0
4.266597204E0,-9.696614265E0,-2.281556320E1,-1.272981644E0
4.276309704E0,-8.472985268E0,-2.445075989E1,-2.278565407E0
4.286023037E0,-5.585745335E0,-2.579373169E1,-2.688037157E0
4.295737100E0,-1.942074656E0,-2.625823784E1,-1.354337573E0
4.305450329E0,1.435992718E0,-2.583680153E1,-1.536491275E0
4.315162829E0,3.655335665E0,-2.489133835E1,-2.249851465E0
4.324876162E0,3.176471949E0,-2.324896431E1,-1.773380637E0
4.334590225E0,-7.926224917E-2,-2.062972069E1,-8.730811477E-1
4.344303454E0,-2.648256540E0,-1.752473450E1,-6.194419861E-1
4.354015954E0,-3.979264021E0,-1.435484219E1,-8.132606149E-1
4.363729287E0,-4.111168385E0,-1.149631596E1,-1.299302697E0
4.373443350E0,-3.610769272E0,-9.001500130E0,-1.792523265E0
4.383156579E0,-2.971586704E0,-7.105486870E0,-1.806880236E0
4.392869079E0,-2.171785593E0,-5.786443233E0,-1.701596022E0
4.402582412E0,-1.211665511E0,-4.680361271E0,-1.849951029E0
4.412296475E0,-4.911268353E-1,-3.384946823E0,-2.510669231E0
4.422009704E0,1.432702541E-1,-1.764407635E0,-3.149851799E0
4.431722204E0,3.370888829E-1,-1.292124242E-1,-3.406183004E0
4.441435537E0,4.232304990E-1,1.175773263E0,-3.449253798E0
4.451149600E0,8.542376757E-1,1.932204247E0,-3.137887716E0
4.460862829E0,1.424028635E0,1.846062660E0,-2.192423820E0
4.470575277E0,1.232602715E0,1.211665511E0,-9.257232547E-1
4.480288610E0,3.753740489E-1,5.318048596E-1,-3.176472187E-1
4.490002673E0,-5.724828243E-1,-3.798605874E-2,-6.098706722E-1
4.499715902E0,-9.675976634E-1,-6.293123364E-1,-1.306481123E0
4.509428402E0,-5.557330847E-1,-1.024427176E0,-1.799701691E0
4.519141735E0,2.820539773E-1,-1.208973646E0,-2.058425665E0
4.528855798E0,1.447956800E0,-1.414756417E0,-1.610668778E0
4.538569027E0,2.865405083E0,-1.594218135E0,-5.859424472E-1
4.548281527E0,3.614657640E0,-1.500898004E0,7.283154130E-1
4.557994860E0,3.437588930E0,-1.086640596E0,1.750648856E0
4.567708923E0,2.477468729E0,-4.067798555E-1,1.642971873E0
4.577422152E0,1.397707582E0,3.305086195E-1,8.410771489E-1
4.587134652E0,3.945166469E-1,7.088736892E-1,1.800599098E-1
4.596847985E0,-5.653043389E-1,7.543373108E-1,-1.956132501E-1
4.606562048E0,-1.456032634E0,4.573282301E-1,-2.578266263E-1
4.616275277E0,-2.056930065E0,-6.879365072E-3,-3.897309899E-1
4.625987725E0,-1.999502420E0,-5.168496966E-1,-3.897309899E-1
4.635701058E0,-1.712064624E0,-7.229315639E-1,-2.510669231E0
4.645415173E0,-2.365604401E0,-1.381256819E0,-6.690930367E0
4.655128350E0,-4.304986954E0,-2.403590441E0,-9.432208061E0
4.664840850E0,-4.958526611E0,-5.566004753E0,-7.471289635E0
4.674554183E0,-4.814957142E0,-1.081645584E1,2.694019079E0
4.684268245E0,-4.185346127E0,-1.473081398E1,6.438487530E0
4.693981475E0,-1.623530149E0,-1.732822418E1,3.388236761E0
4.703693975E0,8.805587292E-1,-2.043350983E1,-8.371588707E0
4.713407308E0,1.464706540E0,-2.417049980E1,-1.610698700E1
4.723121370E0,6.532405615E-1,-2.718246460E1,-3.363112211E0
4.732834600E0,1.395314693E0,-2.863311386E1,7.898707390E0
4.742547048E0,3.142972469E0,-2.631566429E1,2.715554714E0
4.752260381E0,5.359922647E-1,-2.437179565E1,-2.910569668E0
4.761974443E0,-3.160619497E0,-2.453450775E1,-2.067996979E0
4.771687673E0,-4.529912472E0,-2.630609322E1,-1.453639716E-1
4.781400173E0,-4.331307888E0,-2.755335236E1,4.818546474E-1
4.791113506E0,-4.326522350E0,-2.750788879E1,-1.764706671E-1
4.800827568E0,-4.628317356E0,-2.678017235E1,-1.031306505E0
4.810540798E0,-3.787838221E0,-2.601656151E1,-1.083948612E0
4.820253298E0,-2.040180445E0,-2.496312141E1,-1.237089276E0
4.829966527E0,-7.689933777E-1,-2.349542427E1,-1.261017561E0
4.839680693E0,-7.785646915E-1,-2.135983086E1,-1.473978758E0
4.849393870E0,-2.030609131E0,-1.871456528E1,-1.485942841E0
4.859106370E0,-3.230011463E0,-1.581536102E1,-1.103091240E0
4.868819704E0,-3.438187122E0,-1.298285770E1,-9.113663435E-1
4.878533766E0,-2.938086987E0,-1.052901745E1,-9.810572863E-1
4.888246995E0,-1.932503343E0,-8.707182884E0,-1.256231904E0
4.897959495E0,-7.331010103E-1,-7.167700291E0,-1.060020447E0
4.907672829E0,2.796611488E-1,-5.688038349E0,-1.194018483E0
4.917386891E0,1.318744421E0,-4.048357010E0,-1.926521301E0
4.927100068E0,2.357827663E0,-2.187937260E0,-3.046960592E0
4.936812568E0,2.575574398E0,-1.746760458E-1,-4.619942188E0
4.946525902E0,1.967498422E0,1.577767372E0,-5.637490273E0
4.956239964E0,7.992027402E-1,2.590529680E0,-5.283053398E0
4.965953193E0,-2.183450609E-1,2.238784790E0,-3.796512127E0
4.975665693E0,-1.891825438E0,8.500502706E-1,-1.948056698E0
4.985378923E0,-3.258725405E0,-2.841476910E-2,-1.141376376E0
4.995093037E0,-3.833301783E0,-5.718846321E-1,-1.363908887E0
5.004806266E0,-2.837289333E0,-1.223330617E0,-1.773380637E0
5.014518766E0,-7.067800164E-1,-1.896012783E0,-1.914557219E0
5.024232100E0,1.622931957E0,-2.099402666E0,-1.828415632E0
5.033946162E0,2.989831924E0,-2.049153566E0,-1.318445325E0
5.043659391E0,3.566801310E0,-1.943869352E0,-1.477568001E-1
5.053371839E0,3.585943937E0,-1.666002750E0,7.692924738E-1
5.063085173E0,3.262912750E0,-1.280758262E0,1.161715388E0
5.072799235E0,2.774477959E0,-8.066803217E-1,1.233500123E0
5.082512464E0,2.180758715E0,-1.698904037E-1,8.386843204E-1
5.092224964E0,9.690931439E-1,4.597210586E-1,3.885345757E-1
5.101938193E0,-7.713862062E-1,8.883354068E-1,-2.027917206E-1
5.111652308E0,-2.272284269E0,1.139880896E0,-6.194419861E-1
5.121365537E0,-3.031407118E0,1.316949725E0,-9.185447693E-1
5.131078037E0,-2.892324448E0,9.194421172E-1,-1.194018483E0
5.140791370E0,-2.188535452E0,2.183450572E-2,-1.220339537E0
5.150505433E0,-1.259821177E0,-8.401798606E-1,-1.162911773E0
5.160218610E0,-5.365904570E-1,-1.840977907E0,-3.365504980E0
5.169931110E0,-1.202094316E0,-3.811168194E0,-4.627120972E0
5.179644443E0,-2.743969440E0,-6.221937180E0,-4.694119930E0
5.189358506E0,-3.864408493E0,-9.806086540E0,-3.590430260E0
5.199071735E0,-4.556233406E0,-1.424237919E1,1.394118309E0
5.208784183E0,-4.278666019E0,-1.874088669E1,2.938086987E0
5.218497516E0,-1.683350682E0,-2.262892342E1,1.073180914E0
5.228211579E0,3.973880291E0,-2.465893555E1,-9.106484413E0
5.237924808E0,5.453242779E0,-2.529333115E1,-1.232423306E1
5.247637308E0,2.185544491E0,-2.719442940E1,-1.950449586E0
5.257350537E0,8.039883971E-1,-2.865704155E1,6.943672180E0
5.267064652E0,-3.068794906E-1,-2.754617500E1,1.341476202E0
5.276777881E0,-3.373580933E0,-2.600459862E1,-1.876272082E0
5.286490381E0,-6.787540436E0,-2.627977371E1,2.449652255E-1
5.296203714E0,-7.886444569E0,-2.654567528E1,2.018944025E0
5.305917777E0,-6.691827774E0,-2.581526566E1,1.595115423E0
5.315630954E0,-5.195715427E0,-2.484826660E1,2.521436810E-1
5.325343454E0,-3.615555048E0,-2.382114792E1,-6.640082598E-2
5.335056787E0,-1.968395710E0,-2.270310211E1,-6.337988973E-1
5.344770850E0,-9.532406926E-1,-2.130001068E1,-2.094317913E0
5.354484079E0,3.559323773E-2,-1.984936142E1,-2.833999395E0
5.364196527E0,5.234299600E-2,-1.838405609E1,-1.823629975E0
5.373909860E0,-3.643072546E-1,-1.644018745E1,-6.649056077E-1
5.383623923E0,-8.288139701E-1,-1.425195122E1,-2.219343036E-1
5.393337152E0,-8.790631890E-1,-1.188903809E1,-6.640082598E-2
5.403049600E0,-3.284149170E-1,-9.592825890E0,-1.238285750E-1
5.412762933E0,3.059822023E-1,-7.493422985E0,-2.482553422E-1
5.422476995E0,4.977070987E-1,-5.515755177E0,-6.122635007E-1
5.432190225E0,4.881358147E-1,-3.468994617E0,-1.335195065E0
5.441902673E0,1.432702541E-1,-1.228116274E0,-2.453241348E0
5.451616006E0,-6.323033571E-1,1.115952611E0,-3.690928936E0
5.461330068E0,-1.829612017E0,3.186641455E0,-4.136292934E0
5.471043298E0,-2.743969440E0,4.213760853E0,-3.818047523E0
5.480755745E0,-2.552543640E0,3.205784082E0,-2.659323215E0
5.490469079E0,-2.140678883E0,1.494018674E0,-1.476371527E0
5.500183141E0,-1.585245013E0,2.682952285E-1,-1.799701691E0
5.509896370E0,-8.647062778E-1,-5.407779217E-1,-2.802892685E0
5.519608818E0,2.030908167E-1,-1.472184181E0,-3.698107481E0
5.529322152E0,1.266102314E0,-2.283650160E0,-4.117150307E0
5.539036214E0,2.214258194E0,-2.932703257E0,-3.367897987E0
5.548749443E0,2.870190859E0,-3.356232882E0,-2.223530531E0
5.558461891E0,3.190829039E0,-3.349054337E0,-1.150947690E0
5.568175225E0,2.915654421E0,-2.954238653E0,-3.290131316E-2
5.577889287E0,2.341077805E0,-2.223829508E0,1.022931695E0
5.587602516E0,1.955534339E0,-1.213759303E0,2.119442701E0
5.597314964E0,1.426421404E0,-5.234299600E-2,2.921337366E0
5.607028298E0,5.742774606E-1,1.120738268E0,2.782553673E0
5.616742360E0,-7.642077208E-1,2.205285072E0,1.999801517E0
5.626455589E0,-2.100000858E0,2.784647465E0,1.499402523E0
5.636168037E0,-2.940479994E0,2.408675194E0,1.276570916E0
5.645881370E0,-3.215654612E0,1.527518153E0,9.702895880E-1
5.655595433E0,-2.432902336E0,4.983053207E-1,4.627120793E-1
5.665308610E0,-1.338784218E0,-5.264210105E-1,-4.383052826E0
5.675021110E0,-1.542174220E0,-2.587837696E0,-8.539086342E0
5.684734443E0,-1.915753603E0,-5.233402252E0,-9.678668022E0
5.694448506E0,-2.569293261E0,-1.056490993E1,-8.108677864E-1
5.704161683E0,-4.099204063E0,-1.539153290E1,4.891826630E0
5.713874183E0,-4.331307888E0,-1.909023857E1,2.909373283E0
5.723587516E0,-3.945764542E0,-2.288734818E1,-1.153340459E0
5.733301579E0,-1.506281853E0,-2.681845665E1,-1.530239964E1
5.743014756E0,1.471885085E0,-2.795803833E1,-1.304237938E1
5.752727256E0,2.424826622E0,-3.180300522E1,6.213263035E0
5.762440589E0,3.145365477E0,-3.114228821E1,9.885947227E0
5.772154600E0,5.527420044E-1,-2.621995163E1,6.708876491E-1
5.781867829E0,-4.750350952E0,-2.364138603E1,-1.601097465E0
5.791580329E0,-7.948657513E0,-2.377568436E1,-5.739783049E-1
5.801293558E0,-7.831409454E0,-2.500379944E1,3.933202326E-1
5.811007673E0,-5.837290764E0,-2.559751892E1,-4.280161560E-1
5.820720902E0,-4.065704823E0,-2.520718956E1,-1.354337573E0
5.830433402E0,-3.086441994E0,-2.431197548E1,-1.122233868E0
5.840146631E0,-1.247856975E0,-2.327767754E1,-1.086341500E0
5.849860745E0,1.318744421E0,-2.207109642E1,-1.395015597E0
5.859573975E0,2.604288340E0,-2.059861374E1,-1.598704576E0
5.869286423E0,1.625324726E0,-1.840559196E1,-1.272981644E0
5.878999756E0,3.798605874E-2,-1.558295822E1,-8.324031830E-1
5.888713818E0,-1.094417214E0,-1.253779221E1,-7.797610760E-1
5.898427048E0,-1.290927768E0,-9.717552185E0,-6.649056077E-1
5.908139495E0,-1.068096161E0,-7.239484787E0,-7.989036441E-1
5.917852829E0,-8.742775917E-1,-5.108676434E0,-1.184447169E0
5.927566891E0,-4.863412082E-1,-3.217449188E0,-1.680060625E0
5.937280068E0,-4.648058116E-1,-1.539183140E0,-2.443670034E0
5.946992568E0,-8.359923959E-1,2.467598319E-1,-3.458825111E0
5.956705902E0,-1.326820135E0,1.939382792E0,-4.450051785E0
5.966419912E0,-2.013859272E0,3.088535786E0,-4.782654285E0
5.976133141E0,-2.660220623E0,3.660719633E0,-4.584050179E0
5.985845641E0,-2.602792740E0,2.899502754E0,-3.528217077E0
5.995558870E0,-2.576471806E0,1.340878010E0,-1.653739572E0
6.005272985E0,-2.492722988E0,-1.411765367E-1,-5.596213937E-1
6.014986214E0,-1.846361756E0,-1.093819022E0,-5.620142221E-1
6.024698662E0,-5.676971674E-1,-1.737787485E0,-1.117448211E0
6.034411995E0,8.590233326E-1,-1.989332914E0,-1.464407444E0
6.044126058E0,2.254936218E0,-2.046760559E0,-1.284945726E0
6.053839287E0,3.016152859E0,-1.960619092E0,-8.228318691E-1
6.063551735E0,2.834298372E0,-1.701895118E0,-2.267199457E-1
6.073265068E0,2.278864384E0,-1.304686546E0,1.369891018E-1
6.082979131E0,1.699502230E0,-7.947162390E-1,-6.640082598E-2
6.092692308E0,1.206281662E0,-2.009970993E-1,-6.792625189E-1
6.102404808E0,6.675975323E-1,1.869392693E-1,-1.253839016E0
6.112118037E0,1.600200087E-1,2.994019389E-1,-1.423729420E0
6.121832152E0,-4.193421602E-1,2.443670183E-1,-1.050449133E0
6.131545381E0,-1.147059321E0,3.257229924E-1,-4.639084935E-1
6.141257881E0,-1.702493310E0,1.630110443E-1,9.631111473E-2
6.150971110E0,-1.735992789E0,-1.938186288E-1,-7.414759398E-1
6.160685225E0,-1.499103427E0,-9.933205247E-1,-2.788535595E0
6.170398454E0,-1.640279889E0,-2.410768747E0,-4.205684662E0
6.180110902E0,-1.314856052E0,-4.826323509E0,-3.140280724E0
6.189824235E0,-1.132702470E0,-8.857930183E0,1.228714466E0
6.199538298E0,-1.642672777E0,-1.285843086E1,2.792124987E0
6.209251475E0,-1.781456470E0,-1.699322891E1,1.848754644E0
6.218963975E0,-9.723833203E-1,-2.138615227E1,-3.365504980E0
6.228677308E0,6.101697683E-1,-2.615534592E1,-1.049282646E1
6.238391318E0,1.500598907E0,-2.881766129E1,-2.458027124E0
6.248104548E0,2.168794632E0,-3.101786041E1,5.219643593E0
6.257817048E0,3.509373426E0,-2.938745117E1,2.459522486E0
6.267530277E0,2.044068813E0,-2.773072052E1,-1.797308922E0
6.277244391E0,-1.048953652E0,-2.727339172E1,-3.207578659E0
6.286957620E0,-3.694518089E0,-2.778336334E1,-2.714358091E0
6.296670068E0,-6.390331745E0,-2.772832870E1,-1.429711580E-1
6.306383402E0,-8.221738815E0,-2.616731071E1,2.514557600E0
6.316097464E0,-8.140382767E0,-2.376371956E1,2.420938253E0
6.325810693E0,-6.581758022E0,-2.115165520E1,-6.912266612E-1
6.335523141E0,-4.525126934E0,-1.983021927E1,-3.023032188E0
6.345236475E0,-2.324926376E0,-1.932981873E1,-1.936092615E0
6.354950537E0,-6.948158741E-1,-1.897538185E1,4.172484577E-1
6.364663714E0,1.432702541E-1,-1.779751587E1,1.374975681E0
6.374376214E0,2.940180898E-1,-1.571695614E1,6.684948206E-1
6.384089548E0,4.755735025E-2,-1.332293701E1,-3.080759048E-1
6.393803558E0,1.166501082E-2,-1.109402275E1,-5.045864582E-1
6.403516787E0,5.359922647E-1,-9.145368576E0,-6.984050870E-1
6.413229235E0,1.270887971E0,-7.514958382E0,-1.134197950E0
6.422942568E0,1.546062589E0,-5.982655048E0,-1.596311808E0
6.432656631E0,1.156032443E0,-4.282853603E0,-2.280958176E0
6.442369808E0,-1.465603895E-2,-2.140080690E0,-3.480360508E0
6.452082308E0,-8.335995674E-1,1.677966863E-1,-4.488337040E0
6.461795641E0,-1.499103427E0,2.126022816E0,-4.301397800E0
6.471509652E0,-2.442473650E0,3.059821844E0,-3.049353361E0
6.481222881E0,-3.117548704E0,2.621636391E0,-1.241874933E0
6.490935381E0,-2.825325251E0,1.609173179E0,2.880360186E-1
6.500648610E0,-1.951645970E0,7.184450030E-1,1.875374764E-1
6.510362725E0,-9.293124676E-1,2.300100774E-1,-1.088734269E0
6.520075954E0,-1.585244983E-1,-1.531406492E-1,-2.216351986E0
6.529788402E0,4.208376706E-1,-5.479564071E-1,-2.402992249E0
6.539501735E0,6.053841114E-1,-8.258228898E-1,-1.814058661E0
6.549215798E0,3.705884218E-1,-1.057926655E0,-1.074377418E0
6.558928975E0,3.275175989E-1,-1.139282703E0,-4.926223755E-1
6.568641475E0,6.460621357E-1,-1.228116274E0,-2.099701911E-1
6.578354704E0,1.225424290E0,-1.357328653E0,-1.070788130E-1
6.588068818E0,1.517348647E0,-1.424327731E0,-2.027917206E-1
6.597782048E0,1.608574986E0,-1.436291814E0,-2.913261652E-1
6.607494495E0,1.495813251E0,-1.388435364E0,-2.572284266E-2
6.617207829E0,1.165603757E0,-1.153639674E0,7.477571070E-2
6.626921891E0,5.359922647E-1,-6.942176819E-1,-4.351946115E-1
6.636635068E0,-1.441675574E-1,-2.871387303E-1,-9.906286001E-1
6.646347568E0,-4.504488707E-1,-7.148557901E-2,-1.239482164E0
6.656060798E0,-6.227321029E-1,3.140579537E-2,-3.193221807E0
6.665774912E0,-1.341177106E0,-6.463612318E-1,-5.517848969E0
6.675488141E0,-2.387438774E0,-2.420340061E0,-5.955735683E0
6.685200589E0,-2.650649309E0,-5.503791332E0,-2.335993052E0
6.694913923E0,-3.297010422E0,-1.016979504E1,4.750650406E0
6.704627985E0,-3.859622955E0,-1.448884010E1,4.398606300E0
6.714341162E0,-2.950051308E0,-1.872174263E1,5.982056609E-4
6.724053662E0,4.833501875E-1,-2.343081856E1,-7.349255562E0
6.733766891E0,2.786442041E0,-2.739064026E1,-9.657133102E0
6.743481006E0,3.356232882E0,-2.886551666E1,-1.450050473E0
6.753194235E0,3.255734205E0,-3.026113129E1,5.571687698E0
6.762906683E0,1.682752490E0,-2.768047142E1,-4.040879309E-1
6.772620016E0,-3.139084101E0,-2.513779831E1,-3.370290756E0
6.782334079E0,-7.549056530E0,-2.446990204E1,-6.577271223E-1
6.792047256E0,-8.734101295E0,-2.475704002E1,2.856431901E-1
6.801759756E0,-8.164310455E0,-2.512104797E1,-4.112663865E-1
6.811473089E0,-7.036693096E0,-2.547309303E1,-1.318445325E0
6.821187100E0,-5.679065228E0,-2.576023102E1,-1.098305583E0
6.830900329E0,-3.316153049E0,-2.543720055E1,-8.491529226E-1
6.840612777E0,2.796611488E-1,-2.467807770E1,-4.256233275E-1
6.850326110E0,3.289233923E0,-2.301416779E1,1.250249892E-1
6.860040173E0,4.134199142E0,-2.044547272E1,5.751747489E-1
6.869753350E0,2.470290184E0,-1.743589973E1,8.338986635E-1
6.879465850E0,-5.700899959E-1,-1.438355637E1,6.302096844E-1
6.889179079E0,-3.072085142E0,-1.160638618E1,3.023929596E-1
6.898893193E0,-3.909872293E0,-9.099904060E0,3.409772366E-2
6.908606423E0,-3.375973701E0,-7.150950432E0,-4.902295470E-1
6.918318870E0,-2.013859272E0,-5.458327770E0,-7.558328509E-1
6.928032204E0,-6.514459848E-1,-4.014857292E0,-7.845467329E-1
6.937746266E0,2.964109182E-1,-2.614158630E0,-1.723131418E0
6.947459443E0,2.078764737E-1,-7.013961077E-1,-4.086043835E0
6.957171943E0,-5.796613097E-1,1.556231976E0,-6.238387585E0
6.966885173E0,-1.506281853E0,3.138785124E0,-7.023532867E0
6.976599287E0,-1.781456470E0,3.311367512E0,-5.924628735E0
6.986312516E0,-1.532602906E0,2.214856386E0,-3.013461113E0
6.996024964E0,-1.657029629E0,8.859425783E-1,-3.777668774E-1
7.005738298E0,-1.999502420E0,1.366899908E-1,-3.152543902E-1
7.015452360E0,-1.726421595E0,-5.288137794E-1,-1.048056364E0
7.025165537E0,-8.431708813E-1,-1.290329576E0,-1.665703654E0
7.034878037E0,4.594219327E-1,-2.013261080E0,-2.259422779E0
7.044591266E0,2.039283037E0,-2.774477959E0,-2.264208317E0
7.054305381E0,3.375375509E0,-3.322733402E0,-1.747059584E0
7.064018610E0,3.416053534E0,-3.160021305E0,-1.124626637E0
7.073731058E0,2.781656265E0,-2.384447813E0,-5.524429083E-1
7.083444391E0,2.491825581E0,-1.488933921E0,-8.973085321E-3
7.093158402E0,2.386541367E0,-5.168496966E-1,6.996015310E-1
7.102871631E0,1.955534339E0,3.089732230E-1,1.439581871E0
7.112584079E0,1.084247708E0,9.290133715E-1,1.532902002E0
7.122297412E0,1.600200087E-1,1.288235903E0,1.288534999E0
7.132011475E0,-7.450651526E-1,1.496411443E0,6.828517914E-1
7.141724652E0,-1.417747378E0,1.285843015E0,-2.482553422E-1
7.151437152E0,-1.661815286E0,4.190430641E-1,-4.016951025E-1
7.161150381E0,-1.341177106E0,-6.726822853E-1,-1.531705618E0
7.170864495E0,-9.891330600E-1,-2.283650160E0,-4.670191765E0
7.180577725E0,-1.827219248E0,-4.103391647E0,-6.003890991E0
7.190290173E0,-2.832503796E0,-7.136593342E0,-1.864308000E0
7.200003506E0,-3.809373617E0,-1.150349522E1,3.266202927E0
7.209717568E0,-4.144668102E0,-1.468056488E1,3.026920557E0
7.219430745E0,-3.435794115E0,-1.823570061E1,1.724327803E0
7.229143245E0,-2.581257343E0,-2.215484619E1,-4.335196495E0
7.238856475E0,-8.455637097E-1,-2.593999290E1,-1.100967598E1
7.248570589E0,1.941177368E0,-2.725185776E1,-4.069293976E0
7.258283818E0,2.829512835E0,-2.908804893E1,6.407381058E0
7.267996266E0,7.920243144E-1,-2.756531715E1,4.391427994E0
7.277709600E0,-3.574877024E0,-2.503730011E1,-2.249851465E0
7.287423610E0,-6.813861370E0,-2.442683029E1,-3.528217077E0
7.297136839E0,-6.682256222E0,-2.566930389E1,-2.721536636E0
7.306849287E0,-5.044668198E0,-2.658156776E1,-2.603989124E0
7.316562620E0,-3.981656790E0,-2.672035217E1,-3.101995468E0
7.326276683E0,-3.186940670E0,-2.620320320E1,-2.920140982E0
7.335989860E0,-1.597209096E0,-2.546352196E1,-1.881057739E0
7.345702360E0,6.963114142E-1,-2.440290260E1,-9.834501147E-1
7.355415589E0,3.011367321E0,-2.288734818E1,-4.782654345E-1
7.365129704E0,3.016152859E0,-2.069672012E1,-4.187439568E-3
7.374842933E0,9.116654396E-1,-1.759891129E1,4.746761918E-1
7.384555381E0,-5.653043389E-1,-1.444576931E1,5.679962635E-1
7.394268714E0,-1.221236825E0,-1.142931747E1,4.292125702E-1
7.403982725E0,-1.757528186E0,-8.817252159E0,2.688934505E-1
7.413695954E0,-1.956431627E0,-6.588337898E0,-1.645065546E-1
7.423408454E0,-1.839183331E0,-4.601397991E0,-1.014556766E0
7.433121683E0,-1.470389485E0,-2.841476917E0,-1.775773525E0
7.442835798E0,-1.384247899E0,-1.252044439E0,-2.434098721E0
7.452548975E0,-1.834397674E0,6.490531564E-2,-2.836392164E0
7.462261475E0,-2.231606245E0,1.223629713E0,-3.276970625E0
7.471974704E0,-2.080858469E0,1.831705689E0,-3.652643681E0
7.481688818E0,-1.113559842E0,1.752742529E0,-3.446861029E0
7.491402048E0,-3.619144112E-2,1.084846020E0,-2.438884497E0
7.501114495E0,4.689932466E-1,1.701895148E-1,-1.660917997E0
7.510827829E0,1.743769497E-1,-6.655037999E-1,-1.648953915E0
7.520541839E0,8.344969153E-2,-1.500898004E0,-1.936092615E0
7.530255068E0,9.499505758E-1,-2.298007011E0,-2.007877350E0
7.539967516E0,2.140080690E0,-2.685943365E0,-1.502991676E0
7.549680850E0,3.277269602E0,-2.740978241E0,-9.643075466E-1
7.559394912E0,3.696013689E0,-2.547159672E0,-7.558328509E-1
7.569108089E0,3.779762506E0,-1.939083695E0,-4.088735580E-1
7.578820589E0,3.624228954E0,-1.122532964E0,-1.094716340E-1
7.588533818E0,2.908475876E0,-4.211367965E-1,2.569293380E-1
7.598247933E0,1.649253011E0,2.132603228E-1,6.397809386E-1
7.607961162E0,1.384846121E-1,5.940182209E-1,6.158527136E-1
7.617673610E0,-1.020239711E0,8.476574421E-1,1.585244983E-1
7.627386943E0,-1.599601984E0,9.098708034E-1,-2.865405083E-1
7.637100954E0,-1.922932148E0,8.931210637E-1,-5.811567903E-1
7.646814183E0,-1.966002941E0,7.088736892E-1,-6.672984362E-1
7.656526631E0,-1.743171334E0,2.874378264E-1,-2.195414752E-1
7.666239964E0,-1.429711580E0,-1.698904037E-1,-1.131805062E0
7.675954027E0,-1.824826360E0,-7.636095285E-1,-3.940081596E0
7.685667204E0,-3.718446493E0,-1.709073544E0,-6.465705872E0
7.695379652E0,-5.695815086E0,-3.823132277E0,-7.629215717E0
7.705092985E0,-5.509174824E0,-9.174081802E0,-2.757428885E0
7.714807048E0,-4.922634602E0,-1.499163246E1,1.252642632E0
7.724520225E0,-4.051048756E0,-2.022742653E1,-1.778166294E0
7.734232725E0,-5.270192027E-1,-2.541566467E1,-4.255934238E0
7.743945954E0,3.382553816E0,-3.058206749E1,-4.395017147E0
7.753660068E0,5.431707382E0,-3.119732285E1,-2.652144909E0
7.763373298E0,5.618646622E0,-3.057010460E1,3.316452265E0
7.773085745E0,2.961117983E0,-2.819283485E1,3.467200041E0
7.782799079E0,-1.855933070E0,-2.531486702E1,1.077966571E0
7.792513089E0,-7.029514790E0,-2.385943222E1,1.734796353E-2
7.802226318E0,-1.016082191E1,-2.367040062E1,-1.014556766E0
7.811938766E0,-1.106351471E1,-2.452732849E1,-1.014556766E0
7.821652100E0,-9.181859016E0,-2.562384033E1,-9.906286001E-1
7.831366162E0,-5.564209938E0,-2.675624275E1,-1.280160069E0
7.841079339E0,-1.930110574E0,-2.699313354E1,-1.138983607E0
7.850791787E0,1.239781260E0,-2.602134895E1,-7.271189690E-1
7.860505120E0,2.994617462E0,-2.383311081E1,-6.936194897E-1
7.870219183E0,2.314756870E0,-2.077807617E1,-8.443672657E-1
7.879932360E0,1.624128371E-1,-1.752473450E1,-6.984050870E-1
7.889644860E0,-1.884646893E0,-1.419213009E1,-6.984050870E-1
7.899358089E0,-2.918645382E0,-1.102463150E1,-1.093519926E0
7.909072204E0,-2.550150633E0,-8.324031830E0,-1.148554921E0
7.918785381E0,-1.322034478E0,-6.078367710E0,-1.232303619E0
7.928497881E0,2.093719784E-3,-4.414458752E0,-1.629811287E0
7.938211110E0,7.800601721E-1,-2.978166819E0,-2.326421738E0
7.947925225E0,8.638089895E-1,-1.515254974E0,-3.604787350E0
7.957638454E0,4.594219327E-1,2.754737139E-1,-5.113162994E0
7.967350902E0,-5.341976285E-1,1.869990945E0,-6.001498222E0
7.977064235E0,-1.659422517E0,3.102892876E0,-6.034997940E0
7.986778245E0,-2.095215321E0,3.045464993E0,-5.082056046E0
7.996491475E0,-1.680957913E0,1.625923038E0,-2.965604544E0
8.006203923E0,-1.499103427E0,2.371885478E-1,-8.252246976E-1
8.015917256E0,-1.343569875E0,-9.741778970E-1,-4.187439568E-3
8.025631266E0,-4.983053207E-1,-1.903191328E0,-3.391826153E-1
8.035344495E0,9.427721500E-1,-2.391626120E0,-9.667003751E-1
8.045056943E0,2.314756870E0,-2.556730986E0,-1.261017561E0
8.054770277E0,3.480659723E0,-2.652443886E0,-1.222732425E0
8.064484287E0,4.074378967E0,-2.614158630E0,-5.165506005E-1
8.074197516E0,4.052843571E0,-2.183151484E0,6.517450809E-1
8.083909964E0,3.892524242E0,-1.433898926E0,1.566401482E0
8.093623298E0,3.758227110E0,-5.264210105E-1,1.928016901E0
8.103337360E0,3.418446302E0,2.347957194E-1,1.657328725E0
8.113050537E0,2.594717026E0,8.859425783E-1,1.061216831E0
8.122762985E0,7.298108935E-1,1.271486163E0,5.751747489E-1
8.132476318E0,-1.264606714E0,1.604088426E0,3.382852972E-1
8.142190381E0,-3.031407118E0,1.494018674E0,-1.597209126E-1
8.151903558E0,-4.031906128E0,1.072881818E0,-1.160519004E0
8.161616006E0,-4.398307323E0,3.089732230E-1,-2.058425665E0
8.171329339E0,-4.173381805E0,-5.958128572E-1,-3.930510283E0
8.181043402E0,-3.998406649E0,-2.037189484E0,-6.801000118E0
8.190756579E0,-4.369593143E0,-3.648456335E0,-7.983652592E0
8.200469079E0,-4.103990078E0,-6.145366669E0,-6.757929325E0
8.210182308E0,-3.857230186E0,-1.071326542E1,7.307082415E-1
8.219896423E0,-4.000799656E0,-1.519980717E1,3.977170229E0
8.229609600E0,-4.060919285E0,-1.912852287E1,3.546163082E0
8.239322100E0,-3.000300407E0,-2.310060883E1,-6.676573277E0
8.249035329E0,1.445564032E0,-2.566930389E1,-1.554198170E1
8.258749443E0,4.155734539E0,-2.881526756E1,-2.254637241E0
8.268462620E0,5.024927616E0,-3.199682426E1,9.998409271E0
8.278175120E0,7.052545547E0,-3.055813980E1,6.603592396E0
8.287888350E0,3.327518940E0,-2.762543678E1,-3.391826153E-1
8.297602464E0,-2.928216696E0,-2.631087875E1,-5.117649436E-1
8.307315641E0,-6.545865536E0,-2.628455925E1,2.464308262E0
8.317028141E0,-7.474878788E0,-2.591367149E1,3.809672832E0
8.326741370E0,-7.771588802E0,-2.489373016E1,1.142572761E0
8.336455485E0,-7.043871880E0,-2.428326225E1,-2.005484581E0
8.346168714E0,-5.554638863E0,-2.380679131E1,-2.671287298E0
8.355881162E0,-3.397509098E0,-2.329681969E1,-3.305684566E0
8.365594391E0,-9.484550953E-1,-2.250658989E1,-3.348755360E0
8.375308506E0,9.092726111E-1,-2.097697830E1,-2.589632273E0
8.385021683E0,1.065105200E0,-1.863320923E1,-2.067996979E0
8.394734183E0,-4.935196638E-1,-1.583928967E1,-1.955235243E0
8.404447412E0,-2.183749676E0,-1.239153099E1,-1.780559182E0
8.414161527E0,-2.650649309E0,-9.358329773E0,-1.330409408E0
8.423874704E0,-2.253141642E0,-6.861418724E0,-5.333003402E-1
8.433587204E0,-1.661815286E0,-4.668396950E0,-5.404788256E-1
8.443300433E0,-9.580263495E-1,-2.501696110E0,-9.403793216E-1
8.453014548E0,-3.834498227E-1,-4.283152521E-1,-1.888236165E0
8.462727725E0,2.988037169E-1,1.405484200E0,-3.461217880E0
8.472440225E0,8.757730722E-1,2.904288530E0,-4.548157692E0
8.482153454E0,1.407278776E0,3.026322365E0,-4.423730850E0
8.491867568E0,9.595218897E-1,1.565803289E0,-3.104388237E0
8.501580745E0,-4.839483798E-1,-1.339980662E-1,-1.411765337E0
8.511293245E0,-1.180558920E0,-1.029212832E0,-1.074377418E0
8.521006475E0,-1.068096161E0,-1.699502230E0,-1.723131418E0
8.530720589E0,-6.418746710E-1,-1.922333837E0,-2.438884497E0
8.540433766E0,-9.122636169E-2,-1.881655931E0,-2.371885538E0
8.550146266E0,5.982056856E-1,-1.860120535E0,-1.304088354E0
8.559859495E0,1.285244823E0,-1.718644857E0,-3.511467278E-1
8.569573610E0,2.149652004E0,-1.362114310E0,-1.692921966E-1
8.579286787E0,2.910868645E0,-9.957132936E-1,-2.147558331E-1
8.588999235E0,3.368196964E0,-7.181459069E-1,1.016949583E-2
8.598712568E0,3.332304716E0,-5.814558864E-1,2.760719061E-1
8.608426631E0,2.398505688E0,-4.187439680E-1,3.646063507E-1
8.618139808E0,1.096211910E0,-1.651047617E-1,4.914259613E-1
8.627852256E0,-1.441675574E-1,8.883354068E-2,6.134598851E-1
8.637565589E0,-1.240379453E0,3.424727321E-1,4.866403043E-1
8.647279652E0,-1.757528186E0,5.006981492E-1,5.084748194E-2
8.656992829E0,-1.530210137E0,3.257229924E-1,-4.160520434E-1
8.666705277E0,-1.008275628E0,-1.746760458E-1,-9.209375978E-1
8.676418610E0,-4.959124923E-1,-7.348956466E-1,-1.974377751E0
8.686132620E0,-3.284149170E-1,-1.527219057E0,-6.319743633E0
8.695845850E0,-1.829612017E0,-3.339483023E0,-8.079365730E0
8.705558298E0,-3.814159393E0,-5.621039391E0,-5.125126839E0
8.715271631E0,-4.824528694E0,-9.092725754E0,1.161715388E0
8.724985641E0,-5.265107155E0,-1.214985561E1,4.319643021E0
8.734698870E0,-4.676173687E0,-1.530539131E1,2.631805897E0
8.744411318E0,-3.742374659E0,-1.813041687E1,-2.419741869E0
8.754124652E0,-7.809575200E-1,-2.204956245E1,-1.265205002E1
8.763838662E0,-2.877369225E-1,-2.543241501E1,-8.187042236E0
8.773551891E0,1.790429592E0,-2.983520889E1,1.425225019E0
8.783264339E0,4.725525856E0,-3.070170975E1,6.072086334E0
8.792977568E0,4.428815842E0,-2.803221703E1,3.981058598E-1
8.802691683E0,-1.920240223E-1,-2.528136826E1,-9.379864931E-1
8.812404860E0,-5.011168957E0,-2.419203568E1,-8.300103545E-1
8.822117360E0,-7.458128929E0,-2.412742805E1,-2.769692242E-1
8.831830589E0,-7.762017727E0,-2.443400955E1,-4.328017831E-1
8.841544704E0,-7.225726128E0,-2.465893555E1,-1.490728498E0
8.851257881E0,-6.368796349E0,-2.458236504E1,-1.787737608E0
8.860970381E0,-4.582554340E0,-2.389053917E1,-1.220339537E0
8.870683610E0,-2.123929262E0,-2.276770782E1,-1.414158225E0
8.880397725E0,-5.796613097E-1,-2.172383881E1,-1.945663929E0
8.890110902E0,-9.628120065E-1,-2.014607048E1,-1.804487348E0
8.899823350E0,-2.253141642E0,-1.808734703E1,-9.329017401E-1
8.909536683E0,-2.918645382E0,-1.603310776E1,2.452643216E-2
8.919250693E0,-2.317747831E0,-1.385683632E1,5.656034350E-1
8.928963923E0,-1.247856975E0,-1.159681511E1,3.885345757E-1
8.938676370E0,-6.705885530E-1,-9.250652313E0,1.016949583E-2
8.948389704E0,-4.217349887E-1,-6.890132904E0,-5.380859971E-1
8.958103714E0,-2.901297510E-1,-4.773681164E0,-1.277767301E0
8.967816943E0,-4.265206456E-1,-2.817548752E0,-1.962413669E0
8.977529391E0,-5.054838061E-1,-9.143573642E-1,-3.355933666E0
8.987242620E0,-1.752742529E-1,1.103988528E0,-5.122734070E0
8.996956735E0,1.863410622E-1,3.117249727E0,-6.051747799E0
9.006669912E0,5.623133183E-1,4.165904045E0,-5.824130535E0
9.016382412E0,1.141675472E0,3.399901867E0,-3.978366852E0
9.026095641E0,6.963114142E-1,1.795813441E0,-1.347159147E0
9.035809756E0,-8.048857450E-1,4.935196638E-1,1.106680483E-1
9.045522933E0,-2.428116798E0,-2.368894368E-1,-2.626122832E-1
9.055235381E0,-2.574079037E0,-8.306085467E-1,-1.299302697E0
9.064948714E0,-1.432104349E0,-1.369292736E0,-2.359921217E0
9.074662725E0,3.705884218E-1,-1.867298961E0,-2.822035313E0
9.084375954E0,2.187937260E0,-2.358126640E0,-2.479562521E0
9.094088402E0,3.473481178E0,-2.724228621E0,-1.641775489E0
9.103801735E0,4.129413605E0,-2.800798893E0,-6.026921868E-1
9.113515745E0,4.014558315E0,-2.329412937E0,2.832503915E-1
9.123228975E0,3.463909864E0,-1.651645780E0,9.535398483E-1
9.132941423E0,2.609073877E0,-1.000499010E0,1.302891970E0
9.142654652E0,1.512562990E0,-3.206382394E-1,8.410771489E-1
9.152368766E0,2.365903407E-1,1.965105534E-1,-6.879365444E-2
9.162081943E0,-1.374676585E0,6.634100676E-1,-1.028913736E0
9.171794443E0,-2.851646423E0,9.122636318E-1,-1.392622828E0
9.181507673E0,-3.809373617E0,7.758727670E-1,-1.143769264E0
9.191221735E0,-3.988835335E0,3.831507266E-1,-1.694417477E0
9.200934964E0,-3.622733593E0,-5.120640397E-1,-4.174578190E0
9.210647412E0,-3.924229145E0,-2.190330029E0,-5.601597786E0
9.220360745E0,-4.537090778E0,-4.716253281E0,-4.383052826E0
9.230074756E0,-3.835694790E0,-9.410971642E0,-6.960122585E-1
9.239787985E0,-3.438187122E0,-1.445055485E1,1.302891970E0
9.249500433E0,-3.218047380E0,-1.912613106E1,1.499402523E0
9.259213662E0,-2.186142683E0,-2.361028099E1,-2.434697002E-1
9.268927777E0,5.599204898E-1,-2.668445969E1,-7.303792000E0
9.278640954E0,3.001796007E0,-2.756292343E1,-5.687739372E0
9.288353402E0,3.243770123E0,-2.898755074E1,4.362713814E0
9.298066735E0,1.517348647E0,-2.829572678E1,4.472783566E0
9.307780745E0,-1.120738268E0,-2.589692116E1,-5.443671346E-2
9.317493975E0,-4.214059830E0,-2.552094841E1,-8.970093727E-1
9.327206423E0,-5.298606873E0,-2.615295410E1,-1.433300734E0
9.336919652E0,-4.599304199E0,-2.676820755E1,-2.235494614E0
9.346633766E0,-3.773481369E0,-2.693809891E1,-3.664607763E0
9.356346943E0,-3.213261604E0,-2.662463760E1,-3.511467218E0
9.366059443E0,-2.131107569E0,-2.573390961E1,-2.572882652E0
9.375772673E0,2.676970363E-1,-2.449622345E1,-1.907378793E0
9.385486787E0,2.231008053E0,-2.270549393E1,-1.692024708E0
9.395199964E0,1.969891191E0,-2.015803528E1,-1.167697430E0
9.404912412E0,-3.379862010E-1,-1.716311836E1,-6.361917257E-1
9.414625745E0,-2.190928221E0,-1.392144203E1,-3.367897868E-1
9.424339756E0,-3.086441994E0,-1.081884861E1,-2.027917206E-1
9.434052933E0,-3.230011463E0,-8.201997757E0,-5.189434290E-1
9.443765433E0,-3.060121059E0,-5.973083496E0,-9.643075466E-1
9.453478662E0,-2.720041037E0,-4.249353886E0,-1.016949654E0
9.463192777E0,-2.305783749E0,-2.805584431E0,-9.089735150E-1
9.472905954E0,-1.788634896E0,-1.560718536E0,-1.493121386E0
9.482618402E0,-1.422533035E0,-4.043870270E-1,-2.702394009E0
9.492331735E0,-1.242772222E0,8.380861282E-1,-3.676572084E0
9.502045745E0,-4.815555513E-1,1.913061738E0,-3.748655796E0
9.511758975E0,8.853443861E-1,2.183749676E0,-2.896212816E0
9.521471423E0,2.032104731E0,1.635494232E0,-1.625025630E0
9.531184652E0,2.087139606E0,6.466603279E-1,-5.620142221E-1
9.540898766E0,9.547362328E-1,-3.182454109E-1,-4.280161560E-1
9.550611943E0,-5.341976285E-1,-9.550353289E-1,-9.305089116E-1
9.560324391E0,-1.147059321E0,-1.474576950E0,-2.007877350E0
9.570037725E0,-7.331010103E-1,-2.006082773E0,-3.109174013E0
9.579751735E0,5.431707501E-1,-2.391626120E0,-3.707678795E0
9.589464964E0,2.159223318E0,-2.767299414E0,-3.042174816E0
9.599177412E0,3.313162088E0,-2.752942562E0,-1.553241014E0
9.608890641E0,4.019343853E0,-2.302792788E0,-2.817548811E-1
9.618604756E0,3.715156317E0,-1.536790371E0,2.401795685E-1
9.628317933E0,2.784049034E0,-5.910272002E-1,5.775675774E-1
9.638030381E0,1.536491275E0,2.539383173E-1,7.139584422E-1
9.647743714E0,-3.858426586E-2,9.266205430E-1,8.506484628E-1
9.657457725E0,-1.587637782E0,1.393520117E0,1.042074203E0
9.667170902E0,-2.775076151E0,1.541875124E0,9.415757060E-1
9.676883402E0,-3.510270834E0,1.436590910E0,3.287140131E-1
9.686596631E0,-3.816552162E0,9.720842242E-1,1.776670814E-1
9.696310693E0,-3.215654612E0,2.108674943E-1,-9.475577474E-1
9.706023923E0,-2.440080881E0,-9.047860503E-1,-4.114757538E0
9.715736370E0,-2.995514870E0,-2.638087034E0,-6.805785656E0
9.725449600E0,-3.301796198E0,-6.102295876E0,-5.922235966E0
9.735163714E0,-3.387937784E0,-1.155374432E1,-2.027917206E-1
9.744876891E0,-3.527020693E0,-1.674886131E1,1.736291885E0
9.754589339E0,-3.251546860E0,-2.118754768E1,3.813561201E-1
9.764302673E0,-2.904288530E0,-2.541805840E1,-8.041080475E0
9.774016683E0,-2.198106766E0,-2.769482803E1,-1.088524914E1
9.783729912E0,4.977070987E-1,-2.986392212E1,-2.477169752E0
9.793442360E0,2.386541367E0,-3.174797058E1,6.577271461E0
9.803155589E0,2.767299414E0,-2.921965408E1,2.464308262E0
9.812869704E0,-4.576273263E-1,-2.624866676E1,-8.659027219E-1
9.822582881E0,-4.541876316E0,-2.537259483E1,-8.180462122E-1
9.832295329E0,-6.895516872E0,-2.582962227E1,-1.392622828E0
9.842008662E0,-7.077371120E0,-2.618884468E1,-2.326421738E0
9.851722673E0,-6.277570248E0,-2.632762909E1,-3.149851799E0
9.861435850E0,-5.073382378E0,-2.592563438E1,-3.281756163E0
9.871148350E0,-3.100799084E0,-2.494158745E1,-2.458027124E0
9.880861579E0,-5.222335458E-1,-2.357438850E1,-1.507777333E0
9.890575641E0,1.699502230E0,-2.158744812E1,-6.314060688E-1
9.900288870E0,2.429612398E0,-1.923889160E1,-4.007977992E-2
9.910001318E0,8.111668825E-1,-1.623410606E1,1.947159469E-1
9.919714548E0,-1.230808139E0,-1.269571877E1,2.401795685E-1
9.929428662E0,-2.411366940E0,-9.432506561E0,-1.405783296E-1
9.939141839E0,-2.933301449E0,-6.540481567E0,-4.974080026E-1
9.948854287E0,-2.921038151E0,-3.926023722E0,-8.802596331E-1
9.958567516E0,-2.356033087E0,-1.706680775E0,-1.438086390E0
9.968281631E0,-1.724028707E0,1.630110443E-1,-2.414956331E0
9.977994808E0,-1.389033556E0,1.939382792E0,-3.968795538E0
9.987707256E0,-1.680957913E0,3.256033421E0,-4.775475979E0
9.997420589E0,-1.841576099E0,3.512364626E0,-4.282255173E0
1.000713460E1,-1.075274706E0,2.813361168E0,-3.408575773E0
1.001684783E1,-2.183450572E-2,1.592124343E0,-2.486740828E0
1.002656028E1,4.618147612E-1,5.916253924E-1,-1.435693622E0
1.003627351E1,6.771687865E-1,-4.211367965E-1,-6.529414654E-1
1.004598762E1,7.920243144E-1,-1.299900889E0,-2.650051117E-1
1.005570080E1,1.189531922E0,-2.106581211E0,-5.476573110E-1
1.006541324E1,1.859821439E0,-2.860619545E0,-1.000199914E0
1.007512648E1,2.508575439E0,-3.382553816E0,-1.452443361E0
1.008484059E1,2.858226538E0,-3.497708559E0,-1.814058661E0
1.009455377E1,3.104687452E0,-3.241377354E0,-1.845165372E0
1.010426621E1,3.174079180E0,-2.559123755E0,-1.646561027E0
1.011397955E1,3.370589733E0,-1.594218135E0,-1.127019525E0
1.012369356E1,3.121437073E0,-6.583253145E-1,-1.142572835E-1
1.013340674E1,2.563610315E0,1.319043487E-1,1.365404367E0
1.014311918E1,1.514955878E0,7.998009920E-1,2.524128675E0
1.015283252E1,-3.379862010E-2,1.594517231E0,2.801696301E0
1.016254653E1,-1.680957913E0,2.130808592E0,2.318047047E0
1.017225970E1,-2.827718258E0,2.245963097E0,1.430010676E0
1.018197220E1,-3.289832115E0,1.551446438E0,6.110670567E-1
1.019168543E1,-2.911466837E0,6.897311211E-1,-2.458625287E-1
1.020139950E1,-2.064108610E0,-7.851449251E-1,-3.724428415E0
1.021111273E1,-2.116750717E0,-2.520838737E0,-6.233602047E0
1.022082517E1,-3.739981890E0,-5.111069202E0,-5.678168297E0
1.023053840E1,-4.886742115E0,-9.772586823E0,5.751747489E-1
1.024025252E1,-5.387141228E0,-1.400519085E1,2.497807741E0
1.024996569E1,-5.281857014E0,-1.836730576E1,4.004986882E-1
1.025967814E1,-5.298606873E0,-2.343799782E1,-2.922533751E0
1.026939137E1,-9.317052960E-1,-2.882962418E1,-1.497697639E1
1.027910548E1,5.292923450E0,-3.196571732E1,-1.204875946E1
1.028881866E1,6.475576401E0,-3.717788315E1,5.217250824E0
1.029853111E1,5.321637630E0,-3.744588089E1,9.850054741E0
1.030824434E1,4.328017831E-1,-3.175275612E1,-1.100698471E0
1.031795845E1,-5.025525570E0,-2.801546669E1,-3.868296862E0
1.032767163E1,-8.094919205E0,-2.690938377E1,-1.002592683E0
1.033738408E1,-8.973383904E0,-2.604766846E1,1.497009635E0
1.034709741E1,-8.231309891E0,-2.475225449E1,4.100699723E-1
1.035681142E1,-6.691827774E0,-2.327528572E1,-1.478764415E0
1.036652460E1,-4.666602135E0,-2.216441727E1,-1.574776411E0
1.037623705E1,-2.564507723E0,-2.125933266E1,-1.019342422E0
1.038595038E1,-5.246263742E-1,-2.002882195E1,-8.706883192E-1
1.039566439E1,8.398807645E-1,-1.815913010E1,-8.443672657E-1
1.040537757E1,7.992027402E-1,-1.556381607E1,-7.055835724E-1
1.041509007E1,3.993022740E-1,-1.260957718E1,-7.414759398E-1
1.042480330E1,1.001994461E-1,-9.504291534E0,-8.587242365E-1
1.043451736E1,2.123630047E-2,-6.404090881E0,-7.989036441E-1
1.044423059E1,-3.786641955E-1,-3.586242914E0,-1.062413216E0
1.045394304E1,-9.963115454E-1,-1.266401410E0,-1.732702732E0
1.046365627E1,-1.609173179E0,7.088736892E-1,-2.664108992E0
1.047337033E1,-2.222034931E0,2.267498493E0,-3.410968781E0
1.048308356E1,-2.454437733E0,3.229712248E0,-3.494717360E0
1.049279601E1,-2.303390980E0,3.426223040E0,-3.159423113E0
1.050250924E1,-1.436890006E0,2.877967358E0,-2.558525562E0
1.051222330E1,-4.432703853E-1,1.793420553E0,-1.680060625E0
1.052193653E1,5.240281820E-1,3.687937856E-1,-1.067198873E0
1.053164898E1,1.309173107E0,-9.143573642E-1,-1.009771109E0
1.054136220E1,1.895713687E0,-1.994118571E0,-1.131805062E0
1.055107627E1,2.202294111E0,-2.815155745E0,-1.406979680E0
1.056078950E1,2.288435698E0,-3.332304716E0,-1.464407444E0
1.057050194E1,2.558824778E0,-3.629313707E0,-1.514955878E0
1.058021517E1,2.707478762E0,-3.296412230E0,-1.440479279E0
1.058992924E1,2.487040043E0,-2.489732027E0,-1.122233868E0
1.059964246E1,2.293221474E0,-1.386042476E0,-5.309075117E-1
1.060935491E1,1.974676847E0,-3.086741269E-1,-6.640082598E-2
1.061906814E1,1.421635747E0,5.533402562E-1,2.210369855E-1
1.062878220E1,5.000999570E-1,1.223629713E0,2.282154560E-1
1.063849543E1,-5.724828243E-1,1.645065546E0,1.130608693E-1
1.064820788E1,-1.281356573E0,1.735992789E0,3.649054468E-2
1.065792111E1,-1.542174220E0,1.448554993E0,1.465603858E-1
1.066763517E1,-1.759921074E0,8.285148144E-1,4.316053987E-1
1.067734840E1,-1.642672777E0,8.165507019E-2,1.947159469E-1
1.068706085E1,-1.319641709E0,-6.631109715E-1,-1.531705618E0
1.069677408E1,-1.355534077E0,-1.491326690E0,-5.115555763E0
1.070648814E1,-1.980359793E0,-2.772084951E0,-8.026723862E0
1.071620137E1,-2.801397085E0,-5.417649746E0,-8.160721779E0
1.072591382E1,-3.605983734E0,-1.026819992E1,-1.438086390E0
1.073562705E1,-4.453341961E0,-1.459891033E1,1.125823021E0
1.074534111E1,-4.297808647E0,-1.867388725E1,-1.476371527E0
1.075505434E1,-2.863610506E0,-2.386182594E1,-7.179365158E0
1.076476679E1,6.580262184E-1,-2.976073074E1,-1.093549824E1
1.077448002E1,5.994319916E0,-3.167379379E1,-3.638286829E0
1.078419408E1,7.782954693E0,-3.198485947E1,4.156930923E0
1.079390731E1,5.474778175E0,-3.099871826E1,5.758327484E0
1.080361976E1,1.744965911E0,-2.670838737E1,5.471189022E0
1.081333298E1,-3.816552162E0,-2.275095749E1,2.694019079E0
1.082304705E1,-8.078168869E0,-2.118754768E1,6.565307379E-1
1.083276023E1,-9.602995872E0,-2.204716873E1,4.962115884E-1
1.084247272E1,-9.433105469E0,-2.363660049E1,4.606183618E-2
1.085218595E1,-7.735696316E0,-2.448904419E1,-1.416550994E0
1.086190002E1,-4.678566456E0,-2.463739967E1,-2.824428082E0
1.087161324E1,-1.077667475E0,-2.482194519E1,-3.207578659E0
1.088132569E1,2.702693224E0,-2.435504532E1,-2.505883455E0
1.089103892E1,5.173282623E0,-2.274138641E1,-1.435693622E0
1.090075298E1,4.969892502E0,-2.054836464E1,-7.677969933E-1
1.091046616E1,1.797608018E0,-1.783101463E1,-2.745763958E-1
1.092017861E1,-1.101595759E0,-1.452233982E1,9.152546525E-2
1.092989194E1,-2.490330219E0,-1.140299606E1,-1.836491376E-1
1.093960595E1,-2.966800928E0,-8.506185532E0,-5.500500798E-1
1.094931913E1,-2.710469961E0,-5.872584820E0,-8.180462122E-1
1.095903158E1,-2.097608089E0,-3.430410385E0,-1.026520967E0
1.096874491E1,-1.209272742E0,-1.390828133E0,-1.383051515E0
1.097845892E1,-6.227321029E-1,3.520440459E-1,-1.802094579E0
1.098817210E1,-5.150550604E-1,2.051845312E0,-2.448455811E0
1.099788455E1,-7.833502889E-1,3.292224884E0,-3.387040377E0
1.100759778E1,-1.659422517E0,3.854837179E0,-4.188935280E0
1.101731189E1,-2.123929262E0,3.232105255E0,-4.078865528E0
1.102702507E1,-1.369890928E0,1.472483277E0,-2.936890602E0
1.103673752E1,-9.053842425E-1,-8.374879509E-2,-1.878664851E0
1.104645075E1,-9.125627279E-1,-1.208973646E0,-1.567597985E0
1.105616486E1,-7.737790346E-1,-1.867298961E0,-1.821237087E0
1.106587804E1,-3.858426511E-1,-2.245364904E0,-2.395813704E0
1.107559049E1,2.581257522E-1,-2.365305185E0,-2.587239504E0
1.108530371E1,1.325922847E0,-2.441875458E0,-2.099103689E0
1.109501778E1,2.458326101E0,-2.554338217E0,-1.253839016E0
1.110473101E1,3.238685369E0,-2.475374937E0,-2.817548811E-1
1.111444345E1,3.349054337E0,-2.044367790E0,2.090728730E-1
1.112415668E1,2.760120869E0,-1.431506157E0,3.813561201E-1
1.113387075E1,2.051247120E0,-6.846463680E-1,6.110670567E-1
1.114358392E1,1.234995604E0,1.342971772E-1,8.961120844E-1
1.115329637E1,1.552343667E-1,7.758727670E-1,1.058824062E0
1.116300970E1,-6.876373887E-1,1.290628672E0,9.487541914E-1
1.117272371E1,-1.237986565E0,1.503589988E0,4.172484577E-1
1.118243689E1,-1.518245935E0,1.472483277E0,-1.854437590E-2
1.119214934E1,-1.544566989E0,9.649057388E-1,-3.921238184E-1
1.120186257E1,-1.467996716E0,-1.890329868E-1,-3.056531906E0
1.121157668E1,-2.037787676E0,-2.245364904E0,-5.613562107E0
1.122128986E1,-3.277868032E0,-4.711467743E0,-6.867999077E0
1.123100231E1,-3.981656790E0,-9.351150513E0,-2.383849621E0
1.124071554E1,-3.929014683E0,-1.453669643E1,2.691626310E0
1.125042965E1,-2.645863533E0,-1.912852287E1,2.686840773E0
1.126014283E1,-8.359923959E-1,-2.328007126E1,-5.261218548E-1
1.126985528E1,9.810572863E-1,-2.717528725E1,-7.061817646E0
1.127956851E1,1.725823283E0,-2.838665390E1,-7.306184769E0
1.128928257E1,3.473481178E0,-2.963869858E1,-7.510471940E-1
1.129899580E1,2.491825581E0,-2.985913658E1,4.599603176E0
1.130870824E1,1.671984792E-1,-2.780968475E1,3.867100477E0
1.131842148E1,-2.609971285E0,-2.611227608E1,1.374975681E0
1.132813554E1,-5.621637821E0,-2.496790695E1,-2.070389748E0
1.133784871E1,-7.510771275E0,-2.521676064E1,-3.190829039E0
1.134756116E1,-8.331808090E0,-2.578894424E1,-2.755036116E0
1.135727450E1,-7.256833076E0,-2.572194672E1,-2.680858612E0
1.136698851E1,-4.688137531E0,-2.465414810E1,-2.893819809E0
1.137670168E1,-1.714457393E0,-2.304048920E1,-2.755036116E0
1.138641413E1,9.260223508E-1,-2.166401863E1,-1.895414591E0
1.139612736E1,2.312364101E0,-2.055554199E1,-4.184448719E-1
1.140584148E1,2.295614243E0,-1.795783424E1,9.726824164E-1
1.141555465E1,6.317051649E-1,-1.446730518E1,1.645364642E0
1.142526710E1,-1.072881818E0,-1.124716377E1,1.018146038E0
1.143498033E1,-2.135893345E0,-8.158926964E0,1.728814393E-1
1.144469439E1,-2.528615236E0,-5.333900928E0,-8.300103545E-1
1.145440762E1,-2.806182861E0,-2.944667339E0,-1.500598907E0
1.146412007E1,-2.990729094E0,-1.010070205E0,-1.802094579E0
1.147383330E1,-2.930908680E0,4.310071766E-1,-2.108675003E0
1.148354736E1,-2.966800928E0,1.501197100E0,-2.855534792E0
1.149326059E1,-2.212463617E0,1.970489502E0,-3.403790236E0
1.150297299E1,-6.394818425E-1,1.755135417E0,-3.473181963E0
1.151268632E1,1.357029557E0,7.663014531E-1,-3.212364435E0
1.152240033E1,2.855833769E0,-5.383850932E-1,-2.223530531E0
1.153211351E1,3.284448147E0,-1.491326690E0,-9.762716293E-1
1.154182595E1,2.819941521E0,-1.898405671E0,-5.883352757E-1
1.155153918E1,1.416850090E0,-1.663609982E0,-6.816553473E-1
1.156125330E1,4.755735025E-2,-1.252044439E0,-1.071984529E0
1.157096648E1,-5.844469070E-1,-1.081854939E0,-1.323230863E0
1.158067892E1,-6.490531564E-1,-9.646066427E-1,-1.119840980E0
1.159039215E1,-1.250249892E-1,-9.239286184E-1,-6.744768620E-1
1.160010627E1,9.738788009E-1,-1.086640596E0,1.734796353E-2
1.160981944E1,1.866999865E0,-1.010070205E0,5.991029739E-1
1.161953189E1,2.396112680E0,-7.277171612E-1,9.774680734E-1
1.162924512E1,2.654537678E0,-3.302095234E-1,9.798609018E-1
1.163895918E1,2.388934374E0,1.366899908E-1,5.201398134E-1
1.164867241E1,1.608574986E0,4.310071766E-1,-5.443671346E-2
1.165838481E1,4.881358147E-1,4.094717801E-1,-3.678964674E-1
1.166809814E1,-4.791627228E-1,1.582254022E-1,-3.921238184E-1
1.167781215E1,-1.137488008E0,-3.373879790E-1,-1.115055323E0
1.168752533E1,-1.372283816E0,-1.024427176E0,-4.019044876E0
1.169723778E1,-1.925324917E0,-2.604587555E0,-6.350850582E0
1.170695101E1,-3.313760281E0,-4.531706810E0,-7.169794083E0
1.171666512E1,-5.372784138E0,-7.759026527E0,-4.469194412E0
1.172637830E1,-6.789933205E0,-1.219771290E1,1.018146038E0
1.173609074E1,-7.211369038E0,-1.746222115E1,3.048455954E0
1.174580398E1,-5.937789440E0,-2.201127625E1,6.999006122E-2
1.175551809E1,-9.891330600E-1,-2.718725014E1,-1.062682438E1
1.176523127E1,4.471886635E0,-3.091706276E1,-7.543074131E0
1.177494371E1,7.409375191E0,-3.398884964E1,2.856731176E0
1.178465694E1,5.352744102E0,-3.166422272E1,7.645068169E0
1.179437101E1,1.049850956E-1,-2.648106956E1,1.051645517E0
1.180408424E1,-5.176572800E0,-2.329681969E1,-2.565704107E0
1.181379668E1,-7.773981571E0,-2.287777710E1,-3.241078377E0
1.182350991E1,-8.164310455E0,-2.413221550E1,-1.170090318E0
1.183322398E1,-7.948657513E0,-2.483151627E1,-4.974080026E-1
1.184293715E1,-7.046264648E0,-2.438854599E1,-1.349551916E0
1.185264960E1,-5.305785179E0,-2.344996071E1,-2.000698805E0
1.186236293E1,-2.315355062E0,-2.268395805E1,-1.768594980E0
1.187207694E1,7.896314859E-1,-2.188176537E1,-1.421336651E0
1.188179012E1,2.094317913E0,-2.017239189E1,-1.093519926E0
1.189150257E1,1.294816136E0,-1.741197205E1,-7.247261405E-1
1.190121580E1,-5.054837838E-2,-1.409851074E1,-9.113663435E-1
1.191092991E1,-9.053842425E-1,-1.072762203E1,-9.041878581E-1
1.192064309E1,-1.065703392E0,-7.747062206E0,-4.710869491E-1
1.193035554E1,-8.264211416E-1,-5.309972763E0,-3.080759048E-1
1.194006877E1,-5.892325640E-1,-3.382553816E0,-4.351946115E-1
1.194978283E1,-4.959124923E-1,-1.764407635E0,-8.228318691E-1
1.195949606E1,-5.988038778E-1,-2.608176768E-1,-1.689631939E0
1.196920851E1,-3.140579760E-1,9.553344250E-1,-2.520240545E0
1.197892174E1,2.653042078E-1,1.680957913E0,-2.776571512E0
1.198863580E1,7.010970116E-1,1.747956991E0,-2.903391123E0
1.199834898E1,8.829515576E-1,1.505982757E0,-2.905783892E0
1.200806142E1,3.394817114E-1,9.409775138E-1,-2.367099762E0
1.201777476E1,-2.470589429E-1,2.276172489E-1,-1.198804140E0
1.202748877E1,-2.039881349E-1,-5.312066078E-1,-7.773682475E-1
1.203720194E1,2.868396044E-1,-1.242473125E0,-1.481157184E0
1.204691439E1,6.484549642E-1,-1.694716692E0,-2.481955290E0
1.205662762E1,1.388136268E0,-2.077867270E0,-2.874677420E0
1.206634174E1,2.288435698E0,-2.374876499E0,-2.367099762E0
1.207605491E1,3.305983543E0,-2.329412937E0,-1.129412293E0
1.208576736E1,3.607479334E0,-2.018046856E0,1.495514158E-2
1.209548059E1,2.803191662E0,-1.409970760E0,8.410771489E-1
1.210519465E1,1.531705618E0,-7.348956466E-1,1.003789067E0
1.211490788E1,4.498506486E-1,-1.100698411E-1,1.099501967E0
1.212462033E1,-2.566302419E-1,3.233301640E-1,1.240678549E0
1.213433356E1,-1.032203913E0,6.729813814E-1,9.822536707E-1
1.214404762E1,-1.903789520E0,8.189435601E-1,7.163512707E-1
1.215376080E1,-2.164607286E0,7.806583643E-1,4.292125702E-1
1.216347324E1,-2.052144527E0,4.357928336E-1,-1.860419661E-1
1.217318658E1,-1.568495274E0,-2.488535494E-1,-3.913760424E0
1.218290059E1,-1.970788598E0,-1.967797518E0,-7.830512047E0
1.219261377E1,-3.462115288E0,-4.225425720E0,-1.016471100E1
1.220232621E1,-4.027120590E0,-8.611469269E0,-5.062913418E0
1.221203955E1,-3.708875179E0,-1.369651699E1,3.953242064E0
1.222175356E1,-3.658625841E0,-1.719422531E1,6.136693001E0
1.223146674E1,-3.332902908E0,-1.931067657E1,2.133799553E0
1.224117918E1,-2.988336325E0,-2.138854408E1,-1.191236877E1
1.225089241E1,-1.192523003E0,-2.147737694E1,-1.601815224E1
1.226060653E1,2.270190418E-1,-2.377807617E1,-5.766702652E0
1.227031970E1,-8.312067389E-1,-2.630848694E1,3.768994808E0
1.228003215E1,-2.598007202E0,-2.498226547E1,2.734697104E0
1.228974538E1,-3.806980848E0,-2.301895332E1,-1.749452472E0
1.229945950E1,-5.070989609E0,-2.298545456E1,-8.706883192E-1
1.230917267E1,-4.805386066E0,-2.513540459E1,2.749054193E0
1.231888512E1,-3.160619497E0,-2.659113884E1,4.003491402E0
1.232859835E1,-2.178964138E0,-2.667728043E1,2.804089069E0
1.233831241E1,-2.442473650E0,-2.557359123E1,1.465902925E0
1.234802564E1,-2.624328136E0,-2.420160675E1,1.003789067E0
1.235773809E1,-1.745564103E0,-2.277488518E1,-6.768696904E-1
1.236745132E1,-1.055833027E-1,-2.132393837E1,-1.948056698E0
1.237716538E1,9.714859724E-1,-1.980150414E1,-1.895414591E0
1.238687856E1,1.086640596E0,-1.800090599E1,-1.342373490E0
1.239659101E1,2.916252613E-1,-1.557338715E1,-9.930213690E-1
1.240630434E1,-1.027418256E0,-1.303340626E1,-6.601199508E-1
1.241601835E1,-1.889432549E0,-1.063430214E1,-2.123630047E-1
1.242573153E1,-1.872682810E0,-8.618648529E0,-2.147558331E-1
1.243544398E1,-1.372283816E0,-7.012166977E0,-6.242275834E-1
1.244515720E1,-8.192426562E-1,-5.566004753E0,-1.184447169E0
1.245487132E1,-5.461617708E-1,-4.031607151E0,-2.050948143E0
1.246458450E1,-4.336991012E-1,-2.226222277E0,-3.013461113E0
1.247429694E1,-9.245268703E-1,-8.853443712E-2,-4.114757538E0
1.248401017E1,-1.930110574E0,2.310569286E0,-5.228018284E0
1.249372429E1,-2.877967358E0,3.787539244E0,-5.582455158E0
1.250343746E1,-2.856431961E0,4.039084435E0,-4.615156651E0
1.251314991E1,-1.688136339E0,2.719742060E0,-2.700001240E0
1.252286314E1,-1.058524966E0,1.000798106E0,-8.300103545E-1
1.253257726E1,-1.348355532E0,-2.249253243E-1,-4.447658956E-1
1.254229043E1,-1.783849239E0,-1.065105200E0,-1.129412293E0
1.255200288E1,-1.580459356E0,-1.668395638E0,-1.739881158E0
1.256171611E1,-8.359923959E-1,-2.077867270E0,-2.434098721E0
1.257143017E1,4.761717021E-1,-2.441875458E0,-2.774178743E0
1.258114340E1,1.771286964E0,-2.616551638E0,-2.762214661E0
1.259085585E1,2.597109795E0,-2.523231506E0,-2.474776745E0
1.260056908E1,2.494218588E0,-2.171187401E0,-1.876272082E0
1.261028314E1,2.376970291E0,-1.756929994E0,-1.124626637E0
1.261999637E1,2.429612398E0,-1.333400369E0,-4.160520434E-1
1.262970882E1,2.319542408E0,-7.205387354E-1,2.545365095E-1
1.263942205E1,1.855035782E0,-2.057827413E-1,7.187440991E-1
1.264913611E1,1.084247708E0,1.199402362E-1,1.070788145E0
1.265884929E1,2.629113793E-1,2.754737139E-1,1.492223978E0
1.266856174E1,-7.283154130E-1,1.462612897E-1,1.401296735E0
1.267827507E1,-2.085644007E0,-5.982056856E-1,6.759724021E-2
1.268798908E1,-3.538984776E0,-1.903191328E0,-2.726322412E0
1.269770226E1,-4.525126934E0,-4.709074974E0,-5.979663849E0
1.270741470E1,-4.917848587E0,-9.696016312E0,-7.610073090E0
1.271712804E1,-4.972883701E0,-1.583689690E1,-7.411468983E0
1.272684205E1,-3.799802303E0,-2.215723801E1,-5.070092201E0
1.273655522E1,-1.441675663E0,-2.785275459E1,-1.332802176E0
1.274626767E1,1.730608940E0,-2.998117065E1,-5.910272121E0
1.275598090E1,2.932404041E0,-2.865943527E1,-8.582157135E0
1.276569502E1,1.024427176E0,-2.803700256E1,-3.511467278E-1
1.277540819E1,-8.096713424E-1,-2.688306236E1,6.294619083E0
1.278512064E1,-2.253141642E0,-2.475704002E1,5.492724419E0
1.279483387E1,-5.161916733E0,-2.281556320E1,2.356332064E0
1.280454799E1,-8.932705879E0,-2.226730919E1,1.264606714E0
1.281426116E1,-1.019432163E1,-2.276770782E1,1.494616866E0
1.282397361E1,-9.284749985E0,-2.379482651E1,-1.333998591E-1
1.283368684E1,-6.263213158E0,-2.489133835E1,-2.568096876E0
1.284340095E1,-2.370688915E0,-2.507797813E1,-3.868296862E0
1.285311413E1,1.160818100E0,-2.409392929E1,-3.614358664E0
1.286282658E1,4.083950043E0,-2.219552422E1,-3.707678795E0
1.287253981E1,5.891428471E0,-1.982304001E1,-3.243471146E0
1.288225392E1,5.388636589E0,-1.719422531E1,-1.660917997E0
1.289196710E1,2.391327143E0,-1.430459309E1,-2.841476798E-1
1.290167955E1,-1.712064624E0,-1.044526863E1,2.880360186E-1
1.291139278E1,-3.938585997E0,-6.643373013E0,-4.567300081E-1
1.292110684E1,-4.281058788E0,-3.918845177E0,-1.644168258E0
1.293082007E1,-3.792623997E0,-1.817049742E0,-2.314457655E0
1.294053252E1,-2.990729094E0,-1.124626622E-1,-2.800499916E0
1.295024574E1,-2.291426897E0,1.467697620E0,-3.961616993E0
1.295995981E1,-1.771885157E0,2.880360365E0,-5.378766060E0
1.296967304E1,-9.819545746E-1,3.603291750E0,-5.625525951E0
1.297938549E1,9.068797827E-1,3.009572744E0,-4.521836758E0
1.298909871E1,3.162115097E0,1.326521039E0,-2.637787819E0
1.299881278E1,3.906881094E0,-5.766702294E-1,-7.917252183E-1
1.300852595E1,3.061616659E0,-2.164009094E0,-2.482553422E-1
1.301823845E1,1.933998942E0,-3.229413271E0,-5.165506005E-1
1.302795168E1,1.067497969E0,-3.708276987E0,-1.289731383E0
1.303766574E1,8.805587292E-1,-3.557528973E0,-2.283350945E0
1.304737892E1,7.896314859E-1,-2.872583628E0,-3.183650494E0
1.305709137E1,2.557329237E-1,-2.068295956E0,-3.099602699E0
1.306680470E1,-1.561316848E-1,-1.311864972E0,-2.144567251E0
1.307651871E1,-1.561316848E-1,-5.144568682E-1,-1.069591761E0
1.308623189E1,6.987041831E-1,1.103689447E-1,1.256231871E-2
1.309594434E1,1.871785522E0,5.102694035E-1,8.123632669E-1
1.310565757E1,2.463111877E0,7.639086246E-1,1.228714466E0
1.311537168E1,1.989033818E0,8.668000102E-1,1.408475280E0
1.312508486E1,9.140582681E-1,8.117650747E-1,1.556830287E0
1.313479731E1,-5.605186820E-1,4.621138871E-1,1.401296735E0
1.314451054E1,-1.839183331E0,-1.292124242E-1,8.315058947E-1
1.315422465E1,-2.882753134E0,-1.086640596E0,-1.660917997E0
1.316393783E1,-3.993621111E0,-2.449054003E0,-4.612763882E0
1.317365028E1,-5.719743252E0,-4.637290478E0,-5.515456200E0
1.318336351E1,-7.362117290E0,-8.790931702E0,-3.535395384E0
1.319307762E1,-7.549056530E0,-1.345454216E1,-2.038984060E0
1.320279080E1,-5.348855972E0,-1.790997887E1,-1.756630898E0
1.321250324E1,-2.049751759E0,-2.218116760E1,-2.003091574E0
1.322221648E1,8.446664214E-1,-2.499901390E1,-5.953342915E0
1.323193054E1,2.891726255E0,-2.539173698E1,-5.149055004E0
1.324164377E1,3.107080221E0,-2.661985207E1,8.937192559E-1
1.325135621E1,1.481456280E0,-2.650021172E1,4.149752617E0
1.326106944E1,-2.781656384E-1,-2.523590469E1,1.489831209E0
1.327078351E1,-2.504687071E0,-2.440290260E1,-2.096710920E0
1.328049674E1,-4.690530777E0,-2.468286324E1,-3.485146284E0
1.329020918E1,-6.157928944E0,-2.544916344E1,-2.972783089E0
1.329992241E1,-5.573781013E0,-2.588226509E1,-3.556930780E0
1.330963648E1,-3.936193228E0,-2.592324257E1,-4.789832592E0
1.331934965E1,-2.049751759E0,-2.557359123E1,-4.732405186E0
1.332906210E1,4.486542661E-3,-2.465893555E1,-3.758227110E0
1.333877543E1,2.072782516E0,-2.306920242E1,-2.786142826E0
1.334848944E1,3.023331404E0,-2.084537315E1,-2.058425665E0
1.335820262E1,1.919641972E0,-1.793630028E1,-1.241874933E0
1.336791507E1,-4.552344978E-1,-1.464198112E1,-4.974080026E-1
1.337762830E1,-2.198106766E0,-1.125673485E1,-1.692921966E-1
1.338734241E1,-2.842075109E0,-8.139784813E0,-3.080759048E-1
1.339705559E1,-2.655434847E0,-5.262115955E0,-7.079764009E-1
1.340676804E1,-2.248355865E0,-2.709871531E0,-1.098305583E0
1.341648127E1,-1.848754644E0,-5.694918036E-1,-1.447657704E0
1.342619538E1,-1.551745534E0,1.075274706E0,-1.928914189E0
1.343590856E1,-1.743171334E0,2.482852697E0,-2.276172638E0
1.344562101E1,-1.966002941E0,3.507578850E0,-2.091925144E0
1.345533424E1,-1.456032634E0,3.569792271E0,-1.665703654E0
1.346504830E1,-5.724828243E-1,2.799004316E0,-1.201196909E0
1.347476153E1,-1.465603858E-1,1.501197100E0,-7.821539044E-1
1.348447398E1,-9.122636169E-2,1.079761237E-1,-2.243271172E-1
1.349418720E1,-2.781656384E-1,-1.045962572E0,-3.768695518E-2
1.350390127E1,-1.175474152E-1,-1.836192250E0,-3.032902777E-1
1.351361450E1,3.466601670E-1,-2.185544491E0,-5.667998791E-1
1.352332689E1,9.068797827E-1,-2.223829508E0,-7.247261405E-1
1.353304022E1,1.725823283E0,-1.984547257E0,-1.095912814E0
1.354275424E1,2.365005970E0,-1.781157374E0,-1.239482164E0
1.355246741E1,2.640180588E0,-1.591825247E0,-1.160519004E0
1.356217986E1,2.439183474E0,-1.460219979E0,-1.225125194E0
1.357189309E1,2.103889227E0,-1.266401410E0,-1.442872047E0
1.358160720E1,1.622931957E0,-9.789635539E-1,-1.737488389E0
1.359132038E1,1.122532964E0,-6.702894568E-1,-2.292922258E0
1.360103283E1,5.455635786E-1,-5.264210105E-1,-2.280958176E0
1.361074606E1,-3.906283081E-1,-5.910272002E-1,-1.411765337E0
1.362046017E1,-1.230808139E0,-4.450650215E-1,-1.836491376E-1
1.363017335E1,-1.733600020E0,-1.962114573E-1,7.956135273E-2
1.363988580E1,-1.910967946E0,-3.014956415E-1,-1.189232826E0
1.364959903E1,-2.269891262E0,-1.072283626E0,-3.521038532E0
1.365931309E1,-3.462115288E0,-2.882154942E0,-5.110770226E0
1.366902632E1,-5.056632519E0,-7.572386265E0,-1.548455358E0
1.367873877E1,-5.775077343E0,-1.367258835E1,2.650948286E0
1.368845200E1,-5.351248741E0,-1.940160370E1,2.667698145E0
1.369816606E1,-2.717648268E0,-2.474746895E1,-5.787639618E-1
1.370787924E1,1.505384564E0,-3.030898666E1,-7.797012806E0
1.371759168E1,4.608277321E0,-3.236801147E1,-8.163114548E0
1.372730502E1,4.646562576E0,-3.434568024E1,1.736291885E0
1.373701903E1,2.017747641E0,-3.322523880E1,4.688436985E0
1.374673220E1,-1.738385677E0,-2.897558594E1,1.348654628E0
1.375644465E1,-5.070989609E0,-2.587987328E1,-2.058425665E0
1.376615788E1,-7.400402069E0,-2.452972221E1,-1.900200248E0
1.377587200E1,-8.932705879E0,-2.416332054E1,-6.481558084E-1
1.378558517E1,-8.954241753E0,-2.371347046E1,-1.452443361E0
1.379529762E1,-7.843373299E0,-2.310060883E1,-2.874677420E0
1.380501085E1,-5.418247700E0,-2.244676971E1,-3.231507063E0
1.381472491E1,-2.119143486E0,-2.130718803E1,-2.688037157E0
1.382443814E1,4.450650215E-1,-1.984457588E1,-2.175673962E0
1.383415059E1,1.579861164E0,-1.731625938E1,-1.450050473E0
1.384386382E1,1.215852976E0,-1.434766388E1,-9.041878581E-1
1.385357788E1,1.265204996E-1,-1.122323513E1,-6.481558084E-1
1.386329106E1,-7.211369276E-1,-8.225926399E0,-5.907281041E-1
1.387300351E1,-8.312067389E-1,-5.520540714E0,-9.329017401E-1
1.388271674E1,-7.594220638E-1,-3.224627733E0,-1.387837172E0
1.389243085E1,-5.557330847E-1,-1.319043517E0,-1.885843396E0
1.390214403E1,-4.887340367E-1,2.347957194E-1,-2.314457655E0
1.391185648E1,-8.527421951E-1,1.604088426E0,-2.410170555E0
1.392156970E1,-1.518245935E0,2.638386011E0,-2.111067772E0
1.393128377E1,-1.738385677E0,3.136392355E0,-1.914557219E0
1.394099700E1,-8.455637097E-1,2.810968399E0,-1.703988791E0
1.395070944E1,4.351946115E-1,1.771885157E0,-1.392622828E0
1.396042267E1,1.491027594E0,3.568296731E-1,-7.941179872E-1
1.397013674E1,2.115853310E0,-9.669994712E-1,7.776673418E-3
1.397984991E1,2.403291225E0,-1.967797518E0,4.770690203E-1
1.398956236E1,2.487040043E0,-2.621337175E0,1.971087605E-1
1.399927569E1,2.197508574E0,-2.743371248E0,-6.553342938E-1
1.400898970E1,1.464706540E0,-2.501696110E0,-1.354337573E0
1.401870288E1,1.065105200E0,-2.178365946E0,-1.450050473E0
1.402841533E1,1.081854939E0,-1.900798440E0,-1.136590719E0
1.403812856E1,1.108175993E0,-1.532004714E0,-5.620142221E-1
1.404784267E1,1.065105200E0,-8.808578253E-1,4.076771438E-1
1.405755585E1,1.366600871E0,-1.339980662E-1,1.274178028E0
1.406726830E1,1.251745343E0,5.294120312E-1,1.211964726E0
1.407698153E1,7.202396393E-1,1.058524966E0,4.531407952E-1
1.408669559E1,2.509472668E-1,9.792626500E-1,-4.710869491E-1
1.409640877E1,-3.714857101E-1,5.246263742E-1,-1.330409408E0
1.410612121E1,-7.283154130E-1,-4.809573591E-1,-2.072782516E0
1.411583444E1,-8.694919348E-1,-1.888834357E0,-4.078865528E0
1.412554856E1,-2.056930065E0,-3.957130432E0,-6.405885220E0
1.413526174E1,-3.938585997E0,-6.760621071E0,-6.631109715E0
1.414497418E1,-6.117250919E0,-1.131446171E1,-3.841975927E0
1.415468741E1,-7.031907558E0,-1.702433395E1,-4.375874400E-1
1.416440148E1,-6.811468601E0,-2.253081894E1,8.434699774E-1
1.417411470E1,-4.747958183E0,-2.615295410E1,2.064407825E0
1.418382715E1,1.694716692E0,-2.814976311E1,-7.377969742E0
1.419354038E1,4.091128349E0,-2.723510742E1,-8.242376328E0
1.420325444E1,2.633002281E0,-2.897319412E1,6.756732941E0
1.421296762E1,-1.001097202E0,-2.921486855E1,8.494819641E0
1.422268007E1,-4.649852753E0,-2.577219582E1,8.602197170E-1
1.423239330E1,-8.449056625E0,-2.487458801E1,-1.282552958E0
1.424210741E1,-9.442676544E0,-2.617927361E1,2.593221664E-1
1.425182059E1,-7.642376423E0,-2.746721077E1,1.238285661E0
1.426153304E1,-4.527519703E0,-2.801068115E1,6.661019921E-1
1.427124627E1,-1.408176184E0,-2.716093063E1,-6.912266612E-1
1.428096033E1,1.416850090E0,-2.505165672E1,-7.534400225E-1
1.429067351E1,3.602693558E0,-2.235584259E1,-1.549352705E-1
1.430038595E1,3.916452408E0,-1.926521301E1,1.513460279E-1
1.431009929E1,2.152044773E0,-1.602593040E1,1.633101404E-1
1.431981330E1,-4.097708687E-2,-1.276989651E1,-2.051845491E-1
1.432952648E1,-1.377069473E0,-9.652945518E0,-6.816553473E-1
1.433923892E1,-1.961217284E0,-6.839883327E0,-1.019342422E0
1.434895215E1,-2.554936409E0,-4.089034557E0,-1.253839016E0
1.435866621E1,-2.789433002E0,-1.606182218E0,-1.883450508E0
1.436837944E1,-2.669791937E0,7.830511928E-1,-3.238685369E0
1.437809189E1,-2.200499535E0,2.794218540E0,-4.852046013E0
1.438780512E1,-2.042573214E0,4.417449474E0,-5.833701611E0
1.439751918E1,-1.968395710E0,5.006382942E0,-5.556134224E0
1.440723236E1,-1.132702470E0,4.137190342E0,-4.143471718E0
1.441694481E1,-1.079761237E-1,2.176571369E0,-2.038984060E0
1.442665804E1,-6.490531564E-2,4.812564552E-1,-6.385845542E-1
1.443637215E1,-3.068794906E-1,-8.066803217E-1,-3.849453330E-1
1.444608533E1,-2.135594189E-1,-1.555932879E0,-6.385845542E-1
1.445579778E1,6.819544435E-1,-2.164009094E0,-1.026520967E0
1.446551101E1,2.240579367E0,-2.738585472E0,-1.447657704E0
1.447522507E1,3.602693558E0,-3.090629578E0,-1.763809443E0
1.448493824E1,4.419244289E0,-3.289233923E0,-1.871486425E0
1.449465069E1,4.689633369E0,-3.126521826E0,-1.608275890E0
1.450436392E1,4.237090588E0,-2.592623234E0,-1.220339537E0
1.451407804E1,3.396910906E0,-1.903191328E0,-9.738788009E-1
1.452379121E1,2.448754787E0,-1.230509043E0,-6.816553473E-1
1.453350366E1,1.759322882E0,-5.431707501E-1,-4.615156651E-1
1.454321689E1,7.417750359E-1,-2.362912335E-2,1.947159469E-1
1.455293095E1,-4.097708762E-1,3.113660514E-1,1.365404367E0
1.456264413E1,-1.520638824E0,7.064808607E-1,1.822433591E0
1.457235658E1,-2.504687071E0,1.036690354E0,1.547258973E0
1.458206981E1,-3.510270834E0,8.596215248E-1,1.202393413E0
1.459178392E1,-4.063312054E0,-1.124626622E-1,2.186441720E-1
1.460149710E1,-4.594518661E0,-1.553540111E0,-2.474776745E0
1.461120955E1,-5.015954494E0,-3.978665829E0,-4.864309311E0
1.462092278E1,-5.140381336E0,-8.733503342E0,-3.008675337E0
1.463063684E1,-4.800600529E0,-1.478106403E1,-8.515457511E-1
1.464035002E1,-4.178167343E0,-1.998814392E1,1.171286702E0
1.465006246E1,-3.021835804E0,-2.457757950E1,-1.593919039E0
1.465977569E1,2.629113793E-1,-2.858765030E1,-1.090678501E1
1.466948981E1,4.342374802E0,-2.938027191E1,-1.213011551E1
1.467920299E1,3.597908020E0,-3.203511047E1,-1.495514154E0
1.468891543E1,2.762513638E0,-3.205664444E1,5.844768524E0
1.469862866E1,1.380957723E0,-2.977987480E1,5.674578667E0
1.470834273E1,-1.489532113E0,-2.719682312E1,-2.578266263E-1
1.471805590E1,-4.824528694E0,-2.582483673E1,-2.398206472E0
1.472776835E1,-7.618448257E0,-2.538455772E1,-1.387837172E0
1.473748158E1,-8.240880966E0,-2.477408981E1,-1.083948612E0
1.474719569E1,-6.466902256E0,-2.388814735E1,-3.209971666E0
1.475690887E1,-3.617947817E0,-2.305484581E1,-4.871487617E0
1.476662132E1,-9.604191780E-1,-2.213809586E1,-4.653441906E0
1.477633455E1,1.349851131E0,-2.088365936E1,-3.760619879E0
1.478604861E1,2.510968208E0,-1.891316986E1,-2.795714140E0
1.479576179E1,2.096710920E0,-1.643061638E1,-1.816451430E0
1.480547424E1,6.604190469E-1,-1.366062450E1,-9.523434043E-1
1.481518746E1,-1.202094316E0,-1.041655540E1,-4.543372095E-1
1.482490158E1,-2.214856386E0,-7.229913712E0,-8.108677864E-1
1.483461476E1,-2.538186550E0,-4.407280445E0,-1.414158225E0
1.484432720E1,-2.504687071E0,-1.967797518E0,-1.725524187E0
1.485404043E1,-2.078465462E0,7.447660714E-2,-1.983949065E0
1.486375450E1,-1.822433591E0,1.896311998E0,-2.359921217E0
1.487346767E1,-1.997109652E0,3.435794115E0,-2.472383976E0
1.488318012E1,-1.846361756E0,4.302295208E0,-2.381456852E0
1.489289335E1,-1.092024446E0,4.189832687E0,-2.223530531E0
1.490260741E1,4.426721931E-1,2.803789854E0,-2.003091574E0
1.491232064E1,1.270887971E0,9.960124493E-1,-1.689631939E0
1.492203304E1,1.177567840E0,-5.000999570E-1,-1.608275890E0
1.493174637E1,9.475577474E-1,-1.646860242E0,-1.811665893E0
1.494146038E1,5.934200287E-1,-2.662015200E0,-2.240280151E0
1.495117356E1,8.709874153E-1,-3.387339592E0,-2.582453728E0
1.496088601E1,1.596610904E0,-3.775275946E0,-2.745464802E0
1.497059924E1,2.527718067E0,-3.823132277E0,-2.149353027E0
1.498031330E1,3.344268799E0,-3.457030535E0,-1.232303619E0
1.499002648E1,3.375375509E0,-2.645265341E0,-2.315055877E-1
1.499973892E1,3.092723370E0,-1.541576028E0,5.464608669E-1
1.500945215E1,2.436790705E0,-4.378865361E-1,8.291130662E-1
1.501916627E1,1.483849168E0,5.796613097E-1,7.139584422E-1
1.502887944E1,3.945166469E-1,1.288235903E0,6.110670567E-1
1.503859189E1,-6.203392744E-1,1.657029629E0,6.349952817E-1
1.504830512E1,-1.353141189E0,1.587338686E0,8.099704385E-1
