"Time (s)","Gyroscope x (rad/s)","Gyroscope y (rad/s)","Gyroscope z (rad/s)"
1.530631410E-1,-7.426375747E-1,2.018850148E-1,9.333745837E-1
1.627764750E-1,-1.082268596E0,1.847812980E-1,9.333745837E-1
1.724905370E-1,-1.841093659E0,2.593046725E-1,7.611156702E-1
1.822037660E-1,-1.990140319E0,5.647283196E-1,5.583143830E-1
1.919162140E-1,-1.365854502E0,6.783458591E-1,3.139754832E-1
2.016295480E-1,-9.845330715E-1,5.219689608E-1,-1.099525094E-1
2.113436100E-1,-1.106702566E0,4.523324072E-1,-5.118899941E-1
2.210568390E-1,-1.067608237E0,3.741439581E-1,-6.328377724E-1
2.307693390E-1,-6.265766025E-1,3.973561525E-1,-4.251496792E-1
2.404826730E-1,-9.147437662E-2,3.472666740E-1,-1.429382563E-1
2.501967350E-1,2.420482337E-1,-2.290677279E-2,7.574506104E-2
2.599099640E-1,4.289674759E-1,-4.297310412E-1,2.712161839E-1
2.696224120E-1,6.513158679E-1,-6.093201637E-1,4.618005157E-1
2.793357450E-1,9.188669920E-1,-6.178719997E-1,5.680879354E-1
2.890498600E-1,1.154654026E0,-4.602734149E-1,5.412106514E-1
2.987630370E-1,1.359898686E0,-2.086043358E-1,4.019374847E-1
3.084755370E-1,1.549261332E0,2.351761982E-2,1.979145110E-1
3.181888700E-1,1.708081603E0,1.750077456E-1,1.588202827E-2
3.279029330E-1,1.804595470E0,2.092151791E-1,-1.014006436E-1
3.376161620E-1,1.788713455E0,1.017060652E-1,-1.673721522E-1
3.473286620E-1,1.694643021E0,-5.344913527E-2,-2.186833173E-1
3.570419950E-1,1.603015900E0,-1.890572309E-1,-2.809897363E-1
3.667560580E-1,1.548039675E0,-2.867927849E-1,-3.384093940E-1
3.764692870E-1,1.516275644E0,-3.100049794E-1,-3.603998721E-1
3.861817350E-1,1.416096687E0,-2.757975459E-1,-3.603998721E-1
3.958950680E-1,1.166870952E0,-2.892361879E-1,-3.970507085E-1
4.056091310E-1,7.747070193E-1,-2.403683960E-1,-4.593571424E-1
4.153223600E-1,3.935383558E-1,1.041494608E-1,-4.581354558E-1
4.250348600E-1,2.163926363E-1,6.270347238E-1,-3.518480062E-1
4.347481930E-1,2.249445021E-1,9.678874612E-1,-1.624853760E-1
4.444622560E-1,2.420482337E-1,8.200624585E-1,9.529217333E-2
4.541754850E-1,1.296523362E-1,3.045073450E-1,3.836120665E-1
4.638879850E-1,-7.070557028E-2,-1.902789176E-1,5.803049207E-1
4.736013180E-1,-2.515163720E-1,-5.445703268E-1,6.291726828E-1
4.833153810E-1,-3.541387022E-1,-7.241594195E-1,5.522059202E-1
4.930286100E-1,-3.920112252E-1,-6.899519563E-1,4.104893506E-1
5.027411100E-1,-3.859027624E-1,-6.019899845E-1,2.883199155E-1
5.124544430E-1,-3.639122546E-1,-5.140279531E-1,1.893626451E-1
5.221685060E-1,-3.431434333E-1,-3.796415627E-1,1.172826737E-1
5.318817350E-1,-3.260397315E-1,-2.257080674E-1,6.230641901E-2
5.415942350E-1,-2.979407609E-1,-1.181989461E-1,-6.108472589E-3
5.513075680E-1,-2.564031482E-1,-1.084253863E-1,-9.529217333E-2
5.610216310E-1,-2.173089087E-1,-1.096470803E-1,-1.624853760E-1
5.707348600E-1,-1.843231618E-1,-6.200099736E-2,-1.649287641E-1
5.804473600E-1,-1.574458778E-1,-3.023693897E-2,-1.099525094E-1
5.901606930E-1,-1.550024897E-1,-8.154810965E-2,-5.008947477E-2
5.998747560E-1,-2.845021188E-1,-2.086043358E-1,-1.954711229E-2
6.095879850E-1,-6.192464232E-1,-1.817270666E-1,-1.954711229E-2
6.193004850E-1,-1.061499834E0,-1.035386100E-1,4.886778072E-3
6.290138180E-1,-1.378071427E0,-1.536280811E-1,5.375456065E-2
6.387278810E-1,-1.266744494E0,-2.550287247E-1,1.649287641E-1
6.484411100E-1,-9.845330715E-1,-3.878879920E-2,3.188622594E-1
6.581536100E-1,-8.758022785E-1,2.116585821E-1,4.300364852E-1
6.678669430E-1,-1.194664478E0,4.062134400E-2,4.801259339E-1
6.775810060E-1,-1.671278119E0,-8.246437646E-3,4.825693369E-1
6.872942350E-1,-1.593089700E0,1.359135211E-1,4.080459774E-1
6.970067350E-1,-9.576557875E-1,4.184303805E-2,1.698155403E-1
7.067200680E-1,-4.921901822E-1,-1.279724985E-1,-2.015796006E-1
7.164341830E-1,-4.714213610E-1,2.473931387E-2,-4.361449480E-1
7.261474120E-1,-3.822376728E-1,2.263189107E-1,-3.994941115E-1
7.358599120E-1,1.481304597E-2,6.111527085E-1,-1.844758689E-1
7.455732450E-1,4.595098495E-1,9.116895199E-1,6.963659078E-2
7.552873080E-1,7.136223316E-1,8.701519370E-1,2.651077211E-1
7.650005370E-1,7.881456614E-1,6.331431866E-1,3.750602305E-1
7.747130370E-1,8.076927662E-1,3.460449576E-1,3.872771561E-1
7.844263700E-1,8.626690507E-1,1.188097894E-1,2.797680497E-1
7.941404850E-1,9.408574700E-1,2.748812549E-3,3.176405653E-2
8.038537140E-1,1.065470338E0,-7.024743594E-3,-2.993151546E-1
8.135662140E-1,1.229177356E0,-3.023693897E-2,-5.522059202E-1
8.232795480E-1,1.339129925E0,-1.047603041E-1,-6.120689511E-1
8.329936100E-1,1.350125194E0,-2.024958730E-1,-5.057815313E-1
8.427068390E-1,1.312252641E0,-3.759764731E-1,-3.396310806E-1
8.524193390E-1,1.269493341E0,-5.775560737E-1,-2.272351831E-1
8.621326730E-1,1.231620789E0,-6.850652099E-1,-1.771457046E-1
8.718467870E-1,1.163205862E0,-6.752916574E-1,-1.600419879E-1
8.815600160E-1,1.027597785E0,-6.142069101E-1,-1.856975704E-1
8.912725160E-1,8.528954983E-1,-5.152496696E-1,-2.663294077E-1
9.009858500E-1,6.525375843E-1,-3.026748300E-1,-3.042019308E-1
9.106999120E-1,4.656183124E-1,1.004843712E-1,-2.333436459E-1
9.204132450E-1,3.287885487E-1,6.355865598E-1,-9.895725548E-2
9.301256930E-1,2.689255178E-1,1.027750492E0,1.466033421E-2
9.398390270E-1,2.579302490E-1,1.098608851E0,7.207997888E-2
9.495530890E-1,2.518217862E-1,9.678874612E-1,9.040539712E-2
9.592663180E-1,2.041756958E-1,7.614210844E-1,1.038440317E-1
9.689788180E-1,1.101052165E-1,5.207473040E-1,1.001789495E-1
9.786922040E-1,-2.550287358E-2,2.617480457E-1,7.085828483E-2
9.884062660E-1,-1.965401024E-1,-7.024743594E-3,1.954711229E-2
9.981194950E-1,-3.370349705E-1,-2.159345001E-1,-4.886778072E-2
1.007831995E0,-3.907895386E-1,-3.405473530E-1,-1.123958975E-1
1.017545381E0,-3.663556576E-1,-4.040754735E-1,-1.392731816E-1
1.027259443E0,-3.016058207E-1,-3.906368315E-1,-1.478250325E-1
1.036972673E0,-2.649549842E-1,-3.454341292E-1,-1.429382563E-1
1.046685173E0,-2.942756712E-1,-3.405473530E-1,-1.356080920E-1
1.056398558E0,-3.639122546E-1,-3.723114133E-1,-1.307213157E-1
1.066112620E0,-4.421007037E-1,-3.881934285E-1,-1.246128380E-1
1.075825850E0,-4.885250926E-1,-3.454341292E-1,-1.331647038E-1
1.085538402E0,-4.811949134E-1,-2.391466945E-1,-1.453816444E-1
1.095251735E0,-4.750864506E-1,-1.475196183E-1,-1.722589284E-1
1.104965798E0,-6.522321701E-1,-2.257080674E-1,-2.223484069E-1
1.114679027E0,-1.081046939E0,-3.857500553E-1,-2.577775419E-1
1.124391579E0,-1.596754789E0,-5.433486104E-1,-1.527118087E-1
1.134104912E0,-1.668834686E0,-4.981459379E-1,9.651386738E-2
1.143818975E0,-1.326607585E0,-3.100049794E-1,3.946073353E-1
1.153532308E0,-1.013853788E0,2.287622988E-1,6.584933400E-1
1.163244756E0,-9.197832346E-1,3.619270027E-1,8.429692388E-1
1.172958089E0,-1.180004239E0,2.373141646E-1,8.576295376E-1
1.182672204E0,-1.275296330E0,1.029277667E-1,6.890357137E-1
1.192385433E0,-7.963921428E-1,1.420219839E-1,3.848337829E-1
1.202097933E0,-2.747285664E-1,1.151447073E-1,-1.588202827E-2
1.211811266E0,-2.429644912E-1,1.420219839E-1,-3.359659910E-1
1.221525381E0,-3.529170156E-1,1.640124917E-1,-3.701734245E-1
1.231238610E0,-2.185306102E-1,1.725643575E-1,-2.260134816E-1
1.240951162E0,1.394258887E-1,3.863608837E-1,-3.909422457E-2
1.250664495E0,4.387410581E-1,5.183038712E-1,1.062874198E-1
1.260378610E0,5.596888065E-1,3.655920923E-1,1.795890927E-1
1.270091839E0,6.354338527E-1,6.627693027E-2,2.247917950E-1
1.279804339E0,7.319477201E-1,-1.304158866E-1,2.321219593E-1
1.289517673E0,8.419002295E-1,-2.342599183E-1,1.343863904E-1
1.299231787E0,9.445225596E-1,-2.611372173E-1,-3.298575059E-2
1.308945016E0,1.020267606E0,-2.379250079E-1,-1.661504507E-1
1.318657568E0,1.087460876E0,-2.489202619E-1,-2.223484069E-1
1.328370902E0,1.138772011E0,-3.038965166E-1,-2.211267054E-1
1.338085016E0,1.149767280E0,-3.649812341E-1,-1.869192570E-1
1.347798245E0,1.141215444E0,-4.077405334E-1,-1.441599578E-1
1.357510745E0,1.132663488E0,-4.333961308E-1,-1.453816444E-1
1.367224079E0,1.122889996E0,-4.052971601E-1,-1.966928244E-1
1.376938193E0,1.098456025E0,-3.026748300E-1,-2.687727809E-1
1.386651423E0,1.023932695E0,-1.487413049E-1,-3.469612300E-1
1.396363975E0,8.541171551E-1,6.872031838E-2,-4.068242610E-1
1.406077308E0,6.305471063E-1,3.961344361E-1,-3.921639323E-1
1.415791423E0,4.375193417E-1,7.748597264E-1,-2.895416021E-1
1.425504652E0,3.202366829E-1,1.048519373E0,-1.392731816E-1
1.435217152E0,2.615953386E-1,1.104717255E0,8.551862091E-3
1.444930537E0,1.980672181E-1,9.715525508E-1,1.270562261E-1
1.454644600E0,1.003316641E-1,7.272136807E-1,2.235700935E-1
1.464357933E0,9.926267900E-3,4.682144225E-1,2.761029601E-1
1.474070381E0,-6.337540597E-2,3.008422852E-1,2.492256761E-1
1.483783714E0,-1.354553849E-1,2.226538211E-1,1.392731816E-1
1.493497829E0,-2.087570578E-1,2.055501044E-1,-2.687728032E-2
1.503211058E0,-2.796153426E-1,1.982199401E-1,-1.795890927E-1
1.512923610E0,-3.358132839E-1,1.652341783E-1,-2.687727809E-1
1.522636943E0,-3.516952991E-1,1.102579311E-1,-2.980934680E-1
1.532351058E0,-3.235963285E-1,2.351761982E-2,-2.858765125E-1
1.542064287E0,-3.052709103E-1,-8.887827396E-2,-2.223484069E-1
1.551776787E0,-3.162661791E-1,-2.086043358E-1,-1.417165697E-1
1.561490173E0,-3.419217467E-1,-3.026748300E-1,-7.696675509E-2
1.571204235E0,-3.761292100E-1,-3.234436214E-1,-3.787253052E-2
1.580917568E0,-4.103366435E-1,-2.476985604E-1,-2.076880634E-2
1.590630016E0,-4.286620617E-1,-1.120904684E-1,-3.298575059E-2
1.600343350E0,-4.433223903E-1,-3.390202299E-2,-6.474980712E-2
1.610057464E0,-6.510104537E-1,-1.524063945E-1,-1.099525094E-1
1.619770693E0,-1.033400893E0,-2.281514555E-1,-1.307213157E-1
1.629483245E0,-1.511236072E0,-3.075616062E-1,-6.108472589E-3
1.639196579E0,-1.765348554E0,-5.299099684E-1,2.528907657E-1
1.648910693E0,-1.588202834E0,-7.021689415E-1,5.302154422E-1
1.658623923E0,-1.277739763E0,-3.295520842E-1,7.782194018E-1
1.668336475E0,-1.277739763E0,-8.032641560E-2,9.052756429E-1
1.678049808E0,-1.668834686E0,-9.009996802E-2,7.366818190E-1
1.687763923E0,-1.677386522E0,-1.243074164E-1,2.932066917E-1
1.697477152E0,-1.090820551E0,1.432436854E-1,-2.724378705E-1
1.707189652E0,-5.679352283E-1,1.627907902E-1,-7.488987446E-1
1.716903037E0,-5.642701387E-1,1.236965731E-1,-9.260444641E-1
1.726617100E0,-5.911474228E-1,9.437590092E-2,-7.073611021E-1
1.736330433E0,-3.773508966E-1,1.371352077E-1,-2.541124523E-1
1.746042881E0,-3.038965166E-2,3.313846290E-1,1.148392856E-1
1.755756266E0,2.554868758E-1,3.521534503E-1,3.164188862E-1
1.765470329E0,4.607315361E-1,1.908897758E-1,4.202629030E-1
1.775183662E0,6.403206587E-1,-1.801999472E-2,4.752391577E-1
1.784896110E0,7.942541242E-1,-1.902789176E-1,4.263713956E-1
1.794609443E0,9.298622608E-1,-2.648022771E-1,2.382304370E-1
1.804323558E0,1.071578860E0,-2.464768738E-1,-1.221694518E-2
1.814036787E0,1.210852027E0,-2.073826492E-1,-1.905843467E-1
1.823749339E0,1.314695954E0,-2.379250079E-1,-2.260134816E-1
1.833462673E0,1.364785433E0,-3.466558158E-1,-1.795890927E-1
1.843176787E0,1.370893955E0,-4.883723855E-1,-1.258345395E-1
1.852890016E0,1.361120462E0,-5.971031785E-1,-1.001789495E-1
1.862602568E0,1.346460104E0,-6.166502833E-1,-1.343863904E-1
1.872315902E0,1.323247910E0,-5.286883116E-1,-2.101314515E-1
1.882030016E0,1.269493341E0,-3.833066523E-1,-2.858765125E-1
1.891743245E0,1.160762548E0,-2.696890533E-1,-3.579564989E-1
1.901455745E0,9.665130973E-1,-1.792836636E-1,-4.263713956E-1
1.911169131E0,6.940752268E-1,8.857285604E-3,-4.288147688E-1
1.920883193E0,4.020902216E-1,3.814741075E-1,-3.029802442E-1
1.930596527E0,1.980672181E-1,8.054021001E-1,-9.284878522E-2
1.940308975E0,1.443126649E-1,1.016755223E0,1.050657257E-1
1.950022360E0,1.528645307E-1,9.031376839E-1,2.455606014E-1
1.959736423E0,1.455343664E-1,6.380299330E-1,3.127537966E-1
1.969449756E0,8.933641016E-2,3.924693763E-1,3.225273490E-1
1.979162204E0,-3.771981969E-2,1.969982386E-1,2.932066917E-1
1.988875589E0,-2.075353563E-1,2.718270384E-2,2.040229887E-1
1.998589652E0,-3.541387022E-1,-8.643488586E-2,5.741964281E-2
2.008302881E0,-4.152234197E-1,-1.328592747E-1,-1.111742035E-1
2.018015433E0,-3.834593594E-1,-1.328592747E-1,-2.443388999E-1
2.027728766E0,-3.101576865E-1,-1.304158866E-1,-3.359659910E-1
2.037442881E0,-2.515163720E-1,-1.548497826E-1,-3.897205591E-1
2.047156110E0,-2.392994165E-1,-2.208212912E-1,-3.884988427E-1
2.056868662E0,-2.832804024E-1,-3.283303976E-1,-3.323009014E-1
2.066581995E0,-3.822376728E-1,-4.346178174E-1,-2.272351831E-1
2.076296110E0,-5.044071078E-1,-5.201364160E-1,-8.918370306E-2
2.086009339E0,-6.070294380E-1,-5.885513425E-1,2.321219631E-2
2.095721839E0,-6.497887969E-1,-6.105418205E-1,5.131116882E-2
2.105435225E0,-7.377507687E-1,-6.459710002E-1,1.221694518E-3
2.115149287E0,-9.857547879E-1,-6.386408210E-1,-7.574506104E-2
2.124862620E0,-1.387844920E0,-5.335750580E-1,-6.963659078E-2
2.134575068E0,-1.723810911E0,-4.187358022E-1,8.429691941E-2
2.144288402E0,-1.404948711E0,-4.529432356E-1,3.298575282E-1
2.154002516E0,-8.122741580E-1,-1.817270666E-1,5.717530251E-1
2.163715850E0,-5.935907960E-1,2.336490750E-1,7.073611021E-1
2.173428298E0,-1.125027895E0,2.800734639E-1,6.584933400E-1
2.183141631E0,-1.761683464E0,1.835595965E-1,4.825693369E-1
2.192855745E0,-1.578429341E0,4.816530645E-1,3.078670204E-1
2.202568975E0,-8.342646360E-1,5.757235289E-1,5.253286287E-2
2.212281527E0,-5.092939138E-1,3.961344361E-1,-3.261924386E-1
2.221994860E0,-5.325061083E-1,2.800734639E-1,-4.996730685E-1
2.231708975E0,-3.724641204E-1,2.690782249E-1,-4.190412164E-1
2.241422204E0,3.069507517E-2,4.107947946E-1,-2.748812735E-1
2.251134704E0,5.144860744E-1,6.429167390E-1,-1.942494214E-1
2.260848089E0,8.162446618E-1,5.647283196E-1,-1.319430023E-1
2.270562152E0,9.530744553E-1,2.825168669E-1,-1.343864016E-2
2.280275485E0,1.023932695E0,9.559759498E-2,1.380514801E-1
2.289987933E0,1.058140159E0,-4.734066129E-2,2.211267054E-1
2.299701266E0,1.121668339E0,-1.194206402E-1,1.612636745E-1
2.309415381E0,1.260941505E0,-8.032641560E-2,0.000000000E0
2.319128610E0,1.424648523E0,-4.367557913E-2,-1.661504507E-1
2.328841162E0,1.546818018E0,-4.611896724E-2,-2.528907657E-1
2.338554495E0,1.577360392E0,-1.365243644E-1,-2.382304370E-1
2.348268610E0,1.535822749E0,-3.014531136E-1,-1.710372269E-1
2.357981839E0,1.466186166E0,-4.138490260E-1,-8.796200156E-2
2.367694339E0,1.389219403E0,-4.431696832E-1,-1.710372418E-2
2.377407725E0,1.270714998E0,-4.309527278E-1,3.176405653E-2
2.387121787E0,1.054475069E0,-4.077405334E-1,5.375456065E-2
2.396835120E0,7.307260633E-1,-3.332171738E-1,5.864133686E-2
2.406547568E0,3.581092060E-1,-1.023169160E-1,5.008947477E-2
2.416260902E0,4.902049154E-2,2.898470163E-1,7.818844914E-2
2.425975016E0,-9.025268257E-2,7.040014863E-1,1.466033459E-1
2.435688245E0,-6.948387623E-2,9.471186996E-1,1.771457046E-1
2.445400798E0,1.114796288E-2,9.825478196E-1,1.783674061E-1
2.455114131E0,4.169032723E-2,9.837695360E-1,1.979145110E-1
2.464828245E0,-1.206423342E-2,9.935430884E-1,2.211267054E-1
2.474541475E0,-1.256818175E-1,9.226847887E-1,2.199050188E-1
2.484253975E0,-2.478512824E-1,7.858549953E-1,1.966928244E-1
2.493967360E0,-3.455868363E-1,6.453601122E-1,1.673721522E-1
2.503681423E0,-4.140017331E-1,5.390726924E-1,1.356080920E-1
2.513394756E0,-4.433223903E-1,4.621059597E-1,5.008947477E-2
2.523107204E0,-4.457657933E-1,3.863608837E-1,-9.773556143E-2
2.532820537E0,-4.421007037E-1,2.776300907E-1,-2.553341687E-1
2.542534652E0,-4.518742561E-1,1.273616552E-1,-3.787252903E-1
2.552247881E0,-4.787515402E-1,-3.756710514E-2,-4.373666346E-1
2.561960381E0,-5.325061083E-1,-2.183778882E-1,-4.165978432E-1
2.571673766E0,-6.363501549E-1,-4.590517282E-1,-3.457395434E-1
2.581387829E0,-7.829535007E-1,-7.595885396E-1,-2.553341687E-1
2.591101162E0,-9.210049510E-1,-1.023474574E0,-1.441599578E-1
2.600813610E0,-9.588775039E-1,-1.156639338E0,-2.809897438E-2
2.610526943E0,-9.368869662E-1,-1.178629756E0,5.497625470E-2
2.620241058E0,-1.041952729E0,-1.030804753E0,8.185353130E-2
2.629954287E0,-1.303395391E0,-6.618530154E-1,1.172826737E-1
2.639666839E0,-1.540556788E0,-2.794626355E-1,2.431172132E-1
2.649380173E0,-1.332715988E0,-8.032641560E-2,3.762819171E-1
2.659094235E0,-8.012788892E-1,2.654131353E-1,4.520269632E-1
2.668807568E0,-3.211529553E-1,7.272136807E-1,4.862344265E-1
2.678520016E0,-3.907895386E-1,5.488462448E-1,5.021164417E-1
2.688233350E0,-1.026070714E0,3.301629424E-1,4.227063060E-1
2.697947464E0,-1.216655016E0,6.099309921E-1,3.494046330E-1
2.707660693E0,-7.841751575E-1,8.664868474E-1,1.966928244E-1
2.717373245E0,-3.907895386E-1,7.296570539E-1,-2.504473627E-1
2.727086579E0,-3.370349705E-1,5.671716928E-1,-7.452336550E-1
2.736800641E0,-2.576248348E-1,2.849602401E-1,-9.297095537E-1
2.746513975E0,6.368082762E-2,9.315420687E-2,-9.040539265E-1
2.756226423E0,4.778352678E-1,2.840439789E-2,-8.063184023E-1
2.765939756E0,7.124006152E-1,-2.257080674E-1,-6.218425035E-1
2.775653870E0,7.930324674E-1,-4.700469673E-1,-3.274141252E-1
2.785367100E0,8.431219459E-1,-5.580089688E-1,3.542914242E-2
2.795079600E0,8.846595287E-1,-6.594096422E-1,3.115321100E-1
2.804792985E0,9.249754548E-1,-6.923953891E-1,4.056025743E-1
2.814507048E0,1.021489382E0,-5.238015056E-1,3.518480062E-1
2.824220381E0,1.154654026E0,-3.503209054E-1,2.455606014E-1
2.833932829E0,1.273158431E0,-2.880144715E-1,1.575985998E-1
2.843646162E0,1.361120462E0,-3.283303976E-1,1.026223376E-1
2.853360277E0,1.398992896E0,-3.845283389E-1,6.230641901E-2
2.863073506E0,1.377002478E0,-3.796415627E-1,3.787253052E-2
2.872786006E0,1.320804477E0,-3.344388604E-1,3.909422457E-2
2.882499339E0,1.251167893E0,-2.806843221E-1,4.153761268E-2
2.892213454E0,1.147323847E0,-2.342599183E-1,2.199050039E-2
2.901926683E0,9.506310225E-1,-1.927223057E-1,-1.466033421E-2
2.911639183E0,6.806365848E-1,-1.218640283E-1,-5.497625470E-2
2.921352568E0,4.094203711E-1,9.926267713E-2,-6.474980712E-2
2.931066631E0,2.249445021E-1,5.903838873E-1,-4.886778072E-2
2.940779964E0,1.699682474E-1,1.141368151E0,-2.932066843E-2
2.950492412E0,1.724116355E-1,1.362494826E0,3.298575059E-2
2.960205745E0,1.430909634E-1,1.197566032E0,1.368297935E-1
2.969919808E0,7.589777559E-2,8.848122358E-1,2.125748396E-1
2.979633141E0,1.359135192E-2,5.610632300E-1,2.418955117E-1
2.989345589E0,-2.916795574E-2,2.544178963E-1,2.370087355E-1
2.999058923E0,-9.025268257E-2,-1.679829881E-2,2.137965411E-1
3.008773037E0,-1.940967143E-1,-2.782409191E-1,2.052446753E-1
3.018486266E0,-2.991624475E-1,-5.250232220E-1,1.954711229E-1
3.028198766E0,-3.492519259E-1,-6.618530154E-1,1.600419879E-1
3.037912100E0,-3.504736125E-1,-6.300889254E-1,1.160609797E-1
3.047626214E0,-3.199312389E-1,-4.895940721E-1,6.474980712E-2
3.057339443E0,-2.918322682E-1,-3.662029207E-1,-6.108472589E-3
3.067051943E0,-3.016058207E-1,-3.100049794E-1,-8.551861346E-2
3.076765329E0,-3.468085229E-1,-2.965663373E-1,-1.404948682E-1
3.086479391E0,-4.066715539E-1,-2.941229641E-1,-1.588202864E-1
3.096192620E0,-4.750864506E-1,-2.635805905E-1,-1.539335102E-1
3.105905120E0,-5.312843919E-1,-2.354816198E-1,-1.539335102E-1
3.115618506E0,-6.265766025E-1,-3.051182032E-1,-1.808107942E-1
3.125332568E0,-8.660287261E-1,-4.297310412E-1,-2.296785712E-1
3.135045798E0,-1.217876673E0,-4.614951015E-1,-2.321219593E-1
3.144758298E0,-1.590646267E0,-4.614951015E-1,-1.087308154E-1
3.154471683E0,-1.561325550E0,-3.100049794E-1,1.197260618E-1
3.164185745E0,-1.158013701E0,-1.157555580E-1,3.628432751E-1
3.173898975E0,-8.929060102E-1,-1.047603041E-1,5.632011890E-1
3.183611527E0,-1.096928954E0,-4.920374751E-1,6.560499668E-1
3.193324860E0,-1.693268657E0,-4.297310412E-1,5.326588154E-1
3.203038923E0,-1.765348554E0,1.236965731E-1,3.347443044E-1
3.212752152E0,-9.772028923E-1,4.523324072E-1,7.941014320E-2
3.222464704E0,-1.574458778E-1,1.896680743E-1,-3.542914093E-1
3.232178037E0,8.811471611E-2,2.962609194E-2,-6.438329816E-1
3.241892100E0,1.345391124E-1,7.635590620E-3,-5.717530251E-1
3.251605329E0,3.092414141E-1,6.872031838E-2,-3.335226178E-1
3.261317881E0,6.708629727E-1,1.933331639E-1,-1.038440317E-1
3.271031214E0,9.127585292E-1,1.346918195E-1,8.185353130E-2
3.280745277E0,9.567395449E-1,-9.009996802E-2,2.528907657E-1
3.290458506E0,9.225320816E-1,-3.283303976E-1,3.787252903E-1
3.300171006E0,8.797727823E-1,-5.409052372E-1,3.469612300E-1
3.309884391E0,8.932114244E-1,-5.738909841E-1,1.392731816E-1
3.319598454E0,9.921686649E-1,-4.358395338E-1,-1.575985998E-1
3.329311683E0,1.114338160E0,-2.892361879E-1,-4.019374847E-1
3.339024183E0,1.207186937E0,-2.391466945E-1,-5.179984570E-1
3.348737568E0,1.225512266E0,-2.904578745E-1,-5.179984570E-1
3.358451631E0,1.191304922E0,-4.016320705E-1,-4.569137394E-1
3.368164860E0,1.163205862E0,-4.553866386E-1,-3.897205591E-1
3.377877360E0,1.132663488E0,-3.759764731E-1,-3.323009014E-1
3.387590693E0,1.067913771E0,-1.768402755E-1,-2.919849753E-1
3.397304808E0,9.604045749E-1,6.627693027E-2,-2.541124523E-1
3.407018037E0,8.125795722E-1,3.118375242E-1,-1.759240031E-1
3.416730537E0,6.183301210E-1,5.537330508E-1,-1.466033421E-2
3.426443870E0,4.155288339E-1,7.601994276E-1,1.820324808E-1
3.436157985E0,2.628170252E-1,9.349017143E-1,2.968717813E-1
3.445871214E0,1.467560530E-1,1.063179612E0,3.066453338E-1
3.455583714E0,5.146388337E-2,1.121821046E0,2.565558553E-1
3.465297048E0,-4.627167806E-2,1.054627776E0,1.575985998E-1
3.475011110E0,-1.757712960E-1,8.811471462E-1,2.321219631E-2
3.484724339E0,-3.284831047E-1,7.137750387E-1,-1.062874198E-1
3.494436839E0,-4.604261220E-1,5.891621709E-1,-1.942494214E-1
3.504150225E0,-5.422796607E-1,4.364503622E-1,-2.480039895E-1
3.513864287E0,-5.801522136E-1,1.798945218E-1,-2.907632887E-1
3.523577516E0,-5.972558856E-1,-1.340809762E-1,-3.188622594E-1
3.533290016E0,-5.960342288E-1,-3.845283389E-1,-3.261924386E-1
3.543003350E0,-5.850389600E-1,-5.152496696E-1,-3.261924386E-1
3.552717464E0,-5.728220344E-1,-5.677825212E-1,-3.335226178E-1
3.562430693E0,-5.154023767E-1,-5.543438792E-1,-3.542914093E-1
3.572143193E0,-4.311054647E-1,-4.773771465E-1,-3.432961702E-1
3.581856527E0,-3.590254784E-1,-3.857500553E-1,-2.834331393E-1
3.591570589E0,-3.064926267E-1,-3.087832928E-1,-1.954711229E-1
3.601283923E0,-3.455868363E-1,-3.075616062E-1,-1.136175916E-1
3.610996318E0,-6.473453641E-1,-3.332171738E-1,-6.474980712E-2
3.620709704E0,-1.134801507E0,-2.305948436E-1,-1.710372418E-2
3.630423766E0,-1.420830727E0,1.618745178E-2,6.963659078E-2
3.640136995E0,-1.194664478E0,6.383354217E-2,2.015796006E-1
3.649849495E0,-7.401941419E-1,8.460234851E-2,3.310792148E-1
3.659562829E0,-4.811949134E-1,1.640124917E-1,3.457395434E-1
3.669276891E0,-8.037222624E-1,-2.672456801E-1,2.528907657E-1
3.678990225E0,-1.378071427E0,-4.969242513E-1,1.966928244E-1
3.688702673E0,-1.336381078E0,1.252236869E-2,2.284568697E-1
3.698416006E0,-7.475243211E-1,3.741439581E-1,1.319430023E-1
3.708130068E0,-3.859027624E-1,-7.666133344E-2,-2.186833173E-1
3.717843298E0,-3.150444627E-1,-1.707318127E-1,-5.693096519E-1
3.727555798E0,-2.234173864E-1,-3.145863488E-2,-5.644228458E-1
3.737269131E0,-7.070557028E-2,9.315420687E-2,-3.139754832E-1
3.746983193E0,1.846285909E-1,3.985778391E-1,-8.551861346E-2
3.756696527E0,4.900522232E-1,7.614210844E-1,6.108472496E-2
3.766408923E0,7.612683773E-1,9.678874612E-1,1.575985998E-1
3.776122308E0,9.005415440E-1,8.591566682E-1,2.321219593E-1
3.785836370E0,9.274188280E-1,6.282563806E-1,2.553341687E-1
3.795549600E0,9.103151560E-1,4.022429287E-1,1.856975704E-1
3.805262100E0,9.286405444E-1,1.627907902E-1,3.542914242E-2
3.814975433E0,9.872818589E-1,-3.878879920E-2,-7.207997888E-2
3.824689495E0,1.039814711E0,-2.122694254E-1,-5.741964281E-2
3.834402725E0,1.066691995E0,-3.515425920E-1,2.199050039E-2
3.844115225E0,1.069135427E0,-4.431696832E-1,1.062874198E-1
3.853828558E0,1.065470338E0,-4.957025647E-1,1.490467340E-1
3.863542673E0,1.041036487E0,-5.164713860E-1,1.429382563E-1
3.873255902E0,9.933903813E-1,-5.018110275E-1,1.075091213E-1
3.882968402E0,9.359707236E-1,-4.358395338E-1,4.153761268E-2
3.892681735E0,8.675557971E-1,-3.271087110E-1,-2.687728032E-2
3.902395798E0,7.722636461E-1,-1.585148573E-1,-7.818844914E-2
3.912109027E0,6.390989423E-1,3.939964995E-2,-1.026223376E-1
3.921821527E0,4.790569544E-1,2.409792393E-1,-9.162709117E-2
3.931534860E0,3.703261614E-1,4.853181541E-1,-6.841489673E-2
3.941248923E0,3.642176688E-1,7.430956960E-1,-5.008947477E-2
3.950962152E0,4.020902216E-1,9.300149679E-1,-2.443389036E-2
3.960674652E0,4.375193417E-1,9.544488192E-1,2.809897438E-2
3.970387985E0,4.350759685E-1,7.394306064E-1,1.050657257E-1
3.980102048E0,3.556658030E-1,3.240544796E-1,1.869192570E-1
3.989815277E0,1.944021434E-1,-1.279724985E-1,2.553341687E-1
3.999527777E0,1.527118147E-4,-4.395045936E-1,3.139754832E-1
4.009241110E0,-1.855448484E-1,-5.421269536E-1,3.420744538E-1
4.018955225E0,-3.321481943E-1,-4.932591617E-1,3.261924386E-1
4.028668454E0,-4.115583301E-1,-3.845283389E-1,2.577775419E-1
4.038380954E0,-4.237752855E-1,-2.672456801E-1,1.343863904E-1
4.048094287E0,-4.030064642E-1,-1.646233350E-1,-1.588202827E-2
4.057808350E0,-3.859027624E-1,-9.620844573E-2,-1.514901221E-1
4.067521579E0,-3.834593594E-1,-7.421794534E-2,-2.455606014E-1
4.077234079E0,-3.944546282E-1,-1.120904684E-1,-2.748812735E-1
4.086947412E0,-4.164451063E-1,-2.171562016E-1,-2.333436459E-1
4.096661475E0,-4.640912116E-1,-3.955236077E-1,-1.441599578E-1
4.106374704E0,-5.508314967E-1,-6.105418205E-1,-2.809897438E-2
4.116087204E0,-6.632274389E-1,-7.999044657E-1,1.062874198E-1
4.125800537E0,-8.000571728E-1,-9.550597072E-1,2.284568697E-1
4.135514600E0,-1.029735804E0,-1.030804753E0,2.932066917E-1
4.145227829E0,-1.321720719E0,-8.402203918E-1,3.579564989E-1
4.154940329E0,-1.551552057E0,-4.040754735E-1,4.618005157E-1
4.164653662E0,-1.390288353E0,2.229592577E-2,5.412106514E-1
4.174367725E0,-1.006523609E0,1.481304616E-1,5.925218463E-1
4.184080954E0,-7.915053368E-1,3.521534503E-1,5.888567567E-1
4.193793454E0,-9.063445926E-1,2.922904193E-1,4.520269632E-1
4.203506787E0,-1.337755442E0,-1.072036922E-1,1.319430023E-1
4.213220850E0,-1.480693698E0,-2.709107697E-1,-1.991362125E-1
4.222934079E0,-8.941276670E-1,-8.154810965E-2,-4.679090083E-1
4.232646579E0,-2.954973578E-1,-2.122694254E-1,-8.234221339E-1
4.242359912E0,-2.112004459E-1,-1.841704547E-1,-1.064095974E0
4.252073975E0,-2.502946556E-1,-7.299624383E-2,-9.504783154E-1
4.261787204E0,-1.171299592E-1,5.405998230E-2,-6.096255779E-1
4.271499704E0,1.944021434E-1,3.069507480E-1,-1.905843467E-1
4.281213037E0,4.631749392E-1,6.233696342E-1,1.905843467E-1
4.290927100E0,5.743491650E-1,6.453601122E-1,4.092676640E-1
4.300640329E0,5.719057322E-1,2.324273884E-1,4.410317242E-1
4.310352829E0,5.670189857E-1,-7.421794534E-2,3.164188862E-1
4.320066162E0,6.195518374E-1,-1.120904684E-1,6.597150117E-2
4.329780225E0,7.295043468E-1,-1.536280811E-1,-1.856975704E-1
4.339493454E0,8.748859763E-1,-2.819060087E-1,-2.956500649E-1
4.349205954E0,9.946120381E-1,-4.236225784E-1,-2.883199155E-1
4.358919287E0,1.038593054E0,-5.396835804E-1,-2.137965411E-1
4.368633350E0,1.014159203E0,-5.616740584E-1,-1.087308154E-1
4.378346579E0,9.408574700E-1,-5.079194903E-1,6.108472589E-3
4.388059079E0,8.528954983E-1,-4.553866386E-1,1.014006436E-1
4.397772412E0,7.905890942E-1,-3.857500553E-1,1.502684206E-1
4.407486475E0,7.453863621E-1,-2.538070381E-1,1.478250325E-1
4.417199704E0,6.904101372E-1,-4.245388508E-2,1.148392856E-1
4.426912204E0,5.963396430E-1,2.116585821E-1,6.597150117E-2
4.436625537E0,4.595098495E-1,4.608842432E-1,2.565558441E-2
4.446339600E0,3.055763543E-1,7.321004272E-1,-1.099525020E-2
4.456052829E0,1.785201132E-1,1.010646820E0,-5.375456065E-2
4.465765277E0,1.308740228E-1,1.270867705E0,-1.014006436E-1
4.475478610E0,1.663031727E-1,1.448013425E0,-1.221694499E-1
4.485192673E0,2.102841735E-1,1.488329291E0,-1.099525094E-1
4.494905902E0,1.821851879E-1,1.330730796E0,-7.085828483E-2
4.504618402E0,6.368082762E-2,9.886562824E-1,-2.321219631E-2
4.514331735E0,-1.244601309E-1,5.427377820E-1,2.321219631E-2
4.524045798E0,-3.394783735E-1,1.188097894E-1,6.474980712E-2
4.533759027E0,-5.044071078E-1,-2.061609477E-1,6.474980712E-2
4.543471527E0,-5.593833923E-1,-3.698680103E-1,-6.108472589E-3
4.553184860E0,-5.031854510E-1,-3.710896969E-1,-1.038440317E-1
4.562898923E0,-3.920112252E-1,-2.745758295E-1,-1.820324808E-1
4.572612152E0,-3.333698809E-1,-1.841704547E-1,-2.186833173E-1
4.582324652E0,-3.810159862E-1,-2.024958730E-1,-2.284568697E-1
4.592037985E0,-4.946335554E-1,-3.283303976E-1,-2.260134816E-1
4.601752048E0,-6.058077812E-1,-4.822639227E-1,-2.064663768E-1
4.611465277E0,-6.534538269E-1,-5.763344169E-1,-1.575985998E-1
4.621177725E0,-6.229115129E-1,-5.519005060E-1,-8.796200156E-2
4.630891058E0,-5.337277651E-1,-4.248442650E-1,-3.909422457E-2
4.640605173E0,-5.569399595E-1,-3.295520842E-1,-3.665083647E-2
4.650318350E0,-8.318212628E-1,-1.646233350E-1,-4.764608666E-2
4.660030850E0,-1.354859233E0,8.948912472E-2,4.031591862E-2
4.669744183E0,-1.671278119E0,3.668137789E-1,2.076880634E-1
4.679458245E0,-1.341420531E0,3.655920923E-1,4.056025743E-1
4.689171475E0,-8.391514421E-1,5.170822144E-1,6.096255779E-1
4.698883975E0,-6.668924689E-1,6.942279339E-1,6.768187881E-1
4.708597308E0,-1.209324837E0,4.376720488E-1,5.338805318E-1
4.718311370E0,-1.732362866E0,4.413371384E-1,3.298575282E-1
4.728024600E0,-1.278961420E0,7.540909648E-1,1.930277348E-1
4.737737048E0,-5.178457499E-1,5.464028716E-1,-1.343864016E-2
4.747450381E0,-3.492519259E-1,1.374406368E-2,-3.689517379E-1
4.757164443E0,-4.384356141E-1,-2.305948436E-1,-5.216635466E-1
4.766877673E0,-3.529170156E-1,-3.881934285E-1,-3.872771561E-1
4.776590173E0,-3.283303976E-2,-3.710896969E-1,-1.734806150E-1
4.786303506E0,2.958027720E-1,-3.478775024E-1,-3.054236248E-2
4.796017568E0,4.863871336E-1,-4.126273096E-1,7.574506104E-2
4.805730798E0,6.073349118E-1,-4.749337435E-1,2.150182426E-1
4.815443298E0,7.527165413E-1,-5.079194903E-1,3.237490356E-1
4.825156527E0,9.176452756E-1,-4.993676245E-1,2.956500649E-1
4.834870693E0,1.130220175E0,-3.918585181E-1,1.514901221E-1
4.844583870E0,1.351346850E0,-2.220429778E-1,-6.108472589E-3
4.854296370E0,1.535822749E0,-9.254335612E-2,-8.307522535E-2
4.864009704E0,1.662878990E0,-6.200099736E-2,-7.085828483E-2
4.873723766E0,1.716633558E0,-1.010952219E-1,-1.466033421E-2
4.883436995E0,1.697086453E0,-1.646233350E-1,5.375456065E-2
4.893149495E0,1.643331885E0,-2.024958730E-1,1.026223376E-1
4.902862829E0,1.612789512E0,-1.829487532E-1,1.185043678E-1
4.912576891E0,1.587133884E0,-1.084253863E-1,9.651386738E-2
4.922290068E0,1.508945465E0,-1.557660475E-2,3.787253052E-2
4.932002568E0,1.353790283E0,5.039490014E-2,-6.474980712E-2
4.941715902E0,1.113116384E0,1.212531775E-1,-1.783674061E-1
4.951429964E0,8.394568563E-1,2.996205688E-1,-2.638860047E-1
4.961143193E0,6.183301210E-1,6.661289334E-1,-2.675510943E-1
4.970855693E0,4.937172830E-1,1.035080671E0,-1.808107942E-1
4.980568923E0,4.167505503E-1,1.038745761E0,-2.809897438E-2
4.990283037E0,3.300102353E-1,6.893411279E-1,1.209477559E-1
4.999996266E0,2.115058601E-1,2.434226274E-1,2.699944973E-1
5.009708766E0,6.245913357E-2,-9.987352788E-2,3.982724249E-1
5.019422100E0,-9.636115283E-2,-3.100049794E-1,4.630222321E-1
5.029136162E0,-2.588465214E-1,-4.224008918E-1,4.410317242E-1
5.038849391E0,-3.920112252E-1,-4.712686539E-1,3.628432751E-1
5.048561839E0,-4.225535989E-1,-4.566083252E-1,2.431172132E-1
5.058275173E0,-3.455868363E-1,-3.173351586E-1,1.050657257E-1
5.067989235E0,-2.173089087E-1,-1.084253863E-1,-3.054236248E-2
5.077702464E0,-1.085781008E-1,2.718270384E-2,-1.612636745E-1
5.087414964E0,-6.581879407E-2,4.550812021E-2,-2.822114229E-1
5.097128193E0,-7.192726433E-2,-4.367557913E-2,-3.494046330E-1
5.106842308E0,-1.085781008E-1,-1.731752008E-1,-3.261924386E-1
5.116555537E0,-1.562241912E-1,-2.867927849E-1,-2.199050188E-1
5.126268037E0,-2.209739983E-1,-3.674246371E-1,-6.474980712E-2
5.135981370E0,-3.126010895E-1,-4.407263100E-1,7.696675509E-2
5.145695433E0,-4.127800465E-1,-5.323534012E-1,1.612636745E-1
5.155408610E0,-5.141806602E-1,-6.032116413E-1,1.759240031E-1
5.165121110E0,-7.023216486E-1,-5.421269536E-1,1.258345395E-1
5.174834443E0,-9.686510563E-1,-2.428117841E-1,9.040539712E-2
5.184548506E0,-1.314390540E0,3.084778599E-2,1.832541823E-1
5.194261735E0,-1.541778445E0,5.161659420E-2,3.701734245E-1
5.203974183E0,-1.367076159E0,-5.833591148E-2,5.729747415E-1
5.213687516E0,-1.050504565E0,1.200314835E-1,7.452336550E-1
5.223401579E0,-9.857547879E-1,2.055501044E-1,6.988092661E-1
5.233114808E0,-1.417165637E0,2.055501044E-1,2.834331393E-1
5.242827308E0,-1.791004181E0,2.605263591E-1,-1.856975704E-1
5.252540537E0,-1.510014415E0,4.340069890E-1,-4.569137394E-1
5.262254652E0,-8.477032781E-1,4.547757804E-1,-6.621584296E-1
5.271967881E0,-6.033644080E-1,2.654131353E-1,-7.965448499E-1
5.281680381E0,-5.373928547E-1,-5.100574717E-2,-7.134696245E-1
5.291393714E0,-3.223746419E-1,-3.356605768E-1,-4.043808877E-1
5.301107777E0,2.596100792E-3,-4.773771465E-1,-2.687728032E-2
5.310820954E0,2.713688910E-1,-5.836645365E-1,2.382304370E-1
5.320533454E0,4.619532526E-1,-6.019899845E-1,3.836120665E-1
5.330246787E0,6.794148684E-1,-4.602734149E-1,4.337015450E-1
5.339960850E0,8.736643195E-1,-2.379250079E-1,3.811686933E-1
5.349674079E0,9.946120381E-1,6.413896102E-3,2.443388999E-1
5.359386527E0,1.076465607E0,2.214321345E-1,4.642439261E-2
5.369099860E0,1.182752967E0,3.374931216E-1,-1.258345395E-1
5.378813923E0,1.285375357E0,3.191677034E-1,-2.235700935E-1
5.388527152E0,1.325691223E0,2.055501044E-1,-2.467822880E-1
5.398239600E0,1.297592282E0,2.229592577E-2,-2.345653474E-1
5.407952933E0,1.238950968E0,-1.291942000E-1,-2.284568697E-1
5.417666995E0,1.182752967E0,-1.878355294E-1,-2.296785712E-1
5.427380225E0,1.111894727E0,-2.012741715E-1,-2.309002578E-1
5.437092673E0,9.909469485E-1,-2.367033064E-1,-2.370087355E-1
5.446806006E0,8.040276766E-1,-2.990097404E-1,-2.357870489E-1
5.456520068E0,5.584670901E-1,-3.344388604E-1,-2.076880634E-1
5.466233298E0,3.080197275E-1,-2.599155009E-1,-1.197260618E-1
5.475945745E0,1.333174109E-1,-2.290677279E-2,3.298575059E-2
5.485659079E0,9.055810422E-2,2.409792393E-1,1.747023165E-1
5.495373141E0,1.467560530E-1,3.668137789E-1,2.528907657E-1
5.505086370E0,1.882936656E-1,4.291202128E-1,2.528907657E-1
5.514798818E0,1.504211426E-1,4.743228853E-1,2.076880634E-1
5.524512152E0,2.458660305E-2,4.535540938E-1,1.392731816E-1
5.534226214E0,-1.623326540E-1,3.643703759E-1,7.696675509E-2
5.543939443E0,-3.443651497E-1,2.238755226E-1,2.076880634E-2
5.553651891E0,-4.995203316E-1,5.528167635E-2,-4.520269856E-2
5.563365225E0,-6.131379604E-1,-1.194206402E-1,-1.356080920E-1
5.573079287E0,-6.632274389E-1,-2.635805905E-1,-2.211267054E-1
5.582792516E0,-6.583406329E-1,-3.613161445E-1,-2.870981991E-1
5.592504964E0,-5.887040496E-1,-4.040754735E-1,-3.530697227E-1
5.602218298E0,-4.701996744E-1,-4.272876680E-1,-3.994941115E-1
5.611932360E0,-3.712424338E-1,-4.443913698E-1,-3.982724249E-1
5.621645589E0,-3.321481943E-1,-4.358395338E-1,-3.261924386E-1
5.631358037E0,-3.174878657E-1,-4.052971601E-1,-2.003578991E-1
5.641071370E0,-2.881672084E-1,-3.894151151E-1,-6.474980712E-2
5.650785433E0,-2.368560284E-1,-3.662029207E-1,5.741964281E-2
5.660498610E0,-1.916533262E-1,-2.916795611E-1,1.270562261E-1
5.670211110E0,-4.066715539E-1,-2.073826492E-1,1.307213157E-1
5.679924443E0,-9.014578462E-1,2.473931387E-2,1.050657257E-1
5.689638506E0,-1.348750710E0,3.680354655E-1,1.258345395E-1
5.699351683E0,-1.238645554E0,4.046863019E-1,2.199050188E-1
5.709064183E0,-8.794673681E-1,2.348707765E-1,3.567348123E-1
5.718777516E0,-6.607840061E-1,4.278984964E-1,4.630222321E-1
5.728491579E0,-8.855758309E-1,2.299840003E-1,4.495835900E-1
5.738204756E0,-1.650509238E0,8.857285604E-3,2.834331393E-1
5.747917256E0,-1.812994719E0,2.898470163E-1,1.038440317E-1
5.757630589E0,-9.857547879E-1,5.745018721E-1,-1.148392856E-1
5.767344600E0,-2.979407609E-1,4.608842432E-1,-4.935645759E-1
5.777057829E0,-2.392994165E-1,2.788517773E-1,-7.049177289E-1
5.786770329E0,-2.478512824E-1,3.970507067E-3,-5.289937258E-1
5.796483558E0,-7.681404054E-2,-5.955760926E-2,-1.722589284E-1
5.806197673E0,2.628170252E-1,6.139015034E-2,1.417165697E-1
5.815910902E0,5.987830162E-1,2.568612695E-1,2.993151546E-1
5.825623402E0,8.125795722E-1,3.069507480E-1,3.542914093E-1
5.835336631E0,9.347490072E-1,1.481304616E-1,3.958290219E-1
5.845050745E0,1.006829023E0,-4.856235534E-2,3.518480062E-1
5.854763975E0,1.066691995E0,-1.621799469E-1,1.661504507E-1
5.864476423E0,1.143658757E0,-1.499630064E-1,-7.818844914E-2
5.874189756E0,1.234064221E0,-1.047603041E-1,-2.504473627E-1
5.883903818E0,1.295148849E0,-1.267508119E-1,-3.225273490E-1
5.893617048E0,1.308587551E0,-2.073826492E-1,-3.213056624E-1
5.903329495E0,1.300035715E0,-2.953446507E-1,-2.858765125E-1
5.913042829E0,1.270714998E0,-3.442124426E-1,-2.394521236E-1
5.922756891E0,1.220625520E0,-3.381039500E-1,-1.893626451E-1
5.932470068E0,1.157097459E0,-2.696890533E-1,-1.563768983E-1
5.942182568E0,1.058140159E0,-1.768402755E-1,-1.258345395E-1
5.951895902E0,8.895463347E-1,-1.365243644E-1,-8.796200156E-2
5.961609912E0,6.684195995E-1,-7.421794534E-2,-5.497625470E-2
5.971323141E0,4.509579837E-1,1.310267299E-1,-2.443389036E-3
5.981035641E0,2.725905776E-1,4.706578255E-1,8.918370306E-2
5.990748870E0,1.809635013E-1,7.931851745E-1,1.820324808E-1
6.000462985E0,1.895153672E-1,8.738170266E-1,2.528907657E-1
6.010176214E0,2.176143378E-1,7.308787704E-1,2.834331393E-1
6.019888662E0,2.127275616E-1,5.842754245E-1,2.870981991E-1
6.029601995E0,1.528645307E-1,5.415160656E-1,2.687727809E-1
6.039316058E0,4.779879749E-2,5.256340504E-1,2.418955117E-1
6.049029287E0,-8.047912270E-2,4.401154518E-1,1.820324808E-1
6.058741735E0,-2.136438340E-1,2.617480457E-1,9.284878522E-2
6.068455068E0,-3.272614181E-1,4.917320609E-2,1.832541823E-2
6.078169131E0,-3.907895386E-1,-1.035386100E-1,-4.275930673E-2
6.087882308E0,-4.115583301E-1,-1.841704547E-1,-9.895725548E-2
6.097594808E0,-4.323271513E-1,-2.183778882E-1,-1.466033459E-1
6.107308037E0,-4.628695250E-1,-2.049392611E-1,-1.759240031E-1
6.117022152E0,-4.860817194E-1,-1.597365588E-1,-1.856975704E-1
6.126735381E0,-4.934118688E-1,-1.365243644E-1,-1.600419879E-1
6.136447881E0,-4.921901822E-1,-1.768402755E-1,-8.551861346E-2
6.146161110E0,-4.921901822E-1,-2.684673667E-1,2.443389036E-2
6.155875225E0,-5.593833923E-1,-3.845283389E-1,1.282779276E-1
6.165588454E0,-7.487460375E-1,-4.358395338E-1,1.856975704E-1
6.175300902E0,-1.039509296E0,-3.662029207E-1,2.357870489E-1
6.185014235E0,-1.203216434E0,-2.220429778E-1,2.736595869E-1
6.194728298E0,-1.019962192E0,-9.132166207E-2,2.785463631E-1
6.204441475E0,-6.913263798E-1,2.263189107E-1,2.907632887E-1
6.214153975E0,-4.897467792E-1,5.879405141E-1,3.054236174E-1
6.223867308E0,-6.766660213E-1,5.121954083E-1,2.211267054E-1
6.233581318E0,-1.045617819E0,3.765873313E-1,4.642439261E-2
6.243294548E0,-8.794673681E-1,3.191677034E-1,-1.282779276E-1
6.253007048E0,-4.592044353E-1,2.238755226E-1,-3.029802442E-1
6.262720277E0,-4.201101959E-1,-1.743968874E-1,-5.509842038E-1
6.272434391E0,-5.728220344E-1,-5.543438792E-1,-7.220214605E-1
6.282147620E0,-5.972558856E-1,-7.253811359E-1,-7.207997441E-1
6.291860068E0,-3.822376728E-1,-7.143858671E-1,-6.108472347E-1
6.301573402E0,1.162136942E-1,-4.236225784E-1,-3.811686933E-1
6.311287464E0,6.745280623E-1,-1.084253863E-1,-6.597150117E-2
6.321000693E0,9.677347541E-1,-1.035386100E-1,2.260134816E-1
6.330713141E0,9.261971712E-1,-2.635805905E-1,4.092676640E-1
6.340426475E0,7.991409302E-1,-2.867927849E-1,4.691306949E-1
6.350140537E0,8.382351398E-1,-1.805053651E-1,4.459185004E-1
6.359853714E0,1.093569279E0,2.748812549E-3,3.603998721E-1
6.369566214E0,1.409988165E0,2.263189107E-1,2.406738251E-1
6.379279548E0,1.592020631E0,3.228327632E-1,1.099525094E-1
6.388993558E0,1.601794243E0,2.422009408E-1,-2.443389036E-3
6.398706787E0,1.540709496E0,8.338065445E-2,-9.162709117E-2
6.408419235E0,1.462521076E0,-3.390202299E-2,-1.698155403E-1
6.418132568E0,1.372115612E0,-6.566607952E-2,-2.528907657E-1
6.427846631E0,1.254832983E0,-8.276980370E-2,-3.298575282E-1
6.437559808E0,1.077687263E0,-1.585148573E-1,-3.591781855E-1
6.447272308E0,8.015843034E-1,-2.867927849E-1,-3.054236174E-1
6.456985641E0,4.485146105E-1,-4.114056230E-1,-2.101314515E-1
6.466699652E0,1.223221645E-1,-4.004103839E-1,-9.895725548E-2
6.476412881E0,-7.192726433E-2,-1.853921413E-1,5.008947477E-2
6.486125381E0,-1.061347127E-1,9.681928903E-2,2.186833173E-1
6.495838610E0,-4.138490185E-2,1.994416267E-1,3.188622594E-1
6.505552725E0,1.603474095E-2,1.530172378E-1,3.213056624E-1
6.515265954E0,1.374406274E-3,1.395785958E-1,2.834331393E-1
6.524978402E0,-8.536590636E-2,1.969982386E-1,2.602209449E-1
6.534691735E0,-2.014268786E-1,2.165453583E-1,2.480039895E-1
6.544405798E0,-3.040492237E-1,1.554606259E-1,2.431172132E-1
6.554118975E0,-3.785725832E-1,6.505523622E-2,2.504473627E-1
6.563831475E0,-4.201101959E-1,3.970507067E-3,2.589992285E-1
6.573544704E0,-4.408790171E-1,-1.191152167E-2,2.431172132E-1
6.583258818E0,-4.592044353E-1,-1.313321572E-2,1.869192570E-1
6.592972048E0,-4.897467792E-1,-3.023693897E-2,1.123958975E-1
6.602684495E0,-5.337277651E-1,-7.788302749E-2,3.542914242E-2
6.612397829E0,-5.667135715E-1,-1.487413049E-1,-3.420744836E-2
6.622111891E0,-5.874823332E-1,-2.110477239E-1,-8.551861346E-2
6.631825068E0,-6.216897964E-1,-2.232646793E-1,-9.651386738E-2
6.641537568E0,-6.778877378E-1,-2.391466945E-1,-6.719319522E-2
6.651250798E0,-7.499676943E-1,-3.124483824E-1,-2.809897438E-2
6.660964912E0,-9.246700406E-1,-4.004103839E-1,-3.665083554E-3
6.670678141E0,-1.204438090E0,-4.346178174E-1,2.565558441E-2
6.680390589E0,-1.497797489E0,-2.733541429E-1,1.038440317E-1
6.690103923E0,-1.501462579E0,6.261184067E-2,2.101314515E-1
6.699817985E0,-1.099372387E0,1.933331639E-1,3.274141252E-1
6.709531162E0,-7.646280527E-1,3.961344361E-1,4.679090083E-1
6.719243662E0,-8.061656952E-1,7.516475320E-1,5.387672782E-1
6.728956891E0,-1.255749226E0,7.382088900E-1,3.555130959E-1
6.738671006E0,-1.676164865E0,2.788517773E-1,4.520269856E-2
6.748384235E0,-1.496575832E0,4.184303805E-2,-2.699944973E-1
6.758096683E0,-1.037065983E0,-4.734066129E-2,-5.473191738E-1
6.767810016E0,-9.772028923E-1,-2.403683960E-1,-7.476770282E-1
6.777524079E0,-9.515473247E-1,-5.091412067E-1,-7.085828185E-1
6.787237256E0,-6.351284385E-1,-5.885513425E-1,-4.569137394E-1
6.796949756E0,-2.160872221E-1,-3.185568452E-1,-1.307213157E-1
6.806663089E0,1.626380831E-1,4.184303805E-2,1.698155403E-1
6.816377100E0,4.362976551E-1,3.594835997E-1,4.153761268E-1
6.826090329E0,6.207735538E-1,4.486673176E-1,5.803049207E-1
6.835802777E0,7.295043468E-1,2.727433145E-1,6.157340407E-1
6.845516110E0,8.455653191E-1,9.071081877E-2,4.361449480E-1
6.855230173E0,1.012937427E0,9.559759498E-2,9.284878522E-2
6.864943350E0,1.191304922E0,1.884463727E-1,-2.773246467E-1
6.874655850E0,1.331799746E0,1.957765520E-1,-5.179984570E-1
6.884369079E0,1.405101418E0,6.627693027E-2,-5.546492934E-1
6.894083193E0,1.428313613E0,-1.353026628E-1,-4.312581718E-1
6.903796423E0,1.419761777E0,-3.576510847E-1,-2.480039895E-1
6.913508870E0,1.370893955E0,-5.360184908E-1,-9.162709117E-2
6.923222204E0,1.297592282E0,-6.471926570E-1,-7.330167107E-3
6.932936266E0,1.226734042E0,-6.985038519E-1,-1.221694518E-3
6.942649443E0,1.132663488E0,-6.960604787E-1,-5.008947477E-2
6.952361943E0,9.408574700E-1,-6.300889254E-1,-1.087308154E-1
6.962075173E0,6.586460471E-1,-4.749337435E-1,-1.380514801E-1
6.971789287E0,4.008685052E-1,-6.444438547E-2,-9.407047927E-2
6.981502516E0,2.860292196E-1,6.197045445E-1,-1.099525020E-2
6.991214964E0,3.617742956E-1,1.259872437E0,6.108472496E-2
7.000928298E0,5.193728805E-1,1.510319829E0,1.111742035E-1
7.010642360E0,5.560237169E-1,1.400367379E0,1.380514801E-1
7.020355537E0,4.436278343E-1,1.130372882E0,1.514901221E-1
7.030068037E0,2.273878902E-1,7.968502641E-1,1.673721522E-1
7.039781266E0,-6.581879407E-2,4.352286756E-1,1.856975704E-1
7.049495381E0,-3.675773442E-1,5.894676223E-2,1.661504507E-1
7.059208610E0,-6.253548861E-1,-3.087832928E-1,9.284878522E-2
7.068921058E0,-8.159392476E-1,-6.129852533E-1,1.710372418E-2
7.078634391E0,-9.234483242E-1,-8.011261821E-1,-4.520269856E-2
7.088348402E0,-9.332218766E-1,-8.157865405E-1,-1.221694499E-1
7.098061631E0,-8.501466513E-1,-7.009472251E-1,-2.137965411E-1
7.107774079E0,-7.035433054E-1,-5.433486104E-1,-2.895416021E-1
7.117487412E0,-5.435013771E-1,-3.429907262E-1,-3.078670204E-1
7.127201475E0,-4.152234197E-1,-1.743968874E-1,-2.712161839E-1
7.136914652E0,-3.663556576E-1,-1.316375881E-1,-2.028012872E-1
7.146627152E0,-3.859027624E-1,-1.316375881E-1,-1.221694499E-1
7.156340381E0,-4.030064642E-1,-1.340809762E-1,-4.520269856E-2
7.166054495E0,-4.873034060E-1,-2.330382317E-1,-2.076880634E-2
7.175767725E0,-7.316423059E-1,-2.428117841E-1,-7.941014320E-2
7.185480173E0,-1.051726222E0,-7.299624383E-2,-9.284878522E-2
7.195193506E0,-1.160457134E0,-8.887827396E-2,-7.330167107E-3
7.204907568E0,-9.662076235E-1,-3.686463237E-1,1.343863904E-1
7.214620745E0,-6.363501549E-1,-1.304158866E-1,3.139754832E-1
7.224333245E0,-4.494308829E-1,1.737860441E-1,4.618005157E-1
7.234046475E0,-8.122741580E-1,-2.391466945E-1,4.666872919E-1
7.243760589E0,-1.338824511E0,-5.079194903E-1,2.785463631E-1
7.253473818E0,-1.188556075E0,-1.475196183E-1,-8.551862091E-3
7.263186266E0,-6.241331697E-1,-9.468132630E-3,-3.139754832E-1
7.272899600E0,-3.639122546E-1,-3.112266660E-1,-5.851916671E-1
7.282613610E0,-2.722851634E-1,-2.061609477E-1,-5.778614879E-1
7.292326839E0,-9.513945878E-2,-1.801999472E-2,-3.445178568E-1
7.302039287E0,2.066190839E-1,2.495311052E-1,-1.417165697E-1
7.311752620E0,5.670189857E-1,7.125533223E-1,-3.787253052E-2
7.321466683E0,7.979192138E-1,1.057071209E0,4.398100078E-2
7.331179860E0,8.345700502E-1,1.019198656E0,1.612636745E-1
7.340892360E0,7.869240046E-1,7.577560544E-1,2.480039895E-1
7.350605589E0,7.563816309E-1,5.024218559E-1,2.223484069E-1
7.360319704E0,7.881456614E-1,3.338280320E-1,5.375456065E-2
7.370032933E0,8.883246183E-1,2.348707765E-1,-1.294996142E-1
7.379745381E0,1.019045949E0,1.236965731E-1,-2.028012872E-1
7.389458714E0,1.124111652E0,-8.246437646E-3,-2.223484069E-1
7.399172725E0,1.175422788E0,-1.401894391E-1,-2.284568697E-1
7.408885954E0,1.191304922E0,-2.513636351E-1,-2.052446753E-1
7.418598454E0,1.181531310E0,-3.087832928E-1,-1.588202864E-1
7.428311683E0,1.121668339E0,-3.185568452E-1,-1.172826737E-1
7.438025798E0,1.020267606E0,-2.892361879E-1,-1.050657257E-1
7.447738975E0,9.152019024E-1,-1.719534993E-1,-9.529217333E-2
7.457451475E0,8.199097514E-1,2.107422985E-2,-5.497625470E-2
7.467164704E0,6.916317940E-1,2.312056869E-1,2.932066843E-2
7.476878818E0,5.120427012E-1,4.731011987E-1,1.258345395E-1
7.486592048E0,3.348970115E-1,7.504258752E-1,1.844758689E-1
7.496304495E0,2.127275616E-1,9.715525508E-1,1.832541823E-1
7.506017829E0,1.345391124E-1,1.052184463E0,1.563768983E-1
7.515731839E0,4.657710344E-2,9.764393568E-1,1.624853760E-1
7.525445068E0,-5.604523420E-2,8.041804433E-1,1.869192570E-1
7.535157516E0,-1.391204596E-1,6.331431866E-1,1.759240031E-1
7.544870850E0,-1.794363856E-1,5.060869455E-1,1.172826737E-1
7.554584912E0,-1.965401024E-1,4.022429287E-1,9.773556143E-3
7.564298089E0,-2.283041626E-1,2.861819267E-1,-1.197260618E-1
7.574010589E0,-2.625116110E-1,1.517955512E-1,-2.553341687E-1
7.583723818E0,-3.040492237E-1,3.451287001E-2,-3.726168275E-1
7.593437933E0,-3.407000601E-1,-5.222744122E-2,-4.349232614E-1
7.603151162E0,-3.773508966E-1,-1.646233350E-1,-4.275930822E-1
7.612863610E0,-4.384356141E-1,-3.417690396E-1,-3.518480062E-1
7.622576943E0,-5.361711979E-1,-5.457920432E-1,-2.431172132E-1
7.632290954E0,-6.424586177E-1,-7.266027927E-1,-1.331647038E-1
7.642004183E0,-7.230904698E-1,-8.683193922E-1,-2.199050039E-2
7.651716631E0,-7.719582319E-1,-9.636115432E-1,7.818844914E-2
7.661429964E0,-7.695148587E-1,-1.008814216E0,1.392731816E-1
7.671144027E0,-7.853968740E-1,-9.904888272E-1,1.392731816E-1
7.680857204E0,-8.977927566E-1,-7.889092565E-1,1.001789495E-1
7.690569652E0,-1.150683522E0,-4.077405334E-1,1.478250325E-1
7.700282985E0,-1.417165637E0,2.840439789E-2,3.127537966E-1
7.709997048E0,-1.335159421E0,3.436015844E-1,4.691306949E-1
7.719710225E0,-1.046839476E0,5.451811552E-1,6.169557571E-1
7.729422725E0,-9.662076235E-1,9.788827300E-1,7.537854910E-1
7.739135954E0,-1.081046939E0,1.127929449E0,6.523848772E-1
7.748850068E0,-1.234980464E0,5.476245880E-1,2.357870489E-1
7.758563298E0,-1.182447553E0,1.579040140E-1,-2.944283783E-1
7.768275745E0,-7.707365155E-1,2.079934925E-1,-6.755970716E-1
7.777989079E0,-5.166240931E-1,-1.801999472E-2,-9.040539265E-1
7.787703089E0,-4.152234197E-1,-2.892361879E-1,-9.126058221E-1
7.797416318E0,-2.478512824E-1,-4.333961308E-1,-6.658235192E-1
7.807128766E0,-1.328592747E-2,-3.393256664E-1,-2.528907657E-1
7.816842100E0,2.799207568E-1,-1.169772521E-1,2.309002578E-1
7.826556162E0,5.450284481E-1,5.772506446E-2,6.059604883E-1
7.836269339E0,7.502731681E-1,9.559759498E-2,7.721109390E-1
7.845981787E0,9.127585292E-1,-9.468132630E-3,7.317950130E-1
7.855695120E0,1.070357084E0,-1.206423342E-1,4.911212027E-1
7.865409183E0,1.232842445E0,-8.643488586E-2,1.404948682E-1
7.875122360E0,1.375780702E0,2.596100792E-2,-1.478250325E-1
7.884834860E0,1.479624748E0,6.872031838E-2,-2.834331393E-1
7.894548089E0,1.522384048E0,1.527118147E-3,-2.699944973E-1
7.904262204E0,1.484511495E0,-1.365243644E-1,-1.624853760E-1
7.913975381E0,1.411209822E0,-3.112266660E-1,-5.497625470E-2
7.923687881E0,1.342795014E0,-4.150707126E-1,-1.099525020E-2
7.933401110E0,1.282931924E0,-3.796415627E-1,-3.420744836E-2
7.943115225E0,1.209630251E0,-2.660239935E-1,-8.796200156E-2
7.952828454E0,1.074022174E0,-1.389677525E-1,-1.282779276E-1
7.962540902E0,8.419002295E-1,-1.801999472E-2,-1.343863904E-1
7.972254235E0,5.425850749E-1,1.542389393E-1,-9.529217333E-2
7.981968245E0,2.677038014E-1,5.183038712E-1,9.773556143E-3
7.991681475E0,9.300149232E-2,1.020420313E0,1.551551968E-1
8.001393923E0,4.902049154E-2,1.410140872E0,2.846548259E-1
8.011107256E0,8.811471611E-2,1.470003963E0,3.799470067E-1
8.020821266E0,1.064401343E-1,1.219556570E0,4.165978432E-1
8.030534495E0,5.635065958E-2,8.677085042E-1,3.762819171E-1
8.040246943E0,-4.627167806E-2,5.683933496E-1,2.895416021E-1
8.049960277E0,-1.623326540E-1,2.996205688E-1,1.869192570E-1
8.059674287E0,-2.515163720E-1,6.994201243E-2,6.597150117E-2
8.069387516E0,-2.771719396E-1,-8.154810965E-2,-6.230641901E-2
8.079099964E0,-2.124221325E-1,-1.316375881E-1,-1.771457046E-1
8.088813298E0,-1.012479365E-1,-9.865183383E-2,-2.785463631E-1
8.098527360E0,-4.734066315E-3,-6.200099736E-2,-3.799470067E-1
8.108240537E0,3.436015919E-2,-7.055285573E-2,-4.850127101E-1
8.117952985E0,5.039489828E-3,-1.133121699E-1,-5.619794726E-1
8.127666318E0,-6.093201414E-2,-1.792836636E-1,-5.473191738E-1
8.137380381E0,-1.452289373E-1,-2.819060087E-1,-4.251496792E-1
8.147093558E0,-2.661767006E-1,-4.395045936E-1,-2.321219593E-1
8.156806006E0,-4.396573007E-1,-6.423059106E-1,-2.199050039E-2
8.166519339E0,-6.375718117E-1,-9.049702287E-1,1.588202864E-1
8.176233402E0,-8.953493834E-1,-1.236049414E0,2.809897363E-1
8.185946579E0,-1.233758807E0,-1.400978208E0,3.310792148E-1
8.195659079E0,-1.574764252E0,-1.198176861E0,3.884988427E-1
8.205372308E0,-1.678608298E0,-4.578300118E-1,4.789042473E-1
8.215086423E0,-1.338824511E0,2.507528067E-1,5.717530251E-1
8.224799600E0,-9.063445926E-1,7.259919643E-1,6.670452356E-1
8.234512100E0,-7.426375747E-1,7.858549953E-1,7.281299233E-1
8.244225329E0,-1.288735032E0,4.706578255E-1,6.401679516E-1
8.253939443E0,-2.012130976E0,2.764083743E-1,3.200839758E-1
8.263652620E0,-1.714037418E0,6.649072170E-1,-2.199050039E-2
8.273365120E0,-8.464815617E-1,9.752176404E-1,-3.286358118E-1
8.283078350E0,-4.469874799E-1,7.834116220E-1,-7.696675658E-1
8.292792464E0,-5.422796607E-1,2.067717910E-1,-1.004232883E0
8.302505641E0,-5.044071078E-1,-2.977880239E-1,-8.637380004E-1
8.312218141E0,-1.146865711E-1,-3.539859951E-1,-5.338805318E-1
8.321931370E0,3.605526090E-1,-3.698680103E-1,-1.893626451E-1
8.331645485E0,6.977402568E-1,-4.040754735E-1,1.429382563E-1
8.341358714E0,9.090934396E-1,-3.026748300E-1,3.982724249E-1
8.351071162E0,1.017824292E0,-4.028537571E-1,5.253286362E-1
8.360784391E0,1.089904189E0,-4.737120569E-1,4.862344265E-1
8.370498506E0,1.199856758E0,-3.258870244E-1,3.237490356E-1
8.380211683E0,1.345238328E0,-9.254335612E-2,9.407047927E-2
8.389924183E0,1.458855987E0,9.681928903E-2,-1.099525094E-1
8.399637412E0,1.491841674E0,1.542389393E-1,-1.954711229E-1
8.409351527E0,1.452747464E0,7.971556485E-2,-1.588202864E-1
8.419064704E0,1.379445791E0,-9.009996802E-2,-8.796200156E-2
8.428777204E0,1.315917730E0,-2.953446507E-1,-3.420744836E-2
8.438490433E0,1.231620789E0,-4.297310412E-1,1.099525020E-2
8.448204548E0,1.104564548E0,-4.847072959E-1,6.108472496E-2
8.457917725E0,9.115368128E-1,-4.627167881E-1,1.148392856E-1
8.467630225E0,6.317687631E-1,-3.478775024E-1,1.478250325E-1
8.477343454E0,3.300102353E-1,-1.023169160E-1,1.539335102E-1
8.487057568E0,1.052184403E-1,2.751866877E-1,1.270562261E-1
8.496770745E0,4.169032723E-2,6.441384554E-1,1.233911440E-1
8.506483245E0,1.039967462E-1,8.261709213E-1,1.673721522E-1
8.516196475E0,1.516428292E-1,7.565343380E-1,1.930277348E-1
8.525910589E0,1.149920002E-1,5.134171247E-1,1.710372269E-1
8.535623766E0,1.374406274E-3,2.495311052E-1,1.441599578E-1
8.545336266E0,-1.403421611E-1,4.184303805E-2,1.453816444E-1
8.555049495E0,-2.502946556E-1,-1.340809762E-1,1.575985998E-1
8.564763610E0,-3.199312389E-1,-2.892361879E-1,1.478250325E-1
8.574476787E0,-3.736858070E-1,-3.894151151E-1,9.040539712E-2
8.584189235E0,-4.115583301E-1,-4.052971601E-1,-8.551862091E-3
8.593902568E0,-3.968980014E-1,-3.405473530E-1,-1.429382563E-1
8.603616631E0,-3.492519259E-1,-2.440334857E-1,-2.846548259E-1
8.613329808E0,-3.101576865E-1,-2.000524700E-1,-3.823903799E-1
8.623042256E0,-2.918322682E-1,-2.464768738E-1,-4.104893506E-1
8.632755589E0,-2.881672084E-1,-3.576510847E-1,-3.603998721E-1
8.642469652E0,-3.162661791E-1,-4.981459379E-1,-2.492256761E-1
8.652182829E0,-3.846810758E-1,-6.276455522E-1,-1.136175916E-1
8.661895277E0,-4.787515402E-1,-7.253811359E-1,-6.108472589E-3
8.671608610E0,-5.801522136E-1,-7.864658237E-1,4.275930673E-2
8.681322620E0,-7.084301114E-1,-8.170081973E-1,2.809897438E-2
8.691035850E0,-1.032179117E0,-7.962393761E-1,-3.176405653E-2
8.700748298E0,-1.435491085E0,-5.457920432E-1,-4.520269856E-2
8.710461631E0,-1.617523551E0,-1.499630064E-1,7.452336699E-2
8.720175641E0,-1.393953443E0,9.926267713E-2,2.651077211E-1
8.729888870E0,-1.078603506E0,9.681928903E-2,4.654656053E-1
8.739601318E0,-9.979717135E-1,1.896680743E-1,6.413896084E-1
8.749314652E0,-1.380514860E0,7.482878864E-2,7.403468490E-1
8.759028662E0,-2.069550514E0,-1.853921413E-1,6.719319820E-1
8.768741891E0,-2.140408754E0,-3.894151151E-1,5.473191738E-1
8.778454339E0,-1.398840189E0,2.678565085E-1,2.822114229E-1
8.788167568E0,-5.911474228E-1,7.027797699E-1,-2.003578991E-1
8.797881683E0,-3.626905680E-1,7.406523228E-1,-7.574505806E-1
8.807594860E0,-3.578037918E-1,5.158604980E-1,-1.015228152E0
8.817307360E0,-2.234173864E-1,4.657710493E-1,-9.187142849E-1
8.827020589E0,9.055810422E-2,6.930062175E-1,-6.157340407E-1
8.836734704E0,4.301891923E-1,8.237275481E-1,-2.785463631E-1
8.846447881E0,6.635328531E-1,7.223268747E-1,3.665083554E-3
8.856160381E0,7.991409302E-1,4.743228853E-1,2.150182426E-1
8.865873610E0,9.042066336E-1,2.031067163E-1,3.115321100E-1
8.875587725E0,9.921686649E-1,3.939964995E-2,2.748812735E-1
8.885300902E0,1.081352353E0,-9.162708884E-4,1.783674061E-1
8.895013350E0,1.175422788E0,-9.468132630E-3,1.221694499E-1
8.904726683E0,1.243837714E0,-1.218640283E-1,1.380514801E-1
8.914440693E0,1.275601745E0,-3.613161445E-1,1.759240031E-1
8.924153923E0,1.296370625E0,-6.080984473E-1,1.734806150E-1
8.933866370E0,1.309809208E0,-7.204943299E-1,1.258345395E-1
8.943579704E0,1.315917730E0,-7.253811359E-1,7.207997888E-2
8.953293714E0,1.308587551E0,-6.642963886E-1,2.932066843E-2
8.963006943E0,1.273158431E0,-5.494571328E-1,-1.221694518E-3
8.972719391E0,1.202300072E0,-4.236225784E-1,-1.221694518E-3
8.982432620E0,1.059361815E0,-3.161134422E-1,1.221694518E-2
8.992146735E0,8.370134830E-1,-1.805053651E-1,-2.443389036E-3
9.001859912E0,5.926745534E-1,1.078145429E-1,-4.886778072E-2
9.011572412E0,4.045335948E-1,6.197045445E-1,-9.407047927E-2
9.021285641E0,3.581092060E-1,1.212226391E0,-1.172826737E-1
9.030999756E0,4.497362971E-1,1.592173338E0,-1.123958975E-1
9.040712933E0,5.389199853E-1,1.584843159E0,-6.597150117E-2
9.050425381E0,4.778352678E-1,1.200009465E0,3.909422457E-2
9.060138714E0,2.701472044E-1,6.600204706E-1,1.637070626E-1
9.069852725E0,-2.550287358E-2,1.701209545E-1,2.736595869E-1
9.079565954E0,-3.309265077E-1,-1.902789176E-1,3.323009014E-1
9.089278402E0,-5.691569448E-1,-3.930802047E-1,3.139754832E-1
9.098991735E0,-7.010999322E-1,-4.468347728E-1,2.247917950E-1
9.108705745E0,-7.340856791E-1,-4.370612204E-1,8.796200156E-2
9.118418975E0,-7.035433054E-1,-4.187358022E-1,-6.108472496E-2
9.128131423E0,-6.339067221E-1,-3.771981895E-1,-2.028012872E-1
9.137844652E0,-5.398362875E-1,-3.234436214E-1,-3.176405728E-1
9.147558766E0,-4.628695250E-1,-2.965663373E-1,-3.775036037E-1
9.157271943E0,-4.323271513E-1,-3.075616062E-1,-3.787252903E-1
9.166984443E0,-4.506525695E-1,-3.417690396E-1,-3.042019308E-1
9.176697673E0,-4.970769584E-1,-4.260659516E-1,-1.575985998E-1
9.186411735E0,-5.447230339E-1,-5.787777901E-1,7.330167107E-3
9.196124964E0,-6.339067221E-1,-7.351546884E-1,1.417165697E-1
9.205837412E0,-8.318212628E-1,-7.327113152E-1,2.125748396E-1
9.215550745E0,-1.129914761E0,-5.604523420E-1,2.932066917E-1
9.225264756E0,-1.370741248E0,-3.869717419E-1,4.227063060E-1
9.234977985E0,-1.320499063E0,-2.757975459E-1,5.314370990E-1
9.244690433E0,-1.092042208E0,-3.390202299E-2,6.401679516E-1
9.254403662E0,-8.550334573E-1,4.425588250E-1,7.562289238E-1
9.264117777E0,-8.709154725E-1,3.912476599E-1,7.733326554E-1
9.273830954E0,-1.209324837E0,4.184303805E-2,5.253286362E-1
9.283543402E0,-1.232537031E0,1.994416267E-1,1.233911440E-1
9.293256735E0,-7.010999322E-1,3.826957941E-1,-2.186833173E-1
9.302970745E0,-2.270824611E-1,3.826957941E-1,-4.776825607E-1
9.312683975E0,1.725643501E-2,4.413371384E-1,-5.925218463E-1
9.322396423E0,2.457133085E-1,4.230117202E-1,-5.619794726E-1
9.332109652E0,5.645755529E-1,6.294780970E-1,-4.544703662E-1
9.341823766E0,8.455653191E-1,8.762603998E-1,-3.542914093E-1
9.351536943E0,9.457442760E-1,9.373451471E-1,-2.626643181E-1
9.361249443E0,9.029849768E-1,7.418739796E-1,-1.307213157E-1
9.370962673E0,7.966975570E-1,3.949127495E-1,-1.099525020E-2
9.380676787E0,7.075138092E-1,9.804098308E-2,-1.466033421E-2
9.390389964E0,6.635328531E-1,-8.399149776E-2,-1.490467340E-1
9.400102412E0,6.940752268E-1,-1.780619770E-1,-2.822114229E-1
9.409815745E0,7.820371985E-1,-2.073826492E-1,-3.029802442E-1
9.419529756E0,8.773293495E-1,-2.122694254E-1,-2.382304370E-1
9.429242933E0,9.298622608E-1,-2.672456801E-1,-1.466033459E-1
9.438955433E0,9.298622608E-1,-3.442124426E-1,-5.741964281E-2
9.448668662E0,8.956547976E-1,-4.065188468E-1,2.321219631E-2
9.458382777E0,8.663341403E-1,-4.321744442E-1,9.040539712E-2
9.468095954E0,8.577822447E-1,-3.991886973E-1,1.368297935E-1
9.477808402E0,8.333483934E-1,-3.222219348E-1,1.453816444E-1
9.487521735E0,7.624900937E-1,-1.963873953E-1,1.172826737E-1
9.497235745E0,6.427640319E-1,-2.046338283E-2,9.162709117E-2
9.506948975E0,5.279247165E-1,2.837385535E-1,5.986303091E-2
9.516661423E0,4.705050886E-1,7.272136807E-1,2.443389036E-3
9.526374652E0,4.692834020E-1,1.142589808E0,-6.963659078E-2
9.536088766E0,4.729484916E-1,1.331952453E0,-1.270562261E-1
9.545801943E0,4.069769979E-1,1.253764033E0,-1.441599578E-1
9.555514391E0,2.493783981E-1,9.666658044E-1,-1.062874198E-1
9.565227725E0,7.482878864E-3,5.683933496E-1,-1.710372418E-2
9.574941735E0,-2.930539846E-1,1.359135211E-1,8.918370306E-2
9.584654964E0,-5.874823332E-1,-2.330382317E-1,1.588202864E-1
9.594367412E0,-7.792884111E-1,-4.798205197E-1,1.356080920E-1
9.604080641E0,-8.257128000E-1,-5.812211633E-1,3.909422457E-2
9.613794756E0,-7.670714259E-1,-5.347967744E-1,-8.674030751E-2
9.623507933E0,-6.742226481E-1,-4.175141156E-1,-2.052446753E-1
9.633220381E0,-5.813738704E-1,-3.332171738E-1,-3.042019308E-1
9.642933714E0,-5.215108395E-1,-3.454341292E-1,-3.787252903E-1
9.652647725E0,-4.921901822E-1,-4.504998624E-1,-3.970507085E-1
9.662360902E0,-4.677563012E-1,-6.032116413E-1,-3.432961702E-1
9.672073402E0,-4.359922409E-1,-6.985038519E-1,-2.235700935E-1
9.681786631E0,-4.042281806E-1,-6.777350307E-1,-5.864133686E-2
9.691500693E0,-3.724641204E-1,-6.374191046E-1,1.123958975E-1
9.701213923E0,-4.237752855E-1,-6.520794630E-1,2.040229887E-1
9.710926370E0,-6.742226481E-1,-5.751127005E-1,1.966928244E-1
9.720639600E0,-1.118919492E0,-3.943018913E-1,2.162399292E-1
9.730353714E0,-1.426939249E0,-2.061609477E-1,2.932066917E-1
9.740066891E0,-1.298508525E0,-7.788302749E-2,4.153761268E-1
9.749779339E0,-1.000415087E0,3.264978528E-1,5.485408306E-1
9.759492673E0,-8.904625773E-1,6.514685750E-1,6.035171151E-1
9.769206683E0,-1.248419046E0,4.767662883E-1,5.546492934E-1
9.778919912E0,-1.544221878E0,1.945548505E-1,4.227063060E-1
9.788632360E0,-1.169008970E0,3.900259733E-1,2.015796006E-1
9.798345589E0,-4.701996744E-1,3.973561525E-1,-1.172826737E-1
9.808059704E0,-1.708845198E-1,2.617480457E-1,-4.715740979E-1
9.817772881E0,-7.437065244E-2,1.554606259E-1,-6.206207871E-1
9.827485329E0,8.933641016E-2,6.261184067E-2,-5.265503526E-1
9.837198662E0,3.434488773E-1,1.127013192E-1,-3.139754832E-1
9.846912673E0,6.378772259E-1,3.387148082E-1,-9.040539712E-2
9.856625850E0,8.443436027E-1,5.317425132E-1,1.185043678E-1
9.866338350E0,9.090934396E-1,4.621059597E-1,3.017585576E-1
9.876051579E0,8.980981708E-1,2.629697323E-1,4.019374847E-1
9.885765641E0,8.761076927E-1,5.528167635E-2,3.469612300E-1
9.895478870E0,9.005415440E-1,-9.376505762E-2,1.453816444E-1
9.905191318E0,9.836167693E-1,-1.524063945E-1,-1.123958975E-1
9.914904548E0,1.083795786E0,-1.841704547E-1,-2.785463631E-1
9.924618662E0,1.158319116E0,-2.709107697E-1,-3.151971996E-1
9.934331839E0,1.180309653E0,-3.955236077E-1,-2.761029601E-1
9.944044287E0,1.175422788E0,-4.785988331E-1,-1.893626451E-1
9.953757516E0,1.149767280E0,-4.883723855E-1,-8.429691941E-2
9.963471631E0,1.078908920E0,-4.492781460E-1,2.443389036E-3
9.973184808E0,9.420791864E-1,-3.943018913E-1,5.619794875E-2
9.982897256E0,7.233958840E-1,-2.990097404E-1,9.284878522E-2
9.992610589E0,4.876088202E-1,-1.353026628E-1,1.514901221E-1
1.000232460E1,3.373403847E-1,1.566823274E-1,2.357870489E-1
1.001203783E1,2.860292196E-1,5.940489769E-1,2.883199155E-1
1.002175028E1,2.909159958E-1,1.039967418E0,2.980934680E-1
1.003146351E1,3.177932799E-1,1.331952453E0,2.870981991E-1
1.004117762E1,3.300102353E-1,1.412584305E0,2.492256761E-1
1.005089080E1,2.713688910E-1,1.245212078E0,2.052446753E-1
1.006060325E1,1.333174109E-1,9.324583411E-1,1.673721522E-1
1.007031648E1,-5.604523420E-2,5.891621709E-1,1.197260618E-1
1.008003059E1,-2.637332976E-1,2.593046725E-1,5.741964281E-2
1.008974377E1,-4.604261220E-1,-6.077930331E-2,-1.343864016E-2
1.009945621E1,-6.155813336E-1,-3.649812341E-1,-1.038440317E-1
1.010916955E1,-7.072083950E-1,-5.922164321E-1,-2.186833173E-1
1.011888356E1,-6.998782754E-1,-6.447492838E-1,-3.555130959E-1
1.012859674E1,-5.911474228E-1,-5.494571328E-1,-4.752391577E-1
1.013830918E1,-3.920112252E-1,-3.771981895E-1,-5.619794726E-1
1.014802252E1,-1.488940120E-1,-1.890572309E-1,-5.949652195E-1
1.015773653E1,4.291202128E-2,-8.276980370E-2,-5.460974574E-1
1.016744970E1,1.235438585E-1,-1.108687744E-1,-4.214846194E-1
1.017716220E1,8.811471611E-2,-2.672456801E-1,-2.589992285E-1
1.018687543E1,2.596100792E-3,-4.602734149E-1,-1.026223376E-1
1.019658950E1,-1.097997949E-1,-6.288672686E-1,1.343864016E-2
1.020630272E1,-3.687990308E-1,-7.437065244E-1,4.886778072E-2
1.021601517E1,-7.255338430E-1,-6.203153729E-1,5.131116882E-2
1.022572840E1,-1.045617819E0,-4.187358022E-1,1.490467340E-1
1.023544252E1,-9.674293399E-1,-3.588727713E-1,3.103103936E-1
1.024515569E1,-7.695148587E-1,-4.004103839E-1,4.801259339E-1
1.025486814E1,-6.656708121E-1,-3.634541109E-2,6.523848772E-1
1.026458137E1,-8.403730989E-1,1.065928489E-1,7.647807598E-1
1.027429549E1,-1.396396875E0,1.921114624E-1,5.741963983E-1
1.028400866E1,-1.417165637E0,6.013791561E-1,1.123958975E-1
1.029372111E1,-6.290199757E-1,9.263498783E-1,-4.398100376E-1
1.030343434E1,-2.061609551E-2,3.729222417E-1,-1.000567794E0
1.031314845E1,-4.749337584E-2,-4.123219103E-2,-1.148392797E0
1.032286163E1,-9.636115283E-2,-2.525853515E-1,-8.979454637E-1
1.033257408E1,9.422318637E-2,-2.990097404E-1,-5.399889946E-1
1.034228741E1,4.570664763E-1,-2.244863659E-1,-1.942494214E-1
1.035200142E1,7.600467205E-1,-7.543963939E-2,9.407047927E-2
1.036171460E1,8.431219459E-1,-1.108687744E-1,3.213056624E-1
1.037142705E1,8.174663186E-1,-2.562504113E-1,4.520269632E-1
1.038114038E1,8.162446618E-1,-3.075616062E-1,4.850127101E-1
1.039085439E1,8.309049606E-1,-3.307738006E-1,4.092676640E-1
1.040056757E1,8.394568563E-1,-3.784198761E-1,2.504473627E-1
1.041028007E1,8.577822447E-1,-4.028537571E-1,1.014006436E-1
1.041999330E1,8.834378719E-1,-3.637595475E-1,-8.551862091E-3
1.042970736E1,9.029849768E-1,-2.880144715E-1,-8.918370306E-2
1.043942059E1,9.261971712E-1,-2.098260373E-1,-1.575985998E-1
1.044913304E1,9.384140968E-1,-1.084253863E-1,-1.856975704E-1
1.045884627E1,9.139801860E-1,-3.359660041E-3,-1.710372269E-1
1.046856033E1,8.284615874E-1,7.605048269E-2,-1.136175916E-1
1.047827356E1,6.855233312E-1,1.224748790E-1,-1.954711229E-2
1.048798601E1,5.376983285E-1,2.079934925E-1,9.773556143E-2
1.049769924E1,4.253024161E-1,3.973561525E-1,2.186833173E-1
1.050741330E1,3.532224298E-1,6.636855602E-1,3.151971996E-1
1.051712653E1,3.165715933E-1,8.579349518E-1,3.762819171E-1
1.052683898E1,2.872509360E-1,8.921424150E-1,3.848337829E-1
1.053655220E1,2.286095917E-1,7.919634581E-1,3.420744538E-1
1.054626627E1,1.479777545E-1,6.184828281E-1,2.626643181E-1
1.055597950E1,5.146388337E-2,4.059080184E-1,1.661504507E-1
1.056569194E1,-4.749337584E-2,1.408002973E-1,6.841489673E-2
1.057540517E1,-1.342336833E-1,-1.047603041E-1,-4.153761268E-2
1.058511924E1,-2.075353563E-1,-2.831276953E-1,-1.490467340E-1
1.059483246E1,-2.625116110E-1,-4.040754735E-1,-2.333436459E-1
1.060454491E1,-2.906105816E-1,-4.614951015E-1,-3.029802442E-1
1.061425814E1,-3.101576865E-1,-4.517215490E-1,-3.542914093E-1
1.062397220E1,-3.309265077E-1,-3.930802047E-1,-3.738385141E-1
1.063368543E1,-3.529170156E-1,-3.173351586E-1,-3.457395434E-1
1.064339788E1,-3.907895386E-1,-2.770192325E-1,-2.626643181E-1
1.065311111E1,-4.469874799E-1,-3.258870244E-1,-1.551551968E-1
1.066282517E1,-4.958552718E-1,-4.431696832E-1,-5.497625470E-2
1.067253840E1,-5.105155706E-1,-5.861079693E-1,3.054236248E-2
1.068225085E1,-5.019637346E-1,-6.923953891E-1,8.918370306E-2
1.069196408E1,-5.471664071E-1,-7.412631512E-1,1.075091213E-1
1.070167814E1,-7.389724851E-1,-6.642963886E-1,9.529217333E-2
1.071139137E1,-1.077381849E0,-3.271087110E-1,9.651386738E-2
1.072110382E1,-1.316833973E0,1.542389393E-1,1.404948682E-1
1.073081705E1,-1.125027895E0,4.083513916E-1,2.015796006E-1
1.074053111E1,-8.525900841E-1,5.916055441E-1,2.870981991E-1
1.075024434E1,-8.342646360E-1,9.068027735E-1,3.762819171E-1
1.075995679E1,-1.129914761E0,1.027750492E0,3.836120665E-1
1.076967002E1,-1.530783176E0,8.163973689E-1,1.209477559E-1
1.077938408E1,-1.398840189E0,8.909206986E-1,-4.544703662E-1
1.078909731E1,-9.136747718E-1,9.104678631E-1,-9.761339426E-1
1.079880976E1,-5.825955868E-1,5.952706337E-1,-1.345085621E0
1.080852299E1,-4.066715539E-1,2.495311052E-1,-1.522231340E0
1.081823705E1,-3.064926267E-1,7.849387079E-2,-1.340198874E0
1.082795022E1,-1.085781008E-1,3.069507480E-1,-8.820634484E-1
1.083766273E1,2.078407854E-1,6.111527085E-1,-3.286358118E-1
1.084737595E1,5.340332389E-1,7.504258752E-1,1.918060333E-1
1.085709002E1,7.747070193E-1,7.504258752E-1,5.949652195E-1
1.086680324E1,8.736643195E-1,5.830537081E-1,8.405258060E-1
1.087651569E1,8.846595287E-1,3.069507480E-1,8.747332692E-1
1.088622892E1,9.359707236E-1,1.249182671E-1,6.633801460E-1
1.089594299E1,1.033706307E0,1.130067464E-2,2.834331393E-1
1.090565616E1,1.128998399E0,-1.524063945E-1,-8.307522535E-2
1.091536861E1,1.219403863E0,-3.674246371E-1,-2.651077211E-1
1.092508194E1,1.292705536E0,-5.836645365E-1,-2.675510943E-1
1.093479595E1,1.290262103E0,-8.182299137E-1,-1.881409585E-1
1.094450913E1,1.220625520E0,-1.061347127E0,-8.429691941E-2
1.095422158E1,1.115559816E0,-1.253153205E0,1.710372418E-2
1.096393491E1,1.003163934E0,-1.341115117E0,9.529217333E-2
1.097364892E1,8.907679915E-1,-1.294690728E0,1.319430023E-1
1.098336210E1,7.808154821E-1,-1.132205367E0,1.392731816E-1
1.099307455E1,6.659762263E-1,-8.854231238E-1,1.294996142E-1
1.100278778E1,5.181511641E-1,-5.738909841E-1,1.246128380E-1
1.101250189E1,3.654393852E-1,-1.304158866E-1,1.698155403E-1
1.102221507E1,3.006895781E-1,4.376720488E-1,2.565558553E-1
1.103192752E1,3.422271907E-1,9.190196991E-1,3.151971996E-1
1.104164074E1,4.057552814E-1,1.109604001E0,3.200839758E-1
1.105135486E1,4.314108789E-1,1.063179612E0,2.944283783E-1
1.106106804E1,3.788780272E-1,8.848122358E-1,2.602209449E-1
1.107078048E1,2.457133085E-1,6.746807694E-1,2.406738251E-1
1.108049371E1,6.001574174E-2,4.596625566E-1,2.272351831E-1
1.109020778E1,-1.269035190E-1,2.189887464E-1,1.942494214E-1
1.109992101E1,-2.710634768E-1,-2.901524492E-2,1.148392856E-1
1.110963345E1,-3.663556576E-1,-2.476985604E-1,-7.330167107E-3
1.111934668E1,-4.347705245E-1,-3.881934285E-1,-1.319430023E-1
1.112906074E1,-4.836383164E-1,-4.382829070E-1,-2.186833173E-1
1.113877392E1,-5.044071078E-1,-4.480564594E-1,-2.614426315E-1
1.114848637E1,-4.970769584E-1,-4.749337435E-1,-2.565558553E-1
1.115819970E1,-4.677563012E-1,-5.311316848E-1,-1.954711229E-1
1.116791371E1,-4.274403751E-1,-5.702258945E-1,-1.050657257E-1
1.117762689E1,-4.017847776E-1,-5.494571328E-1,-8.551862091E-3
1.118733934E1,-3.834593594E-1,-5.005893111E-1,7.574506104E-2
1.119705257E1,-3.859027624E-1,-4.785988331E-1,1.221694499E-1
1.120676668E1,-5.483881235E-1,-4.688252807E-1,1.160609797E-1
1.121647986E1,-9.063445926E-1,-4.224008918E-1,1.014006436E-1
1.122619231E1,-1.307060480E0,-2.843494117E-1,1.832541823E-1
1.123590554E1,-1.367076159E0,-1.817270666E-1,3.628432751E-1
1.124561965E1,-1.117697716E0,-2.171562016E-1,5.607577562E-1
1.125533283E1,-8.623636365E-1,-2.657185495E-2,6.780404449E-1
1.126504528E1,-8.562551737E-1,1.676775664E-1,6.499415040E-1
1.127475851E1,-1.184890985E0,1.374406368E-2,4.654656053E-1
1.128447257E1,-1.461146593E0,-3.429907262E-1,1.417165697E-1
1.129418580E1,-1.166565537E0,-2.901524492E-2,-2.370087355E-1
1.130389825E1,-6.424586177E-1,1.456870735E-1,-5.277720094E-1
1.131361148E1,-2.319692522E-1,1.908897758E-1,-7.220214605E-1
1.132332554E1,6.490252167E-2,2.018850148E-1,-8.050966859E-1
1.133303871E1,2.567085624E-1,3.020639718E-1,-7.049177289E-1
1.134275116E1,4.961606860E-1,6.404733658E-1,-4.202629030E-1
1.135246450E1,7.637118101E-1,9.373451471E-1,-6.597150117E-2
1.136217851E1,8.834378719E-1,8.799254894E-1,2.076880634E-1
1.137189168E1,8.125795722E-1,5.415160656E-1,3.530697227E-1
1.138160413E1,6.598677635E-1,1.847812980E-1,3.982724249E-1
1.139131736E1,5.596888065E-1,-4.489727318E-2,3.371876776E-1
1.140103148E1,5.731274486E-1,-2.049392611E-1,1.441599578E-1
1.141074465E1,6.757497787E-1,-3.918585181E-1,-1.038440317E-1
1.142045710E1,8.321266770E-1,-5.238015056E-1,-2.602209449E-1
1.143017033E1,9.640696645E-1,-5.457920432E-1,-3.164188862E-1
1.143988439E1,1.041036487E0,-5.152496696E-1,-2.968717813E-1
1.144959762E1,1.055696726E0,-4.370612204E-1,-2.284568697E-1
1.145931007E1,1.020267606E0,-3.136700690E-1,-1.270562261E-1
1.146902330E1,9.469659925E-1,-1.768402755E-1,-4.886778072E-3
1.147873736E1,8.357917666E-1,-4.245388508E-2,1.294996142E-1
1.148845059E1,6.818582416E-1,1.175880954E-1,2.785463631E-1
1.149816298E1,5.157077909E-1,3.179459870E-1,3.884988427E-1
1.150787632E1,3.898732662E-1,6.074876189E-1,4.080459774E-1
1.151759033E1,3.263451457E-1,9.972081780E-1,3.213056624E-1
1.152730351E1,3.471139669E-1,1.357608080E0,1.747023165E-1
1.153701595E1,4.094203711E-1,1.562852740E0,2.443389036E-3
1.154672918E1,4.167505503E-1,1.549414039E0,-1.673721522E-1
1.155644330E1,3.300102353E-1,1.289193153E0,-2.675510943E-1
1.156615648E1,1.528645307E-1,8.677085042E-1,-2.638860047E-1
1.157586892E1,-7.681404054E-2,4.156815708E-1,-1.722589284E-1
1.158558215E1,-2.979407609E-1,2.596100792E-2,-1.588202827E-2
1.159529627E1,-4.824166298E-1,-2.953446507E-1,1.404948682E-1
1.160500944E1,-5.984776020E-1,-5.506787896E-1,2.003578991E-1
1.161472189E1,-6.290199757E-1,-6.826218367E-1,1.710372269E-1
1.162443512E1,-5.838172436E-1,-6.740699410E-1,9.773556143E-2
1.163414918E1,-5.092939138E-1,-5.604523420E-1,-4.886778072E-3
1.164386241E1,-4.567610323E-1,-4.211791754E-1,-1.062874198E-1
1.165357481E1,-4.433223903E-1,-3.075616062E-1,-1.734806150E-1
1.166328814E1,-4.408790171E-1,-2.464768738E-1,-1.918060333E-1
1.167300215E1,-4.298837483E-1,-2.562504113E-1,-1.747023165E-1
1.168271533E1,-4.726430774E-1,-3.600944579E-1,-1.380514801E-1
1.169242778E1,-6.974348426E-1,-5.702258945E-1,-1.209477559E-1
1.170214101E1,-1.106702566E0,-7.290462255E-1,-1.172826737E-1
1.171185512E1,-1.596754789E0,-6.545228362E-1,-2.076880634E-2
1.172156830E1,-1.856975675E0,-4.260659516E-1,2.174616307E-1
1.173128075E1,-1.683495045E0,-2.061609477E-1,5.387672782E-1
1.174099398E1,-1.423274159E0,2.840439789E-2,8.930587173E-1
1.175070809E1,-1.392731786E0,2.825168669E-1,1.138619304E0
1.176042127E1,-1.615080118E0,5.928272605E-1,1.051878929E0
1.177013371E1,-1.523453116E0,3.863608837E-1,5.436540842E-1
1.177984694E1,-8.916842937E-1,1.823379099E-1,-2.150182426E-1
1.178956101E1,-2.197522968E-1,-7.421794534E-2,-8.026533127E-1
1.179927424E1,5.039489828E-3,-6.200099736E-2,-9.797990322E-1
1.180898668E1,6.123743951E-2,-6.933116168E-2,-8.270871639E-1
1.181869991E1,2.249445021E-1,1.029277667E-1,-5.351021886E-1
1.182841398E1,5.926745534E-1,4.450022280E-1,-2.125748396E-1
1.183812715E1,8.858812451E-1,5.964923501E-1,6.352811307E-2
1.184783960E1,9.530744553E-1,4.694361091E-1,3.066453338E-1
1.185755293E1,8.357917666E-1,1.481304616E-1,4.972296655E-1
1.186726694E1,7.307260633E-1,-1.206423342E-1,5.338805318E-1
1.187698012E1,7.563816309E-1,-1.475196183E-1,3.738385141E-1
1.188669257E1,8.663341403E-1,-4.367557913E-2,1.185043678E-1
1.189640580E1,9.860602021E-1,2.962609194E-2,-8.185353130E-2
1.190611991E1,1.049588323E0,6.994201243E-2,-1.966928244E-1
1.191583309E1,1.039814711E0,4.428642616E-2,-2.516690791E-1
1.192554554E1,1.009272337E0,1.130067464E-2,-2.773246467E-1
1.193525877E1,1.001942158E0,5.772506446E-2,-2.834331393E-1
1.194497283E1,1.011715770E0,1.701209545E-1,-2.712161839E-1
1.195468606E1,1.008050680E0,3.008422852E-1,-2.382304370E-1
1.196439851E1,9.298622608E-1,3.839175105E-1,-1.844758689E-1
1.197411174E1,7.624900937E-1,4.132381678E-1,-1.380514801E-1
1.198382580E1,5.657972693E-1,4.559974670E-1,-1.185043678E-1
1.199353898E1,3.910949528E-1,5.952706337E-1,-1.026223376E-1
1.200325142E1,2.664821148E-1,8.078454733E-1,-6.474980712E-2
1.201296476E1,1.846285909E-1,9.495620728E-1,2.443389036E-3
1.202267877E1,1.479777545E-1,8.909206986E-1,7.207997888E-2
1.203239194E1,1.039967462E-1,6.551336646E-1,9.651386738E-2
1.204210439E1,1.359135192E-2,3.753656447E-1,8.063183725E-2
1.205181762E1,-1.207950488E-1,1.383569092E-1,6.963659078E-2
1.206153174E1,-2.698417902E-1,-4.367557913E-2,5.741964281E-2
1.207124491E1,-3.944546282E-1,-1.951656938E-1,1.710372418E-2
1.208095736E1,-4.640912116E-1,-3.368822634E-1,-8.185353130E-2
1.209067059E1,-4.897467792E-1,-4.639385045E-1,-2.064663768E-1
1.210038465E1,-4.958552718E-1,-5.812211633E-1,-2.895416021E-1
1.211009788E1,-5.202891231E-1,-6.765133142E-1,-3.151971996E-1
1.211981033E1,-5.593833923E-1,-7.693621516E-1,-3.090887070E-1
1.212952356E1,-6.106945276E-1,-8.964183331E-1,-2.846548259E-1
1.213923762E1,-6.644490957E-1,-1.014922738E0,-2.260134816E-1
1.214895080E1,-6.778877378E-1,-1.052795291E0,-1.209477559E-1
1.215866325E1,-6.449019909E-1,-9.868237376E-1,-2.443389036E-3
1.216837658E1,-6.180247068E-1,-8.793146014E-1,9.162709117E-2
1.217809059E1,-7.511894107E-1,-8.023478985E-1,1.172826737E-1
1.218780377E1,-1.100594044E0,-6.215370893E-1,1.075091213E-1
1.219751621E1,-1.549108624E0,-4.040754735E-1,1.783674061E-1
1.220722955E1,-1.551552057E0,-3.136700690E-1,3.066453338E-1
1.221694356E1,-1.039509296E0,-3.478775024E-1,4.361449480E-1
1.222665674E1,-5.361711979E-1,-1.768402755E-1,5.754181147E-1
1.223636918E1,-5.019637346E-1,-1.475196183E-1,6.084038615E-1
1.224608241E1,-1.319277406E0,-3.564293683E-1,4.618005157E-1
1.225579653E1,-2.113531590E0,-5.567872524E-1,2.577775419E-1
1.226550970E1,-1.953489542E0,1.740914769E-2,1.380514801E-1
1.227522215E1,-1.307060480E0,5.586197972E-1,7.207997888E-2
1.228493538E1,-8.941276670E-1,6.697940230E-1,-2.565558441E-2
1.229464950E1,-7.475243211E-1,5.549547076E-1,-7.452336699E-2
1.230436267E1,-4.530959427E-1,5.451811552E-1,1.343864016E-2
1.231407512E1,1.174353883E-1,7.870767117E-1,1.062874198E-1
1.232378835E1,6.965186000E-1,9.752176404E-1,9.773556143E-2
1.233350241E1,1.026376128E0,8.041804433E-1,3.665083647E-2
1.234321564E1,1.124111652E0,4.718795121E-1,5.131116882E-2
1.235292809E1,1.144880533E0,1.444653720E-1,1.404948682E-1
1.236264132E1,1.113116384E0,-9.132166207E-2,1.856975704E-1
1.237235538E1,1.080130696E0,-2.134911120E-1,1.123958975E-1
1.238206856E1,1.142437100E0,-1.780619770E-1,-5.375456065E-2
1.239178101E1,1.289040446E0,-5.803049076E-3,-2.211267054E-1
1.240149434E1,1.417318344E0,1.139230132E-1,-3.127537966E-1
1.241120835E1,1.471072912E0,4.184303805E-2,-3.103103936E-1
1.242092153E1,1.472294569E0,-1.817270666E-1,-2.492256761E-1
1.243063398E1,1.434422135E0,-4.248442650E-1,-1.869192570E-1
1.244034720E1,1.377002478E0,-5.580089688E-1,-1.490467340E-1
1.245006132E1,1.308587551E0,-5.775560737E-1,-1.307213157E-1
1.245977450E1,1.201078415E0,-5.506787896E-1,-1.209477559E-1
1.246948694E1,1.048366666E0,-5.103628635E-1,-1.233911440E-1
1.247920017E1,8.565605879E-1,-4.578300118E-1,-1.148392856E-1
1.248891429E1,6.329904795E-1,-3.161134422E-1,-5.864133686E-2
1.249862746E1,4.362976551E-1,-3.359660041E-3,5.131116882E-2
1.250833991E1,3.275668323E-1,4.425588250E-1,1.343863904E-1
1.251805314E1,3.410054743E-1,8.603783846E-1,1.331647038E-1
1.252776726E1,4.362976551E-1,1.037524104E0,9.284878522E-2
1.253748043E1,4.888305068E-1,9.642223716E-1,4.764608666E-2
1.254719288E1,4.253024161E-1,7.589777112E-1,4.031591862E-2
1.255690611E1,2.664821148E-1,4.950917065E-1,9.284878522E-2
1.256662017E1,3.069507517E-2,2.373141646E-1,1.856975704E-1
1.257633340E1,-2.576248348E-1,-3.359660041E-3,2.602209449E-1
1.258604585E1,-5.667135715E-1,-2.305948436E-1,2.907632887E-1
1.259575908E1,-8.525900841E-1,-4.260659516E-1,2.736595869E-1
1.260547314E1,-1.048061132E0,-5.519005060E-1,2.418955117E-1
1.261518637E1,-1.120141149E0,-5.519005060E-1,1.832541823E-1
1.262489882E1,-1.068830013E0,-4.248442650E-1,7.818844914E-2
1.263461205E1,-9.295567870E-1,-2.525853515E-1,-4.764608666E-2
1.264432611E1,-7.621846795E-1,-1.157555580E-1,-1.588202864E-1
1.265403929E1,-6.131379604E-1,-3.634541109E-2,-2.284568697E-1
1.266375174E1,-5.031854510E-1,-8.154810965E-2,-2.431172132E-1
1.267346507E1,-4.359922409E-1,-2.183778882E-1,-2.174616307E-1
1.268317908E1,-4.653128982E-1,-3.124483824E-1,-1.453816444E-1
1.269289226E1,-6.827745438E-1,-3.393256664E-1,-2.321219631E-2
1.270260470E1,-1.082268596E0,-3.124483824E-1,1.294996142E-1
1.271231804E1,-1.496575832E0,-1.939440072E-1,3.261924386E-1
1.272203205E1,-1.732362866E0,6.994201243E-2,5.790832043E-1
1.273174523E1,-1.681051612E0,3.142809272E-1,7.965448499E-1
1.274145767E1,-1.518566251E0,2.141019702E-1,7.916580439E-1
1.275117090E1,-1.704263806E0,-1.230857223E-1,4.300364852E-1
1.276088502E1,-1.836206913E0,-1.805053651E-1,-6.108472496E-2
1.277059819E1,-1.441599488E0,-1.377460510E-1,-3.689517379E-1
1.278031064E1,-7.658497691E-1,-4.123219103E-2,-4.947862923E-1
1.279002387E1,-1.867665499E-1,2.116585821E-1,-5.399889946E-1
1.279973798E1,1.956238300E-1,4.169032574E-1,-4.373666346E-1
1.280945116E1,5.328115225E-1,6.135960817E-1,-1.099525094E-1
1.281916361E1,8.956547976E-1,9.116895199E-1,3.103103936E-1
1.282887684E1,1.159540772E0,1.061957955E0,6.536065936E-1
1.283859095E1,1.276823521E0,9.385668039E-1,7.916580439E-1
1.284830413E1,1.323247910E0,7.736380696E-1,7.342383862E-1
1.285801658E1,1.381889224E0,6.771242023E-1,5.534276366E-1
1.286772981E1,1.408766508E0,6.649072170E-1,2.541124523E-1
1.287744392E1,1.417318344E0,6.539120078E-1,-1.307213157E-1
1.288715710E1,1.452747464E0,5.500679612E-1,-4.825693369E-1
1.289686955E1,1.494285107E0,3.179459870E-1,-6.474980712E-1
1.290658278E1,1.506502032E0,-1.191152167E-2,-5.619794726E-1
1.291629684E1,1.453969240E0,-3.295520842E-1,-3.518480062E-1
1.292601007E1,1.308587551E0,-6.178719997E-1,-1.600419879E-1
1.293572252E1,1.148545504E0,-7.901309133E-1,-1.588202827E-2
1.294543575E1,1.003163934E0,-8.072346449E-1,1.123958975E-1
1.295514981E1,8.052493930E-1,-7.339329720E-1,2.406738251E-1
1.296486304E1,5.584670901E-1,-5.054761171E-1,3.579564989E-1
1.297457548E1,3.458922505E-1,-4.856235534E-2,4.471401870E-1
1.298428871E1,2.432699203E-1,5.842754245E-1,4.508052766E-1
1.299400278E1,2.786990702E-1,1.180462360E0,3.213056624E-1
1.300371595E1,3.972034156E-1,1.493216157E0,1.087308154E-1
1.301342845E1,4.595098495E-1,1.444348335E0,-1.148392856E-1
1.302314168E1,4.179722369E-1,1.148698330E0,-2.919849753E-1
1.303285574E1,2.921377122E-1,7.699729800E-1,-3.689517379E-1
1.304256892E1,7.956285775E-2,3.533751369E-1,-3.677300513E-1
1.305228137E1,-2.246390730E-1,-1.108687744E-1,-3.029802442E-1
1.306199470E1,-5.398362875E-1,-5.738909841E-1,-1.893626451E-1
1.307170871E1,-7.878402472E-1,-9.440644383E-1,-6.352811307E-2
1.308142189E1,-9.429954290E-1,-1.178629756E0,4.153761268E-2
1.309113434E1,-9.845330715E-1,-1.259261608E0,5.375456065E-2
1.310084757E1,-9.075663090E-1,-1.181073189E0,-4.398100078E-2
1.311056168E1,-7.401941419E-1,-9.709417224E-1,-1.991362125E-1
1.312027486E1,-5.166240931E-1,-6.655181050E-1,-3.261924386E-1
1.312998731E1,-2.747285664E-1,-3.600944579E-1,-3.848337829E-1
1.313970054E1,-8.292251825E-2,-1.548497826E-1,-3.665083647E-1
1.314941465E1,-1.206423342E-2,-1.951656938E-1,-3.005368412E-1
1.315912783E1,-1.501157135E-1,-3.613161445E-1,-2.382304370E-1
1.316884028E1,-5.080721974E-1,-4.932591617E-1,-1.551551968E-1
1.317855351E1,-9.210049510E-1,-6.337540150E-1,2.687728032E-2
1.318826762E1,-1.100594044E0,-7.314895988E-1,3.188622594E-1
1.319798080E1,-1.050504565E0,-6.019899845E-1,6.621584296E-1
1.320769325E1,-8.660287261E-1,-1.609582454E-1,9.077190161E-1
1.321740648E1,-7.291989326E-1,1.322484314E-1,9.382613897E-1
1.322712054E1,-8.391514421E-1,1.811162084E-1,7.171346545E-1
1.323683377E1,-8.599202037E-1,1.786728203E-1,3.359659910E-1
1.324654621E1,-5.325061083E-1,1.322484314E-1,-4.153761268E-2
1.325625944E1,-8.292251825E-2,6.505523622E-2,-3.103103936E-1
1.326597351E1,2.286095917E-1,1.774511337E-1,-4.410317242E-1
1.327568674E1,3.520007432E-1,2.263189107E-1,-4.544703662E-1
1.328539918E1,4.607315361E-1,2.812951505E-1,-3.603998721E-1
1.329511241E1,6.745280623E-1,4.853181541E-1,-1.575985998E-1
1.330482648E1,8.504521251E-1,6.710157394E-1,4.886778072E-2
1.331453965E1,8.797727823E-1,6.893411279E-1,1.869192570E-1
1.332425210E1,8.455653191E-1,5.635066032E-1,2.406738251E-1
1.333396543E1,8.284615874E-1,3.826957941E-1,1.820324808E-1
1.334367944E1,8.431219459E-1,2.226538211E-1,-1.588202827E-2
1.335339262E1,8.785510659E-1,1.114796251E-1,-2.870981991E-1
1.336310507E1,9.274188280E-1,2.840439789E-2,-4.886777997E-1
1.337281830E1,9.616262913E-1,-8.643488586E-2,-5.375455618E-1
1.338253241E1,9.555178285E-1,-2.342599183E-1,-4.727957845E-1
1.339224559E1,8.993198872E-1,-4.065188468E-1,-3.750602305E-1
1.340195804E1,8.028060198E-1,-5.470137000E-1,-2.834331393E-1
1.341167127E1,7.038487792E-1,-5.958815217E-1,-2.040229887E-1
1.342138538E1,6.183301210E-1,-5.384618640E-1,-1.404948682E-1
1.343109856E1,5.364766121E-1,-3.955236077E-1,-9.284878522E-2
1.344081101E1,4.485146105E-1,-2.110477239E-1,-3.542914242E-2
1.345052424E1,3.715478480E-1,2.473931387E-2,4.398100078E-2
1.346023830E1,3.251234591E-1,3.252761662E-1,1.099525094E-1
1.346995153E1,3.067980409E-1,6.245913506E-1,1.392731816E-1
1.347966398E1,2.921377122E-1,8.347227573E-1,1.404948682E-1
1.348937720E1,2.945810854E-1,9.275715351E-1,1.233911440E-1
1.349909127E1,2.811424434E-1,8.848122358E-1,1.172826737E-1
1.350880450E1,2.298312783E-1,7.357655168E-1,1.233911440E-1
1.351851689E1,1.443126649E-1,5.402944088E-1,1.392731816E-1
1.352823023E1,4.535540938E-2,3.643703759E-1,1.551551968E-1
1.353794424E1,-7.803573459E-2,2.324273884E-1,1.429382563E-1
1.354765741E1,-2.050919682E-1,1.139230132E-1,8.551861346E-2
1.355736986E1,-3.162661791E-1,-3.878879920E-2,-1.466033421E-2
1.356708309E1,-4.103366435E-1,-2.037175596E-1,-1.294996142E-1
1.357679720E1,-5.007420182E-1,-3.613161445E-1,-2.394521236E-1
1.358651038E1,-5.972558856E-1,-5.323534012E-1,-3.335226178E-1
1.359622283E1,-7.133168578E-1,-6.642963886E-1,-3.958290219E-1
1.360593606E1,-8.073873520E-1,-6.838434935E-1,-4.068242610E-1
1.361565017E1,-8.452599049E-1,-6.239804626E-1,-3.420744538E-1
1.362536335E1,-8.489249945E-1,-6.032116413E-1,-2.162399292E-1
1.363507580E1,-9.051229358E-1,-7.388197780E-1,-8.063183725E-2
1.364478903E1,-1.093263865E0,-9.367342591E-1,2.443389036E-3
1.365450309E1,-1.423274159E0,-9.856020808E-1,3.787253052E-2
1.366421632E1,-1.717702508E0,-7.449282408E-1,1.319430023E-1
1.367392877E1,-1.626075387E0,-3.063398898E-1,3.323009014E-1
1.368364200E1,-1.252084136E0,1.420219839E-1,5.961869359E-1
1.369335606E1,-9.087880254E-1,5.366293192E-1,8.258655071E-1
1.370306924E1,-7.915053368E-1,6.429167390E-1,8.209787011E-1
1.371278168E1,-1.022405624E0,4.303418994E-1,4.972296655E-1
1.372249502E1,-1.136023164E0,2.214321345E-1,-1.710372418E-2
1.373220903E1,-6.949914694E-1,-3.878879920E-2,-4.935645759E-1
1.374192220E1,-2.026485801E-1,-3.429907262E-1,-8.136485219E-1
1.375163465E1,7.834116369E-2,-4.553866386E-1,-8.686248064E-1
1.376134788E1,2.090624720E-1,-4.957025647E-1,-7.647807598E-1
1.377106200E1,4.130854607E-1,-3.539859951E-1,-5.644228458E-1
1.378077517E1,7.136223316E-1,-8.154810965E-2,-2.553341687E-1
1.379048762E1,9.310839176E-1,1.139230132E-1,7.696675509E-2
1.380020085E1,9.677347541E-1,5.039490014E-2,3.445178568E-1
1.380991491E1,9.042066336E-1,-1.646233350E-1,4.740174711E-1
1.381962814E1,8.712208867E-1,-3.100049794E-1,4.288147688E-1
1.382934059E1,9.042066336E-1,-2.806843221E-1,2.614426315E-1
1.383905382E1,9.787300229E-1,-1.536280811E-1,6.963659078E-2
1.384876788E1,1.032484531E0,-7.055285573E-2,-8.063183725E-2
1.385848106E1,1.022711039E0,-1.304158866E-1,-1.673721522E-1
1.386819351E1,9.689564705E-1,-2.867927849E-1,-1.979145110E-1
1.387790674E1,8.980981708E-1,-3.979669809E-1,-2.040229887E-1
1.388762085E1,8.333483934E-1,-3.735330999E-1,-1.832541823E-1
1.389733403E1,7.588250041E-1,-2.635805905E-1,-1.575985998E-1
1.390704648E1,6.659762263E-1,-1.230857223E-1,-1.233911440E-1
1.391675970E1,5.584670901E-1,3.451287001E-2,-5.741964281E-2
1.392647377E1,4.436278343E-1,2.043284029E-1,5.497625470E-2
1.393618700E1,3.361186981E-1,4.181249440E-1,1.832541823E-1
1.394589944E1,2.554868758E-1,6.673506498E-1,2.638860047E-1
1.395561267E1,2.053973973E-1,9.031376839E-1,2.919849753E-1
1.396532674E1,1.956238300E-1,1.076618314E0,2.748812735E-1
1.397503991E1,2.139492482E-1,1.137703061E0,2.235700935E-1
1.398475236E1,2.225011140E-1,1.038745761E0,1.441599578E-1
1.399446569E1,1.907370538E-1,8.005153537E-1,5.375456065E-2
1.400417970E1,8.933641016E-2,5.012001991E-1,-9.773556143E-3
1.401389288E1,-5.360184610E-2,1.811162084E-1,-2.443389036E-2
1.402360533E1,-1.892099380E-1,-1.536280811E-1,-3.176405653E-2
1.403331856E1,-2.930539846E-1,-4.627167881E-1,-6.597150117E-2
1.404303267E1,-3.541387022E-1,-6.704048514E-1,-1.099525094E-1
1.405274585E1,-3.468085229E-1,-7.498149872E-1,-1.551551968E-1
1.406245830E1,-2.771719396E-1,-7.156075835E-1,-2.211267054E-1
1.407217153E1,-2.234173864E-1,-6.117635369E-1,-2.846548259E-1
1.408188559E1,-2.405211031E-1,-4.944808483E-1,-3.115321100E-1
1.409159877E1,-3.223746419E-1,-4.028537571E-1,-3.029802442E-1
1.410131121E1,-4.592044353E-1,-3.771981895E-1,-2.528907657E-1
1.411102444E1,-6.387935281E-1,-4.138490260E-1,-1.905843467E-1
1.412073856E1,-8.880192041E-1,-4.089622498E-1,-1.502684206E-1
1.413045174E1,-1.238645554E0,-3.026748300E-1,-1.050657257E-1
1.414016418E1,-1.629740477E0,-1.634016484E-1,6.108472589E-3
1.414987741E1,-1.886296391E0,-2.134911120E-1,2.113531530E-1
1.415959148E1,-1.830098391E0,-5.225798488E-1,4.385883212E-1
1.416930470E1,-1.563768983E0,-3.784198761E-1,6.218425035E-1
1.417901715E1,-1.326607585E0,-4.611896724E-2,7.049177289E-1
1.418873038E1,-1.579650998E0,-2.657185495E-2,4.385883212E-1
1.419844444E1,-1.599198103E0,1.090362370E-1,6.230641901E-2
1.420815762E1,-8.696937561E-1,1.298050433E-1,-2.162399292E-1
1.421787007E1,-1.537808031E-1,1.346918195E-1,-4.312581718E-1
1.422758330E1,2.066190839E-1,4.120164812E-1,-4.019374847E-1
1.423729741E1,4.020902216E-1,3.545968235E-1,-1.514901221E-1
1.424701059E1,7.001836896E-1,4.669927359E-1,1.624853760E-1
1.425672304E1,1.026376128E0,7.467607856E-1,4.495835900E-1
1.426643627E1,1.157097459E0,6.636855602E-1,5.778614879E-1
1.427615033E1,1.087460876E0,2.935121059E-1,5.363239050E-1
1.428586351E1,9.823951125E-1,-6.200099736E-2,3.555130959E-1
1.429557595E1,9.481876493E-1,-2.073826492E-1,5.497625470E-2
1.430528929E1,9.872818589E-1,-1.426328421E-1,-2.467822880E-1
1.431500330E1,1.044701576E0,-4.856235534E-2,-4.361449480E-1
1.432471648E1,1.058140159E0,-8.765657991E-2,-5.082249045E-1
1.433442892E1,1.010494113E0,-2.721324563E-1,-5.179984570E-1
1.434414215E1,9.469659925E-1,-4.590517282E-1,-4.825693369E-1
1.435385621E1,9.103151560E-1,-5.079194903E-1,-3.652866483E-1
1.436356944E1,8.455653191E-1,-4.761554301E-1,-1.905843467E-1
1.437328189E1,6.916317940E-1,-4.492781460E-1,-1.588202827E-2
1.438299512E1,4.448495209E-1,-4.382829070E-1,1.087308154E-1
1.439270918E1,1.809635013E-1,-2.855710983E-1,1.966928244E-1
1.440242236E1,1.847812906E-2,1.982199401E-1,2.858765125E-1
1.441213481E1,1.481304597E-2,8.909206986E-1,3.420744538E-1
1.442184804E1,1.540862173E-1,1.470003963E0,3.506263196E-1
1.443156215E1,3.129065037E-1,1.726559758E0,3.396310806E-1
1.444127533E1,3.715478480E-1,1.688687205E0,3.176405728E-1
1.445098778E1,2.933593988E-1,1.451678514E0,3.017585576E-1
1.446070101E1,1.015533581E-1,1.055849433E0,2.712161839E-1
1.447041507E1,-1.452289373E-1,6.209262609E-1,1.954711229E-1
1.448012825E1,-3.859027624E-1,2.654131353E-1,8.551861346E-2
1.448984069E1,-5.667135715E-1,5.161659420E-2,-5.131116882E-2
1.449955392E1,-6.571189165E-1,-5.344913527E-2,-2.101314515E-1
1.450926804E1,-6.791094542E-1,-1.206423342E-1,-3.689517379E-1
1.451898121E1,-6.791094542E-1,-2.024958730E-1,-5.008947253E-1
1.452869366E1,-6.620057225E-1,-2.880144715E-1,-5.986303091E-1
1.453840689E1,-6.351284385E-1,-3.319954872E-1,-6.707102656E-1
1.454812095E1,-5.887040496E-1,-3.124483824E-1,-6.743753552E-1
1.455783413E1,-5.154023767E-1,-2.892361879E-1,-6.022953987E-1
1.456754658E1,-4.592044353E-1,-2.904578745E-1,-4.679090083E-1
1.457725981E1,-4.628695250E-1,-3.271087110E-1,-2.870981991E-1
1.458697392E1,-5.349494815E-1,-4.981459379E-1,-8.307522535E-2
1.459668710E1,-7.010999322E-1,-7.803573608E-1,7.452336699E-2
1.460639955E1,-9.869764447E-1,-9.452861547E-1,2.076880634E-1
1.461611278E1,-1.277739763E0,-8.243383765E-1,3.567348123E-1
1.462582684E1,-1.288735032E0,-4.382829070E-1,5.131117105E-1
1.463554002E1,-9.943066239E-1,2.324273884E-1,6.584933400E-1
1.464525246E1,-5.801522136E-1,7.455390692E-1,7.342383862E-1
1.465496569E1,-4.897467792E-1,5.732801557E-1,6.365028620E-1
1.466467981E1,-9.051229358E-1,2.507528067E-1,2.919849753E-1
1.467439298E1,-1.043174386E0,6.514685750E-1,-1.624853760E-1
1.468410543E1,-5.789304972E-1,9.703308940E-1,-4.471401870E-1
1.469381866E1,3.817795310E-3,7.430956960E-1,-6.768187881E-1
1.470353272E1,3.324536085E-1,2.104368806E-1,-8.307522535E-1
1.471324590E1,3.214583695E-1,-2.244863659E-1,-8.209787011E-1
1.472295835E1,3.678827584E-1,-2.501419485E-1,-6.108472347E-1
1.473267158E1,5.645755529E-1,-1.768402755E-1,-2.687727809E-1
1.474238569E1,7.637118101E-1,-2.709107697E-1,9.895725548E-2
1.475209887E1,8.797727823E-1,-3.051182032E-1,3.713951409E-1
1.476181132E1,9.261971712E-1,-2.257080674E-1,5.008947253E-1
1.477152455E1,9.408574700E-1,-1.853921413E-1,4.666872919E-1
1.478123861E1,9.799517393E-1,-1.316375881E-1,2.834331393E-1
1.479095179E1,1.048366666E0,-5.833591148E-2,4.031591862E-2
1.480066424E1,1.110673070E0,-3.145863488E-2,-1.637070626E-1
1.481037746E1,1.136328578E0,-1.059819981E-1,-2.736595869E-1
1.482009158E1,1.111894727E0,-3.038965166E-1,-2.712161839E-1
1.482980476E1,1.037371397E0,-4.969242513E-1,-2.003578991E-1
1.483951720E1,9.298622608E-1,-5.812211633E-1,-9.529217333E-2
1.484923043E1,7.930324674E-1,-6.117635369E-1,2.809897438E-2
1.485894450E1,6.415423155E-1,-6.068767309E-1,1.331647038E-1
1.486865767E1,4.839437306E-1,-5.457920432E-1,2.333436459E-1
1.487837012E1,3.385621011E-1,-4.407263100E-1,3.420744538E-1
1.488808335E1,2.334963679E-1,-2.208212912E-1,4.471401870E-1
1.489779741E1,1.760767251E-1,1.236965731E-1,5.070032477E-1
1.490751064E1,1.614163816E-1,4.926483035E-1,4.740174711E-1
1.491722304E1,1.992889196E-1,7.992936373E-1,3.897205591E-1
1.492693637E1,2.310529798E-1,9.458969831E-1,2.968717813E-1
1.493665038E1,2.102841735E-1,8.860339522E-1,2.089097649E-1
1.494636356E1,1.284306347E-1,6.722373962E-1,1.563768983E-1
1.495607601E1,-1.068982761E-3,3.741439581E-1,1.233911440E-1
1.496578924E1,-1.708845198E-1,6.139015034E-2,8.796200156E-2
1.497550330E1,-3.260397315E-1,-2.024958730E-1,4.031591862E-2
1.498521648E1,-4.311054647E-1,-4.028537571E-1,-3.909422457E-2
1.499492892E1,-4.750864506E-1,-5.323534012E-1,-1.307213157E-1
1.500464215E1,-4.665345848E-1,-5.873296261E-1,-2.247917950E-1
1.501435627E1,-4.482091665E-1,-6.007682681E-1,-3.066453338E-1
1.502406944E1,-4.506525695E-1,-5.983248949E-1,-3.469612300E-1
1.503378189E1,-4.714213610E-1,-5.812211633E-1,-3.310792148E-1
1.504349512E1,-4.934118688E-1,-5.665608048E-1,-2.565558553E-1
