"Time (s)","Acceleration x (m/s^2)","Acceleration y (m/s^2)","Acceleration z (m/s^2)"
5.725807300E-2,-2.107179403E0,-6.077769399E-1,-9.707382202E0
6.697171900E-2,-2.102393866E0,-6.029912829E-1,-9.728918076E0
7.668447900E-2,-2.097608089E0,-6.101697683E-1,-9.719346046E0
8.639651000E-2,-2.088036776E0,-6.077769399E-1,-9.673882484E0
9.610937500E-2,-2.078465462E0,-6.221339107E-1,-9.645169258E0
1.058229690E-1,-2.061715841E0,-6.005984545E-1,-9.618847847E0
1.155357290E-1,-2.064108610E0,-5.647061467E-1,-9.626026154E0
1.252477600E-1,-2.066501379E0,-5.575276613E-1,-9.623633385E0
1.349606250E-1,-2.090429783E0,-5.599204898E-1,-9.654740334E0
1.446742190E-1,-2.100000858E0,-5.694918036E-1,-9.693025589E0
1.543869790E-1,-2.109572172E0,-5.814558864E-1,-9.740881920E0
1.640990100E-1,-2.088036776E0,-5.982056856E-1,-9.762416840E0
1.738118750E-1,-2.088036776E0,-5.982056856E-1,-9.740881920E0
1.835254690E-1,-2.068894386E0,-5.958128572E-1,-9.791131020E0
1.932382810E-1,-2.052144527E0,-5.958128572E-1,-9.618847847E0
2.029503130E-1,-2.047358990E0,-5.910272002E-1,-9.580562592E0
2.126631770E-1,-2.030609131E0,-6.053841114E-1,-9.688240051E0
2.223767710E-1,-2.030609131E0,-5.958128572E-1,-9.666704178E0
2.320895310E-1,-2.033001900E0,-6.125625968E-1,-9.599705696E0
2.418015630E-1,-2.042573214E0,-6.269195080E-1,-9.733703613E0
2.515144270E-1,-2.042573214E0,-6.269195080E-1,-9.788738251E0
2.612280210E-1,-2.049751759E0,-6.101697683E-1,-9.666704178E0
2.709407810E-1,-2.059323072E0,-5.766702294E-1,-9.676275253E0
2.806528130E-1,-2.049751759E0,-5.742774606E-1,-9.774381638E0
2.903656770E-1,-2.028216362E0,-5.766702294E-1,-9.709774971E0
3.000792710E-1,-2.011466503E0,-5.718846321E-1,-9.609276772E0
3.097920310E-1,-2.006680965E0,-5.718846321E-1,-9.669096947E0
3.195040630E-1,-2.011466503E0,-5.742774606E-1,-9.716953278E0
3.292169270E-1,-2.025823355E0,-5.742774606E-1,-9.628418922E0
3.389305730E-1,-2.037787676E0,-5.694918036E-1,-9.642776489E0
3.486433330E-1,-2.071287155E0,-5.742774606E-1,-9.764810562E0
3.583553650E-1,-2.078465462E0,-5.694918036E-1,-9.709774971E0
3.680682290E-1,-2.085644007E0,-5.790630579E-1,-9.626026154E0
3.777818230E-1,-2.088036776E0,-5.814558864E-1,-9.704989433E0
3.874945830E-1,-2.083251238E0,-5.958128572E-1,-9.726525307E0
3.972066150E-1,-2.064108610E0,-5.790630579E-1,-9.623633385E0
4.069194790E-1,-2.066501379E0,-5.790630579E-1,-9.621240616E0
4.166330730E-1,-2.056930065E0,-5.766702294E-1,-9.740881920E0
4.263458330E-1,-2.059323072E0,-5.838487148E-1,-9.673882484E0
4.360578650E-1,-2.066501379E0,-5.718846321E-1,-9.606884003E0
4.457707290E-1,-2.080858469E0,-5.694918036E-1,-9.716953278E0
4.554843750E-1,-2.061715841E0,-5.742774606E-1,-9.774381638E0
4.651971350E-1,-2.066501379E0,-5.551348329E-1,-9.659525871E0
4.749091670E-1,-2.066501379E0,-5.670989752E-1,-9.664311409E0
4.846220310E-1,-2.076072693E0,-5.647061467E-1,-9.745667458E0
4.943356250E-1,-2.052144527E0,-5.623133183E-1,-9.669096947E0
5.040483850E-1,-2.052144527E0,-5.551348329E-1,-9.590133667E0
5.137604170E-1,-2.047358990E0,-5.766702294E-1,-9.702596664E0
5.234732810E-1,-2.047358990E0,-5.982056856E-1,-9.736096382E0
5.331868750E-1,-2.054537296E0,-5.934200287E-1,-9.626026154E0
5.428996350E-1,-2.061715841E0,-5.886343718E-1,-9.657133102E0
5.526116670E-1,-2.059323072E0,-5.886343718E-1,-9.769596100E0
5.623245310E-1,-2.047358990E0,-5.718846321E-1,-9.683454514E0
5.720381770E-1,-2.049751759E0,-5.623133183E-1,-9.611669540E0
5.817509380E-1,-2.044965982E0,-5.623133183E-1,-9.738489151E0
5.914629690E-1,-2.047358990E0,-5.599204898E-1,-9.745667458E0
6.011758330E-1,-2.035394669E0,-5.623133183E-1,-9.633204460E0
6.108894270E-1,-2.049751759E0,-5.814558864E-1,-9.681061745E0
6.206021880E-1,-2.052144527E0,-5.934200287E-1,-9.764810562E0
6.303142190E-1,-2.033001900E0,-6.053841114E-1,-9.702596664E0
6.400270830E-1,-2.040180445E0,-6.053841114E-1,-9.637990952E0
6.497406770E-1,-2.037787676E0,-6.221339107E-1,-9.745667458E0
6.594534380E-1,-2.040180445E0,-6.340979934E-1,-9.748060226E0
6.691654690E-1,-2.047358990E0,-6.125625968E-1,-9.649954796E0
6.788783330E-1,-2.068894386E0,-5.910272002E-1,-9.676275253E0
6.885919790E-1,-2.078465462E0,-5.838487148E-1,-9.683454514E0
6.983047400E-1,-2.073679924E0,-5.599204898E-1,-9.685847282E0
7.080167710E-1,-2.080858469E0,-5.599204898E-1,-9.690632820E0
7.177296350E-1,-2.073679924E0,-5.623133183E-1,-9.685847282E0
7.274432290E-1,-2.071287155E0,-5.766702294E-1,-9.669096947E0
7.371559900E-1,-2.052144527E0,-5.958128572E-1,-9.685847282E0
7.468680210E-1,-2.049751759E0,-6.077769399E-1,-9.676275253E0
7.565808850E-1,-2.064108610E0,-6.149554253E-1,-9.690632820E0
7.662945310E-1,-2.066501379E0,-6.125625968E-1,-9.678668022E0
7.760072920E-1,-2.100000858E0,-6.053841114E-1,-9.681061745E0
7.857193230E-1,-2.097608089E0,-6.221339107E-1,-9.690632820E0
7.954321880E-1,-2.102393866E0,-6.101697683E-1,-9.707382202E0
8.051457810E-1,-2.083251238E0,-6.149554253E-1,-9.719346046E0
8.148585420E-1,-2.076072693E0,-6.197410822E-1,-9.704989433E0
8.245705730E-1,-2.056930065E0,-6.077769399E-1,-9.661918640E0
8.342834380E-1,-2.054537296E0,-5.910272002E-1,-9.640383720E0
8.439970310E-1,-2.061715841E0,-5.718846321E-1,-9.661918640E0
8.537097920E-1,-2.054537296E0,-5.670989752E-1,-9.681061745E0
8.634218230E-1,-2.052144527E0,-5.718846321E-1,-9.685847282E0
8.731346880E-1,-2.042573214E0,-6.053841114E-1,-9.669096947E0
8.828483330E-1,-2.044965982E0,-6.293123364E-1,-9.678668022E0
8.925610940E-1,-2.040180445E0,-6.245267391E-1,-9.678668022E0
9.022731250E-1,-2.033001900E0,-6.317051649E-1,-9.683454514E0
9.119859900E-1,-2.052144527E0,-6.245267391E-1,-9.678668022E0
9.216995830E-1,-2.052144527E0,-5.958128572E-1,-9.678668022E0
9.314123440E-1,-2.054537296E0,-5.814558864E-1,-9.683454514E0
9.411243750E-1,-2.047358990E0,-5.694918036E-1,-9.683454514E0
9.508372400E-1,-2.054537296E0,-5.623133183E-1,-9.673882484E0
9.605508850E-1,-2.047358990E0,-5.647061467E-1,-9.671489716E0
9.702636460E-1,-2.049751759E0,-5.599204898E-1,-9.673882484E0
9.799756770E-1,-2.044965982E0,-5.766702294E-1,-9.671489716E0
9.896885420E-1,-2.049751759E0,-5.814558864E-1,-9.673882484E0
9.994021350E-1,-2.064108610E0,-5.838487148E-1,-9.688240051E0
1.009114896E0,-2.054537296E0,-5.982056856E-1,-9.704989433E0
1.018826927E0,-2.059323072E0,-5.958128572E-1,-9.709774971E0
1.028539792E0,-2.052144527E0,-5.910272002E-1,-9.702596664E0
1.038253385E0,-2.044965982E0,-5.886343718E-1,-9.685847282E0
1.047966250E0,-2.042573214E0,-5.910272002E-1,-9.671489716E0
1.057678177E0,-2.033001900E0,-5.958128572E-1,-9.664311409E0
1.067391094E0,-2.023430586E0,-6.053841114E-1,-9.654740334E0
1.077104688E0,-2.030609131E0,-6.077769399E-1,-9.661918640E0
1.086817448E0,-2.049751759E0,-6.077769399E-1,-9.671489716E0
1.096529479E0,-2.059323072E0,-6.149554253E-1,-9.673882484E0
1.106242344E0,-2.080858469E0,-6.101697683E-1,-9.671489716E0
1.115955938E0,-2.080858469E0,-5.982056856E-1,-9.676275253E0
1.125668698E0,-2.078465462E0,-5.910272002E-1,-9.681061745E0
1.135380729E0,-2.080858469E0,-5.910272002E-1,-9.709774971E0
1.145093594E0,-2.073679924E0,-5.934200287E-1,-9.707382202E0
1.154807240E0,-2.073679924E0,-5.934200287E-1,-9.690632820E0
1.164520000E0,-2.054537296E0,-5.982056856E-1,-9.676275253E0
1.174232031E0,-2.040180445E0,-6.005984545E-1,-9.673882484E0
1.183944896E0,-2.044965982E0,-5.982056856E-1,-9.685847282E0
1.193658490E0,-2.033001900E0,-6.029912829E-1,-9.693025589E0
1.203371250E0,-2.047358990E0,-5.982056856E-1,-9.695418358E0
1.213083281E0,-2.042573214E0,-6.029912829E-1,-9.690632820E0
1.222796146E0,-2.028216362E0,-6.053841114E-1,-9.678668022E0
1.232509792E0,-2.042573214E0,-6.101697683E-1,-9.683454514E0
1.242222552E0,-2.042573214E0,-5.982056856E-1,-9.685847282E0
1.251934583E0,-2.049751759E0,-6.029912829E-1,-9.690632820E0
1.261647448E0,-2.044965982E0,-5.838487148E-1,-9.688240051E0
1.271361042E0,-2.042573214E0,-5.670989752E-1,-9.681061745E0
1.281073802E0,-2.056930065E0,-5.527420044E-1,-9.678668022E0
1.290785833E0,-2.052144527E0,-5.623133183E-1,-9.683454514E0
1.300498698E0,-2.061715841E0,-5.766702294E-1,-9.683454514E0
1.310212344E0,-2.073679924E0,-6.029912829E-1,-9.673882484E0
1.319925104E0,-2.059323072E0,-6.149554253E-1,-9.683454514E0
1.329637135E0,-2.071287155E0,-6.197410822E-1,-9.676275253E0
1.339350000E0,-2.068894386E0,-6.149554253E-1,-9.678668022E0
1.349063594E0,-2.076072693E0,-5.886343718E-1,-9.681061745E0
1.358776354E0,-2.068894386E0,-5.742774606E-1,-9.683454514E0
1.368488385E0,-2.088036776E0,-5.599204898E-1,-9.671489716E0
1.378201250E0,-2.090429783E0,-5.527420044E-1,-9.673882484E0
1.387914844E0,-2.073679924E0,-5.599204898E-1,-9.690632820E0
1.397627708E0,-2.073679924E0,-5.766702294E-1,-9.697811127E0
1.407339635E0,-2.059323072E0,-5.814558864E-1,-9.673882484E0
1.417052552E0,-2.068894386E0,-5.814558864E-1,-9.642776489E0
1.426766146E0,-2.061715841E0,-5.647061467E-1,-9.637990952E0
1.436478906E0,-2.076072693E0,-5.575276613E-1,-9.659525871E0
1.446190938E0,-2.080858469E0,-5.670989752E-1,-9.685847282E0
1.455903802E0,-2.076072693E0,-5.886343718E-1,-9.695418358E0
1.465617396E0,-2.090429783E0,-6.197410822E-1,-9.719346046E0
1.475330260E0,-2.080858469E0,-6.245267391E-1,-9.709774971E0
1.485042188E0,-2.052144527E0,-6.487540603E-1,-9.690632820E0
1.494755104E0,-2.054537296E0,-6.559324861E-1,-9.678668022E0
1.504468698E0,-2.047358990E0,-6.535396576E-1,-9.666704178E0
1.514181458E0,-2.037787676E0,-6.364908218E-1,-9.654740334E0
1.523893490E0,-2.030609131E0,-6.173482537E-1,-9.642776489E0
1.533606354E0,-2.044965982E0,-6.077769399E-1,-9.654740334E0
1.543319948E0,-2.042573214E0,-5.766702294E-1,-9.661918640E0
1.553032708E0,-2.052144527E0,-5.670989752E-1,-9.693025589E0
1.562744740E0,-2.049751759E0,-5.551348329E-1,-9.704989433E0
1.572457604E0,-2.054537296E0,-5.335994363E-1,-9.690632820E0
1.582171250E0,-2.059323072E0,-5.599204898E-1,-9.700203896E0
1.591884010E0,-2.052144527E0,-5.670989752E-1,-9.700203896E0
1.601596042E0,-2.047358990E0,-5.934200287E-1,-9.702596664E0
1.611308906E0,-2.047358990E0,-5.910272002E-1,-9.693025589E0
1.621022500E0,-2.052144527E0,-5.958128572E-1,-9.669096947E0
1.630735260E0,-2.052144527E0,-5.982056856E-1,-9.664311409E0
1.640447292E0,-2.061715841E0,-5.910272002E-1,-9.652347565E0
1.650160156E0,-2.061715841E0,-5.838487148E-1,-9.664311409E0
1.659873802E0,-2.054537296E0,-5.958128572E-1,-9.673882484E0
1.669586563E0,-2.080858469E0,-5.862415433E-1,-9.678668022E0
1.679298594E0,-2.064108610E0,-5.886343718E-1,-9.688240051E0
1.689011458E0,-2.066501379E0,-5.910272002E-1,-9.685847282E0
1.698725052E0,-2.066501379E0,-5.934200287E-1,-9.676275253E0
1.708437813E0,-2.061715841E0,-6.005984545E-1,-9.664311409E0
1.718149844E0,-2.061715841E0,-5.934200287E-1,-9.683454514E0
1.727862708E0,-2.056930065E0,-5.862415433E-1,-9.676275253E0
1.737576302E0,-2.049751759E0,-5.766702294E-1,-9.685847282E0
1.747289167E0,-2.037787676E0,-5.790630579E-1,-9.688240051E0
1.757001146E0,-2.054537296E0,-5.766702294E-1,-9.688240051E0
1.766714010E0,-2.047358990E0,-5.814558864E-1,-9.695418358E0
1.776427604E0,-2.056930065E0,-5.862415433E-1,-9.690632820E0
1.786140365E0,-2.054537296E0,-5.886343718E-1,-9.678668022E0
1.795852396E0,-2.064108610E0,-6.077769399E-1,-9.673882484E0
1.805565260E0,-2.061715841E0,-5.934200287E-1,-9.666704178E0
1.815278854E0,-2.054537296E0,-5.934200287E-1,-9.669096947E0
1.824991719E0,-2.049751759E0,-5.886343718E-1,-9.669096947E0
1.834703646E0,-2.061715841E0,-5.814558864E-1,-9.673882484E0
1.844416563E0,-2.061715841E0,-5.790630579E-1,-9.676275253E0
1.854130156E0,-2.061715841E0,-5.766702294E-1,-9.690632820E0
1.863842917E0,-2.056930065E0,-5.790630579E-1,-9.695418358E0
1.873554948E0,-2.056930065E0,-5.838487148E-1,-9.695418358E0
1.883267813E0,-2.056930065E0,-5.934200287E-1,-9.693025589E0
1.892981406E0,-2.052144527E0,-6.125625968E-1,-9.681061745E0
1.902694167E0,-2.049751759E0,-6.125625968E-1,-9.669096947E0
1.912406198E0,-2.059323072E0,-6.173482537E-1,-9.661918640E0
1.922119063E0,-2.049751759E0,-6.077769399E-1,-9.647562027E0
1.931832708E0,-2.054537296E0,-6.101697683E-1,-9.647562027E0
1.941545469E0,-2.047358990E0,-5.910272002E-1,-9.666704178E0
1.951257500E0,-2.056930065E0,-5.718846321E-1,-9.681061745E0
1.960970365E0,-2.064108610E0,-5.670989752E-1,-9.700203896E0
1.970683958E0,-2.073679924E0,-5.599204898E-1,-9.707382202E0
1.980396719E0,-2.088036776E0,-5.718846321E-1,-9.716953278E0
1.990108750E0,-2.100000858E0,-6.173482537E-1,-9.724132538E0
1.999821615E0,-2.076072693E0,-6.439684033E-1,-9.719346046E0
2.009535208E0,-2.054537296E0,-6.583253145E-1,-9.683454514E0
2.019248073E0,-2.044965982E0,-6.269195080E-1,-9.642776489E0
2.028960052E0,-2.037787676E0,-6.029912829E-1,-9.630811691E0
2.038672917E0,-2.047358990E0,-5.623133183E-1,-9.642776489E0
2.048386510E0,-2.044965982E0,-5.623133183E-1,-9.673882484E0
2.058099271E0,-2.042573214E0,-5.407779217E-1,-9.690632820E0
2.067811302E0,-2.068894386E0,-5.503492355E-1,-9.693025589E0
2.077524167E0,-2.059323072E0,-5.647061467E-1,-9.690632820E0
2.087237760E0,-2.064108610E0,-5.982056856E-1,-9.690632820E0
2.096950521E0,-2.056930065E0,-6.077769399E-1,-9.678668022E0
2.106662552E0,-2.061715841E0,-6.149554253E-1,-9.681061745E0
2.116375469E0,-2.056930065E0,-6.149554253E-1,-9.669096947E0
2.126089063E0,-2.056930065E0,-6.029912829E-1,-9.657133102E0
2.135801823E0,-2.059323072E0,-5.982056856E-1,-9.661918640E0
2.145513854E0,-2.061715841E0,-5.790630579E-1,-9.673882484E0
2.155226719E0,-2.064108610E0,-5.623133183E-1,-9.669096947E0
2.164940313E0,-2.052144527E0,-5.670989752E-1,-9.700203896E0
2.174653073E0,-2.061715841E0,-5.694918036E-1,-9.685847282E0
2.184365104E0,-2.064108610E0,-5.790630579E-1,-9.666704178E0
2.194077969E0,-2.076072693E0,-5.862415433E-1,-9.664311409E0
2.203791615E0,-2.068894386E0,-5.958128572E-1,-9.685847282E0
2.213504375E0,-2.078465462E0,-5.958128572E-1,-9.690632820E0
2.223216406E0,-2.076072693E0,-5.862415433E-1,-9.671489716E0
2.232929271E0,-2.068894386E0,-5.982056856E-1,-9.659525871E0
2.242642865E0,-2.061715841E0,-5.886343718E-1,-9.666704178E0
2.252355625E0,-2.061715841E0,-5.838487148E-1,-9.659525871E0
2.262067656E0,-2.052144527E0,-5.862415433E-1,-9.673882484E0
2.271780521E0,-2.061715841E0,-5.814558864E-1,-9.676275253E0
2.281494115E0,-2.064108610E0,-5.862415433E-1,-9.669096947E0
2.291206875E0,-2.073679924E0,-5.982056856E-1,-9.673882484E0
2.300918906E0,-2.073679924E0,-5.910272002E-1,-9.681061745E0
2.310631771E0,-2.068894386E0,-5.982056856E-1,-9.704989433E0
2.320345417E0,-2.061715841E0,-6.077769399E-1,-9.704989433E0
2.330058177E0,-2.052144527E0,-6.005984545E-1,-9.709774971E0
2.339770208E0,-2.042573214E0,-5.982056856E-1,-9.683454514E0
2.349483073E0,-2.033001900E0,-5.982056856E-1,-9.669096947E0
2.359196667E0,-2.033001900E0,-6.053841114E-1,-9.661918640E0
2.368909427E0,-2.021037817E0,-6.101697683E-1,-9.661918640E0
2.378621458E0,-2.011466503E0,-6.077769399E-1,-9.671489716E0
2.388334323E0,-2.018645048E0,-6.125625968E-1,-9.673882484E0
2.398047917E0,-2.021037817E0,-5.934200287E-1,-9.673882484E0
2.407760677E0,-2.035394669E0,-5.934200287E-1,-9.688240051E0
2.417472760E0,-2.035394669E0,-5.958128572E-1,-9.704989433E0
2.427185625E0,-2.040180445E0,-5.766702294E-1,-9.721739769E0
2.436899219E0,-2.040180445E0,-5.910272002E-1,-9.724132538E0
2.446611979E0,-2.037787676E0,-6.053841114E-1,-9.716953278E0
2.456324010E0,-2.040180445E0,-6.053841114E-1,-9.697811127E0
2.466036875E0,-2.033001900E0,-6.197410822E-1,-9.669096947E0
2.475750469E0,-2.025823355E0,-6.245267391E-1,-9.654740334E0
2.485463229E0,-2.028216362E0,-6.053841114E-1,-9.654740334E0
2.495175260E0,-2.033001900E0,-5.790630579E-1,-9.647562027E0
2.504888125E0,-2.054537296E0,-5.647061467E-1,-9.652347565E0
2.514601771E0,-2.064108610E0,-5.670989752E-1,-9.681061745E0
2.524314531E0,-2.066501379E0,-5.718846321E-1,-9.688240051E0
2.534026563E0,-2.078465462E0,-5.862415433E-1,-9.697811127E0
2.543739427E0,-2.066501379E0,-6.101697683E-1,-9.707382202E0
2.553453021E0,-2.054537296E0,-6.317051649E-1,-9.695418358E0
2.563165781E0,-2.047358990E0,-6.125625968E-1,-9.683454514E0
2.572877813E0,-2.054537296E0,-6.029912829E-1,-9.671489716E0
2.582590677E0,-2.061715841E0,-5.838487148E-1,-9.657133102E0
2.592304271E0,-2.068894386E0,-5.647061467E-1,-9.642776489E0
2.602017031E0,-2.085644007E0,-5.694918036E-1,-9.669096947E0
2.611729063E0,-2.085644007E0,-5.982056856E-1,-9.697811127E0
2.621441927E0,-2.085644007E0,-6.221339107E-1,-9.709774971E0
2.631155573E0,-2.078465462E0,-6.197410822E-1,-9.685847282E0
2.640868333E0,-2.097608089E0,-6.029912829E-1,-9.664311409E0
2.650580365E0,-2.083251238E0,-6.005984545E-1,-9.664311409E0
2.660293229E0,-2.073679924E0,-5.934200287E-1,-9.671489716E0
2.670006823E0,-2.042573214E0,-5.982056856E-1,-9.676275253E0
2.679719583E0,-2.044965982E0,-5.886343718E-1,-9.673882484E0
2.689431615E0,-2.033001900E0,-5.742774606E-1,-9.678668022E0
2.699144479E0,-2.025823355E0,-5.790630579E-1,-9.681061745E0
2.708858073E0,-2.016252279E0,-5.958128572E-1,-9.671489716E0
2.718570833E0,-2.021037817E0,-6.029912829E-1,-9.693025589E0
2.728282865E0,-2.023430586E0,-6.197410822E-1,-9.681061745E0
2.737995729E0,-2.025823355E0,-6.439684033E-1,-9.678668022E0
2.747709375E0,-2.013859272E0,-6.511468887E-1,-9.681061745E0
2.757422135E0,-2.021037817E0,-6.511468887E-1,-9.681061745E0
2.767134167E0,-2.033001900E0,-6.415755749E-1,-9.683454514E0
2.776847031E0,-2.047358990E0,-6.269195080E-1,-9.693025589E0
2.786560625E0,-2.049751759E0,-5.886343718E-1,-9.688240051E0
2.796273385E0,-2.042573214E0,-5.647061467E-1,-9.685847282E0
2.805985417E0,-2.059323072E0,-5.575276613E-1,-9.678668022E0
2.815698281E0,-2.061715841E0,-5.479564071E-1,-9.685847282E0
2.825411875E0,-2.064108610E0,-5.575276613E-1,-9.693025589E0
2.835124635E0,-2.076072693E0,-5.790630579E-1,-9.697811127E0
2.844836667E0,-2.052144527E0,-5.982056856E-1,-9.693025589E0
2.854549531E0,-2.047358990E0,-6.053841114E-1,-9.683454514E0
2.864263177E0,-2.013859272E0,-6.101697683E-1,-9.654740334E0
2.873975938E0,-2.023430586E0,-6.101697683E-1,-9.657133102E0
2.883687917E0,-2.028216362E0,-6.053841114E-1,-9.659525871E0
2.893400833E0,-2.044965982E0,-6.053841114E-1,-9.657133102E0
2.903114427E0,-2.047358990E0,-6.101697683E-1,-9.685847282E0
2.912827188E0,-2.054537296E0,-6.197410822E-1,-9.688240051E0
2.922539219E0,-2.061715841E0,-6.101697683E-1,-9.700203896E0
2.932252083E0,-2.078465462E0,-6.029912829E-1,-9.695418358E0
2.941965677E0,-2.073679924E0,-5.934200287E-1,-9.685847282E0
2.951678438E0,-2.064108610E0,-5.958128572E-1,-9.688240051E0
2.961390469E0,-2.061715841E0,-6.005984545E-1,-9.676275253E0
2.971103333E0,-2.054537296E0,-6.053841114E-1,-9.688240051E0
2.980816979E0,-2.052144527E0,-6.125625968E-1,-9.678668022E0
2.990529740E0,-2.042573214E0,-6.149554253E-1,-9.681061745E0
3.000241771E0,-2.028216362E0,-6.101697683E-1,-9.678668022E0
3.009954635E0,-2.035394669E0,-6.029912829E-1,-9.690632820E0
3.019668229E0,-2.028216362E0,-6.029912829E-1,-9.683454514E0
3.029380990E0,-2.033001900E0,-6.053841114E-1,-9.690632820E0
3.039093021E0,-2.037787676E0,-5.862415433E-1,-9.678668022E0
3.048805885E0,-2.042573214E0,-5.862415433E-1,-9.685847282E0
3.058519479E0,-2.052144527E0,-5.886343718E-1,-9.669096947E0
3.068232240E0,-2.042573214E0,-6.101697683E-1,-9.681061745E0
3.077944271E0,-2.030609131E0,-6.077769399E-1,-9.690632820E0
3.087657135E0,-2.023430586E0,-6.101697683E-1,-9.688240051E0
3.097370729E0,-2.018645048E0,-6.053841114E-1,-9.676275253E0
3.107083594E0,-2.016252279E0,-6.077769399E-1,-9.688240051E0
3.116795521E0,-2.016252279E0,-6.269195080E-1,-9.673882484E0
3.126508385E0,-2.023430586E0,-6.415755749E-1,-9.664311409E0
3.136222031E0,-2.033001900E0,-6.364908218E-1,-9.671489716E0
3.145934792E0,-2.054537296E0,-6.463612318E-1,-9.661918640E0
3.155646823E0,-2.056930065E0,-6.340979934E-1,-9.685847282E0
3.165359688E0,-2.071287155E0,-6.197410822E-1,-9.695418358E0
3.175073281E0,-2.080858469E0,-6.101697683E-1,-9.688240051E0
3.184786042E0,-2.071287155E0,-6.005984545E-1,-9.700203896E0
3.194498073E0,-2.068894386E0,-5.886343718E-1,-9.690632820E0
3.204210938E0,-2.068894386E0,-5.886343718E-1,-9.688240051E0
3.213924531E0,-2.066501379E0,-5.838487148E-1,-9.676275253E0
3.223637292E0,-2.054537296E0,-5.814558864E-1,-9.669096947E0
3.233349323E0,-2.054537296E0,-5.670989752E-1,-9.664311409E0
3.243062188E0,-2.059323072E0,-5.718846321E-1,-9.678668022E0
3.252775833E0,-2.068894386E0,-5.934200287E-1,-9.683454514E0
3.262488594E0,-2.054537296E0,-6.077769399E-1,-9.709774971E0
3.272200625E0,-2.040180445E0,-6.173482537E-1,-9.685847282E0
3.281913490E0,-2.025823355E0,-6.029912829E-1,-9.661918640E0
3.291627083E0,-2.037787676E0,-5.694918036E-1,-9.659525871E0
3.301339844E0,-2.040180445E0,-5.766702294E-1,-9.669096947E0
3.311051875E0,-2.035394669E0,-5.527420044E-1,-9.702596664E0
3.320764740E0,-2.030609131E0,-5.694918036E-1,-9.690632820E0
3.330478333E0,-2.033001900E0,-5.886343718E-1,-9.681061745E0
3.340191094E0,-2.042573214E0,-5.910272002E-1,-9.676275253E0
3.349903125E0,-2.044965982E0,-6.149554253E-1,-9.671489716E0
3.359615990E0,-2.052144527E0,-6.221339107E-1,-9.685847282E0
3.369329583E0,-2.066501379E0,-6.269195080E-1,-9.681061745E0
3.379042448E0,-2.071287155E0,-6.293123364E-1,-9.695418358E0
3.388754375E0,-2.080858469E0,-6.293123364E-1,-9.683454514E0
3.398467240E0,-2.056930065E0,-6.463612318E-1,-9.664311409E0
3.408180885E0,-2.054537296E0,-6.269195080E-1,-9.669096947E0
3.417893646E0,-2.052144527E0,-6.029912829E-1,-9.666704178E0
3.427605677E0,-2.056930065E0,-5.790630579E-1,-9.683454514E0
3.437318542E0,-2.066501379E0,-5.790630579E-1,-9.683454514E0
3.447032135E0,-2.064108610E0,-5.694918036E-1,-9.683454514E0
3.456744896E0,-2.059323072E0,-5.742774606E-1,-9.685847282E0
3.466456927E0,-2.040180445E0,-5.862415433E-1,-9.712167740E0
3.476169792E0,-2.049751759E0,-5.982056856E-1,-9.714560509E0
3.485883385E0,-2.025823355E0,-6.077769399E-1,-9.704989433E0
3.495596146E0,-2.025823355E0,-6.293123364E-1,-9.690632820E0
3.505308177E0,-2.030609131E0,-6.245267391E-1,-9.652347565E0
3.515021042E0,-2.044965982E0,-6.221339107E-1,-9.637990952E0
3.524734688E0,-2.052144527E0,-6.077769399E-1,-9.637990952E0
3.534447448E0,-2.040180445E0,-5.814558864E-1,-9.654740334E0
3.544159479E0,-2.047358990E0,-5.766702294E-1,-9.673882484E0
3.553872344E0,-2.054537296E0,-5.694918036E-1,-9.681061745E0
3.563585938E0,-2.066501379E0,-5.647061467E-1,-9.704989433E0
3.573298698E0,-2.068894386E0,-5.551348329E-1,-9.709774971E0
3.583010729E0,-2.073679924E0,-5.527420044E-1,-9.712167740E0
3.592723594E0,-2.064108610E0,-5.718846321E-1,-9.693025589E0
3.602437188E0,-2.044965982E0,-5.982056856E-1,-9.681061745E0
3.612149948E0,-2.049751759E0,-6.221339107E-1,-9.676275253E0
3.621861979E0,-2.025823355E0,-6.463612318E-1,-9.661918640E0
3.631574844E0,-2.028216362E0,-6.340979934E-1,-9.666704178E0
3.641288438E0,-2.025823355E0,-6.293123364E-1,-9.685847282E0
3.651001198E0,-2.040180445E0,-6.149554253E-1,-9.685847282E0
3.660713229E0,-2.040180445E0,-6.077769399E-1,-9.681061745E0
3.670426094E0,-2.056930065E0,-5.838487148E-1,-9.700203896E0
3.680139740E0,-2.052144527E0,-5.766702294E-1,-9.697811127E0
3.689852500E0,-2.052144527E0,-5.814558864E-1,-9.695418358E0
3.699564531E0,-2.044965982E0,-5.766702294E-1,-9.685847282E0
3.709277396E0,-2.025823355E0,-5.766702294E-1,-9.673882484E0
3.718990990E0,-2.009073734E0,-5.862415433E-1,-9.673882484E0
3.728703750E0,-2.013859272E0,-5.934200287E-1,-9.671489716E0
3.738415781E0,-2.013859272E0,-5.910272002E-1,-9.676275253E0
3.748128646E0,-2.011466503E0,-6.077769399E-1,-9.657133102E0
3.757842240E0,-2.035394669E0,-6.029912829E-1,-9.657133102E0
3.767555000E0,-2.054537296E0,-5.982056856E-1,-9.678668022E0
3.777267031E0,-2.068894386E0,-5.934200287E-1,-9.695418358E0
3.786979896E0,-2.080858469E0,-5.958128572E-1,-9.690632820E0
3.796693490E0,-2.114357948E0,-5.886343718E-1,-9.693025589E0
3.806406250E0,-2.128714800E0,-5.814558864E-1,-9.693025589E0
3.816118281E0,-2.114357948E0,-5.934200287E-1,-9.678668022E0
3.825831146E0,-2.116750717E0,-5.958128572E-1,-9.683454514E0
3.835544792E0,-2.111965179E0,-5.934200287E-1,-9.673882484E0
3.845257552E0,-2.088036776E0,-6.125625968E-1,-9.659525871E0
3.854969583E0,-2.071287155E0,-6.077769399E-1,-9.642776489E0
3.864682448E0,-2.080858469E0,-6.125625968E-1,-9.657133102E0
3.874396042E0,-2.071287155E0,-6.029912829E-1,-9.678668022E0
3.884108802E0,-2.073679924E0,-5.814558864E-1,-9.681061745E0
3.893820833E0,-2.068894386E0,-5.814558864E-1,-9.690632820E0
3.903533698E0,-2.080858469E0,-5.910272002E-1,-9.702596664E0
3.913247292E0,-2.064108610E0,-6.173482537E-1,-9.726525307E0
3.922960052E0,-2.037787676E0,-6.173482537E-1,-9.712167740E0
3.932672083E0,-2.030609131E0,-6.005984545E-1,-9.673882484E0
3.942384948E0,-2.016252279E0,-5.910272002E-1,-9.657133102E0
3.952098542E0,-2.013859272E0,-5.694918036E-1,-9.647562027E0
3.961811302E0,-2.028216362E0,-5.575276613E-1,-9.671489716E0
3.971523333E0,-2.021037817E0,-5.718846321E-1,-9.685847282E0
3.981236198E0,-2.013859272E0,-5.886343718E-1,-9.693025589E0
3.990949844E0,-2.030609131E0,-6.053841114E-1,-9.685847282E0
4.000662604E0,-2.035394669E0,-6.245267391E-1,-9.669096947E0
4.010374635E0,-2.047358990E0,-6.750751138E-1,-9.671489716E0
4.020087500E0,-2.049751759E0,-6.702894568E-1,-9.678668022E0
4.029801094E0,-2.056930065E0,-6.535396576E-1,-9.683454514E0
4.039513854E0,-2.061715841E0,-6.439684033E-1,-9.685847282E0
4.049225885E0,-2.061715841E0,-6.197410822E-1,-9.683454514E0
4.058938750E0,-2.054537296E0,-5.934200287E-1,-9.695418358E0
4.068652344E0,-2.052144527E0,-5.838487148E-1,-9.700203896E0
4.078365104E0,-2.054537296E0,-5.694918036E-1,-9.704989433E0
4.088077135E0,-2.056930065E0,-5.790630579E-1,-9.700203896E0
4.097790000E0,-2.059323072E0,-5.790630579E-1,-9.693025589E0
4.107503594E0,-2.052144527E0,-5.742774606E-1,-9.669096947E0
4.117216354E0,-2.049751759E0,-5.838487148E-1,-9.671489716E0
4.126928385E0,-2.040180445E0,-5.886343718E-1,-9.681061745E0
4.136641250E0,-2.035394669E0,-5.934200287E-1,-9.669096947E0
4.146354896E0,-2.037787676E0,-5.838487148E-1,-9.678668022E0
4.156067656E0,-2.033001900E0,-5.862415433E-1,-9.666704178E0
4.165779635E0,-2.033001900E0,-5.766702294E-1,-9.664311409E0
4.175492552E0,-2.037787676E0,-5.790630579E-1,-9.666704178E0
4.185206146E0,-2.047358990E0,-5.766702294E-1,-9.681061745E0
4.194918906E0,-2.047358990E0,-5.766702294E-1,-9.688240051E0
4.204630938E0,-2.056930065E0,-5.934200287E-1,-9.697811127E0
4.214343802E0,-2.054537296E0,-6.005984545E-1,-9.688240051E0
4.224057396E0,-2.049751759E0,-6.101697683E-1,-9.693025589E0
4.233770156E0,-2.061715841E0,-6.197410822E-1,-9.676275253E0
4.243482188E0,-2.047358990E0,-6.317051649E-1,-9.693025589E0
4.253195052E0,-2.056930065E0,-6.317051649E-1,-9.681061745E0
4.262908646E0,-2.064108610E0,-6.221339107E-1,-9.678668022E0
4.272621406E0,-2.071287155E0,-6.269195080E-1,-9.688240051E0
4.282333438E0,-2.068894386E0,-6.173482537E-1,-9.693025589E0
4.292046302E0,-2.064108610E0,-6.221339107E-1,-9.700203896E0
4.301759896E0,-2.068894386E0,-6.197410822E-1,-9.693025589E0
4.311472656E0,-2.052144527E0,-6.029912829E-1,-9.681061745E0
4.321184688E0,-2.049751759E0,-5.958128572E-1,-9.678668022E0
4.330897552E0,-2.059323072E0,-5.982056856E-1,-9.673882484E0
4.340611198E0,-2.061715841E0,-5.862415433E-1,-9.671489716E0
4.350323958E0,-2.061715841E0,-5.838487148E-1,-9.661918640E0
4.360035990E0,-2.068894386E0,-5.910272002E-1,-9.678668022E0
4.369748854E0,-2.054537296E0,-6.053841114E-1,-9.685847282E0
4.379462448E0,-2.049751759E0,-6.029912829E-1,-9.683454514E0
4.389175208E0,-2.037787676E0,-6.293123364E-1,-9.676275253E0
4.398887240E0,-2.037787676E0,-6.293123364E-1,-9.661918640E0
4.408600104E0,-2.049751759E0,-6.293123364E-1,-9.657133102E0
4.418313698E0,-2.040180445E0,-6.221339107E-1,-9.657133102E0
4.428026458E0,-2.044965982E0,-6.173482537E-1,-9.673882484E0
4.437738490E0,-2.054537296E0,-6.101697683E-1,-9.683454514E0
4.447451354E0,-2.042573214E0,-6.149554253E-1,-9.700203896E0
4.457164948E0,-2.073679924E0,-6.101697683E-1,-9.690632820E0
4.466877708E0,-2.054537296E0,-6.197410822E-1,-9.685847282E0
4.476589740E0,-2.052144527E0,-6.221339107E-1,-9.685847282E0
4.486302604E0,-2.044965982E0,-6.317051649E-1,-9.671489716E0
4.496016198E0,-2.047358990E0,-6.245267391E-1,-9.664311409E0
4.505729063E0,-2.049751759E0,-6.029912829E-1,-9.671489716E0
4.515440990E0,-2.047358990E0,-5.934200287E-1,-9.681061745E0
4.525153854E0,-2.054537296E0,-5.814558864E-1,-9.693025589E0
4.534867500E0,-2.056930065E0,-5.838487148E-1,-9.695418358E0
4.544580260E0,-2.076072693E0,-5.886343718E-1,-9.697811127E0
4.554292292E0,-2.071287155E0,-6.029912829E-1,-9.693025589E0
4.564005156E0,-2.066501379E0,-6.029912829E-1,-9.697811127E0
4.573718750E0,-2.049751759E0,-6.317051649E-1,-9.702596664E0
4.583431510E0,-2.037787676E0,-6.269195080E-1,-9.683454514E0
4.593143542E0,-2.033001900E0,-5.982056856E-1,-9.649954796E0
4.602856406E0,-2.042573214E0,-5.838487148E-1,-9.645169258E0
4.612570000E0,-2.030609131E0,-5.814558864E-1,-9.661918640E0
4.622282760E0,-2.049751759E0,-5.742774606E-1,-9.704989433E0
4.631994792E0,-2.035394669E0,-5.910272002E-1,-9.716953278E0
4.641707656E0,-2.040180445E0,-6.077769399E-1,-9.712167740E0
4.651421250E0,-2.052144527E0,-6.197410822E-1,-9.688240051E0
4.661134010E0,-2.052144527E0,-6.245267391E-1,-9.681061745E0
4.670846042E0,-2.037787676E0,-6.340979934E-1,-9.673882484E0
4.680558906E0,-2.044965982E0,-6.463612318E-1,-9.666704178E0
4.690272552E0,-2.030609131E0,-6.293123364E-1,-9.671489716E0
4.699985313E0,-2.018645048E0,-6.364908218E-1,-9.681061745E0
4.709697344E0,-2.025823355E0,-6.317051649E-1,-9.681061745E0
4.719410208E0,-2.030609131E0,-6.293123364E-1,-9.695418358E0
4.729123802E0,-2.037787676E0,-6.029912829E-1,-9.712167740E0
4.738836563E0,-2.047358990E0,-5.958128572E-1,-9.731310844E0
4.748548594E0,-2.054537296E0,-5.886343718E-1,-9.707382202E0
4.758261458E0,-2.056930065E0,-5.958128572E-1,-9.693025589E0
4.767975052E0,-2.042573214E0,-5.982056856E-1,-9.683454514E0
4.777687813E0,-2.030609131E0,-6.029912829E-1,-9.685847282E0
4.787399844E0,-2.044965982E0,-5.886343718E-1,-9.681061745E0
4.797112708E0,-2.049751759E0,-5.958128572E-1,-9.673882484E0
4.806826302E0,-2.047358990E0,-5.958128572E-1,-9.676275253E0
4.816539063E0,-2.049751759E0,-5.934200287E-1,-9.664311409E0
4.826251094E0,-2.049751759E0,-5.910272002E-1,-9.676275253E0
4.835963958E0,-2.037787676E0,-6.029912829E-1,-9.683454514E0
4.845677604E0,-2.049751759E0,-6.029912829E-1,-9.681061745E0
4.855390365E0,-2.068894386E0,-6.053841114E-1,-9.693025589E0
4.865102396E0,-2.066501379E0,-6.149554253E-1,-9.693025589E0
4.874815260E0,-2.080858469E0,-6.197410822E-1,-9.685847282E0
4.884528854E0,-2.085644007E0,-6.293123364E-1,-9.683454514E0
4.894241615E0,-2.085644007E0,-6.293123364E-1,-9.688240051E0
4.903953646E0,-2.068894386E0,-6.197410822E-1,-9.690632820E0
4.913666510E0,-2.064108610E0,-6.197410822E-1,-9.685847282E0
4.923380104E0,-2.076072693E0,-6.101697683E-1,-9.683454514E0
4.933092865E0,-2.054537296E0,-5.934200287E-1,-9.678668022E0
4.942804896E0,-2.044965982E0,-6.005984545E-1,-9.688240051E0
4.952517760E0,-2.054537296E0,-5.982056856E-1,-9.685847282E0
4.962231406E0,-2.047358990E0,-6.005984545E-1,-9.693025589E0
4.971944167E0,-2.040180445E0,-5.886343718E-1,-9.695418358E0
4.981656198E0,-2.033001900E0,-5.934200287E-1,-9.690632820E0
4.991369063E0,-2.028216362E0,-5.934200287E-1,-9.693025589E0
5.001082656E0,-2.033001900E0,-5.934200287E-1,-9.690632820E0
5.010795417E0,-2.047358990E0,-6.005984545E-1,-9.707382202E0
5.020507448E0,-2.028216362E0,-6.077769399E-1,-9.709774971E0
5.030220313E0,-2.047358990E0,-6.197410822E-1,-9.714560509E0
5.039933906E0,-2.047358990E0,-6.269195080E-1,-9.712167740E0
5.049646667E0,-2.047358990E0,-6.317051649E-1,-9.712167740E0
5.059358698E0,-2.044965982E0,-6.101697683E-1,-9.676275253E0
5.069071563E0,-2.035394669E0,-6.101697683E-1,-9.669096947E0
5.078785208E0,-2.011466503E0,-6.101697683E-1,-9.669096947E0
5.088497969E0,-2.004287958E0,-6.197410822E-1,-9.688240051E0
5.098210000E0,-2.004287958E0,-6.415755749E-1,-9.693025589E0
5.107922865E0,-2.025823355E0,-6.245267391E-1,-9.716953278E0
5.117636458E0,-2.037787676E0,-6.197410822E-1,-9.707382202E0
5.127349219E0,-2.056930065E0,-6.005984545E-1,-9.707382202E0
5.137061250E0,-2.042573214E0,-5.934200287E-1,-9.700203896E0
5.146774115E0,-2.040180445E0,-5.742774606E-1,-9.690632820E0
5.156487760E0,-2.049751759E0,-5.814558864E-1,-9.676275253E0
5.166200521E0,-2.059323072E0,-5.742774606E-1,-9.681061745E0
5.175912552E0,-2.078465462E0,-5.934200287E-1,-9.690632820E0
5.185625417E0,-2.071287155E0,-6.197410822E-1,-9.697811127E0
5.195339010E0,-2.083251238E0,-6.439684033E-1,-9.728918076E0
5.205051771E0,-2.085644007E0,-6.439684033E-1,-9.716953278E0
5.214763802E0,-2.078465462E0,-6.125625968E-1,-9.678668022E0
5.224476667E0,-2.080858469E0,-6.005984545E-1,-9.652347565E0
5.234190313E0,-2.083251238E0,-5.934200287E-1,-9.666704178E0
5.243903073E0,-2.078465462E0,-5.910272002E-1,-9.669096947E0
5.253615104E0,-2.061715841E0,-6.053841114E-1,-9.681061745E0
5.263327969E0,-2.064108610E0,-6.173482537E-1,-9.690632820E0
5.273041563E0,-2.061715841E0,-6.245267391E-1,-9.676275253E0
5.282754323E0,-2.066501379E0,-6.293123364E-1,-9.690632820E0
5.292466354E0,-2.076072693E0,-6.221339107E-1,-9.697811127E0
5.302179219E0,-2.083251238E0,-6.293123364E-1,-9.700203896E0
5.311892865E0,-2.076072693E0,-6.269195080E-1,-9.709774971E0
5.321605625E0,-2.068894386E0,-6.197410822E-1,-9.709774971E0
5.331317656E0,-2.052144527E0,-6.221339107E-1,-9.685847282E0
5.341030521E0,-2.061715841E0,-6.173482537E-1,-9.671489716E0
5.350744115E0,-2.059323072E0,-6.077769399E-1,-9.673882484E0
5.360456979E0,-2.071287155E0,-5.766702294E-1,-9.676275253E0
5.370168906E0,-2.061715841E0,-5.670989752E-1,-9.688240051E0
5.379881823E0,-2.044965982E0,-5.886343718E-1,-9.688240051E0
5.389595417E0,-2.037787676E0,-6.053841114E-1,-9.712167740E0
5.399308177E0,-2.037787676E0,-6.125625968E-1,-9.733703613E0
5.409020208E0,-2.040180445E0,-6.101697683E-1,-9.740881920E0
5.418733073E0,-2.042573214E0,-6.077769399E-1,-9.757631302E0
5.428446719E0,-2.033001900E0,-6.077769399E-1,-9.707382202E0
5.438159479E0,-2.016252279E0,-6.077769399E-1,-9.688240051E0
5.447871510E0,-1.985145450E0,-6.053841114E-1,-9.652347565E0
5.457584375E0,-1.992323995E0,-6.005984545E-1,-9.647562027E0
5.467297969E0,-1.987538338E0,-5.982056856E-1,-9.669096947E0
5.477010833E0,-2.006680965E0,-6.005984545E-1,-9.671489716E0
5.486722813E0,-2.021037817E0,-6.125625968E-1,-9.690632820E0
5.496435677E0,-2.044965982E0,-6.101697683E-1,-9.707382202E0
5.506149271E0,-2.056930065E0,-5.958128572E-1,-9.721739769E0
5.515862031E0,-2.061715841E0,-5.790630579E-1,-9.719346046E0
5.525574063E0,-2.054537296E0,-5.862415433E-1,-9.704989433E0
5.535286927E0,-2.056930065E0,-5.838487148E-1,-9.709774971E0
5.545000573E0,-2.037787676E0,-5.862415433E-1,-9.700203896E0
5.554713333E0,-2.047358990E0,-6.029912829E-1,-9.700203896E0
5.564425365E0,-2.052144527E0,-6.173482537E-1,-9.702596664E0
5.574138229E0,-2.061715841E0,-6.101697683E-1,-9.685847282E0
5.583851875E0,-2.064108610E0,-6.197410822E-1,-9.673882484E0
5.593564635E0,-2.061715841E0,-6.197410822E-1,-9.678668022E0
5.603276667E0,-2.052144527E0,-6.197410822E-1,-9.673882484E0
5.612989531E0,-2.059323072E0,-6.173482537E-1,-9.678668022E0
5.622703177E0,-2.061715841E0,-6.173482537E-1,-9.693025589E0
5.632415938E0,-2.047358990E0,-6.173482537E-1,-9.702596664E0
5.642127969E0,-2.052144527E0,-6.149554253E-1,-9.724132538E0
5.651840833E0,-2.066501379E0,-6.197410822E-1,-9.719346046E0
5.661554427E0,-2.061715841E0,-6.149554253E-1,-9.707382202E0
5.671267292E0,-2.054537296E0,-6.029912829E-1,-9.693025589E0
5.680979271E0,-2.059323072E0,-6.125625968E-1,-9.676275253E0
5.690692135E0,-2.064108610E0,-6.173482537E-1,-9.671489716E0
5.700405729E0,-2.068894386E0,-6.197410822E-1,-9.685847282E0
5.710118594E0,-2.068894386E0,-6.197410822E-1,-9.693025589E0
5.719830573E0,-2.054537296E0,-6.149554253E-1,-9.683454514E0
5.729543438E0,-2.056930065E0,-6.077769399E-1,-9.693025589E0
5.739257031E0,-2.066501379E0,-5.910272002E-1,-9.688240051E0
5.748969896E0,-2.061715841E0,-5.814558864E-1,-9.690632820E0
5.758681875E0,-2.059323072E0,-5.766702294E-1,-9.690632820E0
5.768394740E0,-2.059323072E0,-5.934200287E-1,-9.700203896E0
5.778108333E0,-2.054537296E0,-5.958128572E-1,-9.702596664E0
5.787821094E0,-2.073679924E0,-6.125625968E-1,-9.707382202E0
5.797533177E0,-2.052144527E0,-6.364908218E-1,-9.726525307E0
5.807246042E0,-2.049751759E0,-6.583253145E-1,-9.693025589E0
5.816959635E0,-2.042573214E0,-6.364908218E-1,-9.673882484E0
5.826672396E0,-2.040180445E0,-6.125625968E-1,-9.669096947E0
5.836384479E0,-2.056930065E0,-6.077769399E-1,-9.671489716E0
5.846097344E0,-2.052144527E0,-5.958128572E-1,-9.685847282E0
5.855810938E0,-2.047358990E0,-5.934200287E-1,-9.702596664E0
5.865523802E0,-2.040180445E0,-5.934200287E-1,-9.690632820E0
5.875235781E0,-2.042573214E0,-5.886343718E-1,-9.697811127E0
5.884948646E0,-2.044965982E0,-6.101697683E-1,-9.690632820E0
5.894662240E0,-2.035394669E0,-6.197410822E-1,-9.693025589E0
5.904375104E0,-2.037787676E0,-6.101697683E-1,-9.697811127E0
5.914087083E0,-2.033001900E0,-6.221339107E-1,-9.704989433E0
5.923799948E0,-2.040180445E0,-6.197410822E-1,-9.681061745E0
5.933513542E0,-2.030609131E0,-6.101697683E-1,-9.683454514E0
5.943226406E0,-2.025823355E0,-6.125625968E-1,-9.678668022E0
5.952938385E0,-2.030609131E0,-6.101697683E-1,-9.673882484E0
5.962651250E0,-2.035394669E0,-6.053841114E-1,-9.683454514E0
5.972364896E0,-2.049751759E0,-5.910272002E-1,-9.681061745E0
5.982077656E0,-2.054537296E0,-5.862415433E-1,-9.681061745E0
5.991789688E0,-2.054537296E0,-5.790630579E-1,-9.673882484E0
6.001502552E0,-2.056930065E0,-6.005984545E-1,-9.685847282E0
6.011216198E0,-2.056930065E0,-5.862415433E-1,-9.704989433E0
6.020928958E0,-2.071287155E0,-5.862415433E-1,-9.693025589E0
6.030640990E0,-2.076072693E0,-6.005984545E-1,-9.704989433E0
6.040353854E0,-2.064108610E0,-5.958128572E-1,-9.690632820E0
6.050067500E0,-2.040180445E0,-5.958128572E-1,-9.676275253E0
6.059780260E0,-2.033001900E0,-6.029912829E-1,-9.671489716E0
6.069492292E0,-2.033001900E0,-6.005984545E-1,-9.659525871E0
6.079205208E0,-2.023430586E0,-5.982056856E-1,-9.669096947E0
6.088918802E0,-2.021037817E0,-6.077769399E-1,-9.669096947E0
6.098631563E0,-2.021037817E0,-5.982056856E-1,-9.683454514E0
6.108343594E0,-2.052144527E0,-5.910272002E-1,-9.704989433E0
6.118056510E0,-2.056930065E0,-5.862415433E-1,-9.707382202E0
6.127770104E0,-2.056930065E0,-5.862415433E-1,-9.719346046E0
6.137482969E0,-2.066501379E0,-5.910272002E-1,-9.709774971E0
6.147194948E0,-2.052144527E0,-6.077769399E-1,-9.702596664E0
6.156907813E0,-2.054537296E0,-6.173482537E-1,-9.688240051E0
6.166621406E0,-2.040180445E0,-6.317051649E-1,-9.676275253E0
6.176334271E0,-2.035394669E0,-6.364908218E-1,-9.683454514E0
6.186046250E0,-2.025823355E0,-6.245267391E-1,-9.673882484E0
6.195759115E0,-2.030609131E0,-6.221339107E-1,-9.685847282E0
6.205472760E0,-2.040180445E0,-6.029912829E-1,-9.683454514E0
6.215185521E0,-2.059323072E0,-5.958128572E-1,-9.688240051E0
6.224897552E0,-2.054537296E0,-5.982056856E-1,-9.693025589E0
6.234610417E0,-2.061715841E0,-5.886343718E-1,-9.714560509E0
6.244324063E0,-2.056930065E0,-6.029912829E-1,-9.702596664E0
6.254036823E0,-2.056930065E0,-6.077769399E-1,-9.702596664E0
6.263748854E0,-2.054537296E0,-6.053841114E-1,-9.683454514E0
6.273461771E0,-2.054537296E0,-6.149554253E-1,-9.669096947E0
6.283175365E0,-2.044965982E0,-6.197410822E-1,-9.664311409E0
6.292888125E0,-2.040180445E0,-6.077769399E-1,-9.654740334E0
6.302600156E0,-2.037787676E0,-5.934200287E-1,-9.669096947E0
6.312313073E0,-2.044965982E0,-5.934200287E-1,-9.661918640E0
6.322026667E0,-2.047358990E0,-5.982056856E-1,-9.693025589E0
6.331739531E0,-2.068894386E0,-5.910272002E-1,-9.695418358E0
6.341451510E0,-2.068894386E0,-5.934200287E-1,-9.700203896E0
6.351164375E0,-2.068894386E0,-6.029912829E-1,-9.697811127E0
6.360878021E0,-2.064108610E0,-6.053841114E-1,-9.690632820E0
6.370590781E0,-2.059323072E0,-6.101697683E-1,-9.681061745E0
6.380302813E0,-2.059323072E0,-6.053841114E-1,-9.676275253E0
6.390015677E0,-2.056930065E0,-5.910272002E-1,-9.671489716E0
6.399729323E0,-2.044965982E0,-6.053841114E-1,-9.683454514E0
6.409442083E0,-2.042573214E0,-6.364908218E-1,-9.709774971E0
6.419154115E0,-2.028216362E0,-6.364908218E-1,-9.712167740E0
6.428867031E0,-2.035394669E0,-6.245267391E-1,-9.695418358E0
6.438580625E0,-2.035394669E0,-6.053841114E-1,-9.673882484E0
6.448293385E0,-2.033001900E0,-5.862415433E-1,-9.664311409E0
6.458005417E0,-2.042573214E0,-5.670989752E-1,-9.676275253E0
6.467718333E0,-2.037787676E0,-5.814558864E-1,-9.685847282E0
6.477431927E0,-2.044965982E0,-5.694918036E-1,-9.685847282E0
6.487144792E0,-2.052144527E0,-5.790630579E-1,-9.685847282E0
6.496856771E0,-2.035394669E0,-5.934200287E-1,-9.683454514E0
6.506569635E0,-2.040180445E0,-6.005984545E-1,-9.685847282E0
6.516283281E0,-2.042573214E0,-6.077769399E-1,-9.688240051E0
6.525996042E0,-2.049751759E0,-6.173482537E-1,-9.693025589E0
6.535708073E0,-2.049751759E0,-6.173482537E-1,-9.678668022E0
6.545420938E0,-2.052144527E0,-6.101697683E-1,-9.666704178E0
6.555134583E0,-2.040180445E0,-6.173482537E-1,-9.669096947E0
6.564847344E0,-2.035394669E0,-6.101697683E-1,-9.685847282E0
6.574559375E0,-2.044965982E0,-6.125625968E-1,-9.683454514E0
6.584272292E0,-2.040180445E0,-6.077769399E-1,-9.681061745E0
6.593985885E0,-2.047358990E0,-5.934200287E-1,-9.673882484E0
6.603698646E0,-2.047358990E0,-5.862415433E-1,-9.673882484E0
6.613410729E0,-2.035394669E0,-5.886343718E-1,-9.693025589E0
6.623123594E0,-2.047358990E0,-6.077769399E-1,-9.704989433E0
6.632837188E0,-2.047358990E0,-6.029912829E-1,-9.702596664E0
6.642550052E0,-2.052144527E0,-6.029912829E-1,-9.695418358E0
6.652262031E0,-2.054537296E0,-5.958128572E-1,-9.683454514E0
6.661974896E0,-2.061715841E0,-5.910272002E-1,-9.678668022E0
6.671688542E0,-2.061715841E0,-5.766702294E-1,-9.669096947E0
6.681401302E0,-2.052144527E0,-5.694918036E-1,-9.666704178E0
6.691113333E0,-2.044965982E0,-5.862415433E-1,-9.671489716E0
6.700826198E0,-2.030609131E0,-5.982056856E-1,-9.673882484E0
6.710539844E0,-2.025823355E0,-6.101697683E-1,-9.669096947E0
6.720252604E0,-2.028216362E0,-6.149554253E-1,-9.683454514E0
6.729964688E0,-2.044965982E0,-6.077769399E-1,-9.676275253E0
6.739677552E0,-2.059323072E0,-6.173482537E-1,-9.685847282E0
6.749391146E0,-2.056930065E0,-6.053841114E-1,-9.683454514E0
6.759104010E0,-2.047358990E0,-6.029912829E-1,-9.683454514E0
6.768815990E0,-2.052144527E0,-5.910272002E-1,-9.673882484E0
6.778528854E0,-2.044965982E0,-5.862415433E-1,-9.702596664E0
6.788242500E0,-2.037787676E0,-5.838487148E-1,-9.719346046E0
6.797955260E0,-2.042573214E0,-5.886343718E-1,-9.714560509E0
6.807667292E0,-2.044965982E0,-5.910272002E-1,-9.712167740E0
6.817380156E0,-2.023430586E0,-6.197410822E-1,-9.671489716E0
6.827093802E0,-2.028216362E0,-6.340979934E-1,-9.652347565E0
6.836806563E0,-2.025823355E0,-6.293123364E-1,-9.623633385E0
6.846518594E0,-2.021037817E0,-6.197410822E-1,-9.626026154E0
6.856231510E0,-2.025823355E0,-5.910272002E-1,-9.630811691E0
6.865945104E0,-2.037787676E0,-5.766702294E-1,-9.642776489E0
6.875657969E0,-2.037787676E0,-5.551348329E-1,-9.685847282E0
6.885369948E0,-2.044965982E0,-5.455635786E-1,-9.721739769E0
6.895082813E0,-2.054537296E0,-5.359922647E-1,-9.728918076E0
6.904796458E0,-2.071287155E0,-5.527420044E-1,-9.757631302E0
6.914509219E0,-2.080858469E0,-5.694918036E-1,-9.750452995E0
6.924221250E0,-2.066501379E0,-6.125625968E-1,-9.740881920E0
6.933934115E0,-2.049751759E0,-6.293123364E-1,-9.702596664E0
6.943647760E0,-2.044965982E0,-6.511468887E-1,-9.669096947E0
6.953360521E0,-2.030609131E0,-6.559324861E-1,-9.628418922E0
6.963072552E0,-2.016252279E0,-6.702894568E-1,-9.623633385E0
6.972785469E0,-2.006680965E0,-6.559324861E-1,-9.611669540E0
6.982499063E0,-2.004287958E0,-6.388836503E-1,-9.649954796E0
6.992211823E0,-2.018645048E0,-6.149554253E-1,-9.697811127E0
7.001923906E0,-2.040180445E0,-6.005984545E-1,-9.714560509E0
7.011636771E0,-2.047358990E0,-5.982056856E-1,-9.740881920E0
7.021350365E0,-2.040180445E0,-6.053841114E-1,-9.748060226E0
7.031063229E0,-2.030609131E0,-6.221339107E-1,-9.757631302E0
7.040775208E0,-2.009073734E0,-6.487540603E-1,-9.743274689E0
7.050488073E0,-1.994716763E0,-6.439684033E-1,-9.695418358E0
7.060201719E0,-1.989931107E0,-6.173482537E-1,-9.645169258E0
7.069914479E0,-1.999502420E0,-5.958128572E-1,-9.652347565E0
7.079626510E0,-2.006680965E0,-5.862415433E-1,-9.645169258E0
7.089339427E0,-2.009073734E0,-5.670989752E-1,-9.664311409E0
7.099053021E0,-2.016252279E0,-5.814558864E-1,-9.673882484E0
7.108765781E0,-2.030609131E0,-5.814558864E-1,-9.671489716E0
7.118477865E0,-2.052144527E0,-5.862415433E-1,-9.704989433E0
7.128190729E0,-2.052144527E0,-5.886343718E-1,-9.714560509E0
7.137904323E0,-2.054537296E0,-6.101697683E-1,-9.724132538E0
7.147617188E0,-2.059323072E0,-6.149554253E-1,-9.704989433E0
7.157329167E0,-2.040180445E0,-6.149554253E-1,-9.669096947E0
7.167042031E0,-2.042573214E0,-6.125625968E-1,-9.654740334E0
7.176755677E0,-2.047358990E0,-6.221339107E-1,-9.649954796E0
7.186468438E0,-2.061715841E0,-6.053841114E-1,-9.657133102E0
7.196180469E0,-2.076072693E0,-5.958128572E-1,-9.683454514E0
7.205893385E0,-2.076072693E0,-5.910272002E-1,-9.693025589E0
7.215606979E0,-2.085644007E0,-5.934200287E-1,-9.683454514E0
7.225319740E0,-2.083251238E0,-5.982056856E-1,-9.673882484E0
7.235031823E0,-2.068894386E0,-6.005984545E-1,-9.671489716E0
7.244744688E0,-2.064108610E0,-6.101697683E-1,-9.697811127E0
7.254458281E0,-2.044965982E0,-6.101697683E-1,-9.693025589E0
7.264171146E0,-2.025823355E0,-6.101697683E-1,-9.676275253E0
7.273883125E0,-2.030609131E0,-5.982056856E-1,-9.661918640E0
7.283595990E0,-2.021037817E0,-5.958128572E-1,-9.685847282E0
7.293309635E0,-2.028216362E0,-5.958128572E-1,-9.697811127E0
7.303022396E0,-2.028216362E0,-5.982056856E-1,-9.690632820E0
7.312734427E0,-2.042573214E0,-6.077769399E-1,-9.690632820E0
7.322447344E0,-2.044965982E0,-6.101697683E-1,-9.704989433E0
7.332160938E0,-2.052144527E0,-5.958128572E-1,-9.695418358E0
7.341873698E0,-2.054537296E0,-5.910272002E-1,-9.690632820E0
7.351585781E0,-2.061715841E0,-6.101697683E-1,-9.673882484E0
7.361298646E0,-2.052144527E0,-5.982056856E-1,-9.671489716E0
7.371012240E0,-2.047358990E0,-6.005984545E-1,-9.673882484E0
7.380725104E0,-2.023430586E0,-5.814558864E-1,-9.671489716E0
7.390437083E0,-2.025823355E0,-6.005984545E-1,-9.688240051E0
7.400149948E0,-2.047358990E0,-5.934200287E-1,-9.697811127E0
7.409863594E0,-2.042573214E0,-6.029912829E-1,-9.724132538E0
7.419576354E0,-2.030609131E0,-6.029912829E-1,-9.724132538E0
7.429288385E0,-2.018645048E0,-6.125625968E-1,-9.712167740E0
7.439001302E0,-1.997109652E0,-6.293123364E-1,-9.702596664E0
7.448714896E0,-1.999502420E0,-6.293123364E-1,-9.678668022E0
7.458427656E0,-2.004287958E0,-6.463612318E-1,-9.669096947E0
7.468139740E0,-2.018645048E0,-6.364908218E-1,-9.664311409E0
7.477852604E0,-2.037787676E0,-6.221339107E-1,-9.681061745E0
7.487566198E0,-2.059323072E0,-6.101697683E-1,-9.683454514E0
7.497279063E0,-2.059323072E0,-5.838487148E-1,-9.688240051E0
7.506991042E0,-2.071287155E0,-5.742774606E-1,-9.695418358E0
7.516703906E0,-2.066501379E0,-5.742774606E-1,-9.719346046E0
7.526417552E0,-2.052144527E0,-6.029912829E-1,-9.700203896E0
7.536130313E0,-2.059323072E0,-6.077769399E-1,-9.690632820E0
7.545842344E0,-2.040180445E0,-6.269195080E-1,-9.666704178E0
7.555555260E0,-2.047358990E0,-6.197410822E-1,-9.661918640E0
7.565268854E0,-2.040180445E0,-6.053841114E-1,-9.664311409E0
7.574981615E0,-2.047358990E0,-5.958128572E-1,-9.664311409E0
7.584693698E0,-2.061715841E0,-5.958128572E-1,-9.688240051E0
7.594406563E0,-2.068894386E0,-5.838487148E-1,-9.702596664E0
7.604120208E0,-2.064108610E0,-5.886343718E-1,-9.712167740E0
7.613832969E0,-2.059323072E0,-5.838487148E-1,-9.712167740E0
7.623545000E0,-2.040180445E0,-5.958128572E-1,-9.714560509E0
7.633257865E0,-2.037787676E0,-6.101697683E-1,-9.700203896E0
7.642971510E0,-2.023430586E0,-6.077769399E-1,-9.676275253E0
7.652684271E0,-2.009073734E0,-5.982056856E-1,-9.659525871E0
7.662396354E0,-2.016252279E0,-5.862415433E-1,-9.661918640E0
7.672109219E0,-2.006680965E0,-5.958128572E-1,-9.685847282E0
7.681822813E0,-2.021037817E0,-6.029912829E-1,-9.721739769E0
7.691535677E0,-2.016252279E0,-6.077769399E-1,-9.745667458E0
7.701247656E0,-2.047358990E0,-5.910272002E-1,-9.709774971E0
7.710960521E0,-2.064108610E0,-5.718846321E-1,-9.690632820E0
7.720674167E0,-2.064108610E0,-5.694918036E-1,-9.683454514E0
7.730386927E0,-2.071287155E0,-5.838487148E-1,-9.697811127E0
7.740098958E0,-2.044965982E0,-5.910272002E-1,-9.695418358E0
7.749811875E0,-2.044965982E0,-6.005984545E-1,-9.673882484E0
7.759525469E0,-2.056930065E0,-6.005984545E-1,-9.652347565E0
7.769238333E0,-2.054537296E0,-6.029912829E-1,-9.640383720E0
7.778950313E0,-2.080858469E0,-5.862415433E-1,-9.652347565E0
7.788663177E0,-2.092822552E0,-6.029912829E-1,-9.664311409E0
7.798376823E0,-2.078465462E0,-5.790630579E-1,-9.671489716E0
7.808089583E0,-2.064108610E0,-5.670989752E-1,-9.704989433E0
7.817801615E0,-2.073679924E0,-5.647061467E-1,-9.733703613E0
7.827514531E0,-2.080858469E0,-5.718846321E-1,-9.743274689E0
7.837228125E0,-2.073679924E0,-6.053841114E-1,-9.736096382E0
7.846940990E0,-2.076072693E0,-6.317051649E-1,-9.700203896E0
7.856652969E0,-2.068894386E0,-6.463612318E-1,-9.654740334E0
7.866365833E0,-2.076072693E0,-6.487540603E-1,-9.616455078E0
7.876079479E0,-2.066501379E0,-6.583253145E-1,-9.628418922E0
7.885792240E0,-2.071287155E0,-6.487540603E-1,-9.637990952E0
7.895504271E0,-2.059323072E0,-6.269195080E-1,-9.664311409E0
7.905217188E0,-2.071287155E0,-6.221339107E-1,-9.709774971E0
7.914930781E0,-2.073679924E0,-6.197410822E-1,-9.716953278E0
7.924643646E0,-2.066501379E0,-6.077769399E-1,-9.707382202E0
7.934355625E0,-2.044965982E0,-6.029912829E-1,-9.690632820E0
7.944068490E0,-2.049751759E0,-5.862415433E-1,-9.690632820E0
7.953782135E0,-2.028216362E0,-5.862415433E-1,-9.673882484E0
7.963494896E0,-2.025823355E0,-5.934200287E-1,-9.664311409E0
7.973206927E0,-2.030609131E0,-5.910272002E-1,-9.673882484E0
7.982919844E0,-2.033001900E0,-5.838487148E-1,-9.671489716E0
7.992633438E0,-2.056930065E0,-5.934200287E-1,-9.676275253E0
8.002346302E0,-2.076072693E0,-5.982056856E-1,-9.688240051E0
8.012058281E0,-2.071287155E0,-6.029912829E-1,-9.685847282E0
8.021771146E0,-2.083251238E0,-5.958128572E-1,-9.690632820E0
8.031484792E0,-2.078465462E0,-6.029912829E-1,-9.681061745E0
8.041197552E0,-2.068894386E0,-6.077769399E-1,-9.685847282E0
8.050909583E0,-2.047358990E0,-6.053841114E-1,-9.676275253E0
8.060622500E0,-2.064108610E0,-5.982056856E-1,-9.673882484E0
8.070336094E0,-2.064108610E0,-5.958128572E-1,-9.669096947E0
8.080048854E0,-2.080858469E0,-5.982056856E-1,-9.661918640E0
8.089760938E0,-2.080858469E0,-6.029912829E-1,-9.671489716E0
8.099473802E0,-2.080858469E0,-6.101697683E-1,-9.676275253E0
8.109187448E0,-2.085644007E0,-6.101697683E-1,-9.683454514E0
8.118900208E0,-2.071287155E0,-6.149554253E-1,-9.700203896E0
8.128612240E0,-2.068894386E0,-5.982056856E-1,-9.700203896E0
8.138325156E0,-2.061715841E0,-6.005984545E-1,-9.697811127E0
8.148038750E0,-2.056930065E0,-6.197410822E-1,-9.683454514E0
8.157751615E0,-2.059323072E0,-6.221339107E-1,-9.671489716E0
8.167463594E0,-2.068894386E0,-6.340979934E-1,-9.645169258E0
8.177176458E0,-2.066501379E0,-6.293123364E-1,-9.647562027E0
8.186890104E0,-2.092822552E0,-6.149554253E-1,-9.649954796E0
8.196602865E0,-2.092822552E0,-6.125625968E-1,-9.676275253E0
8.206314896E0,-2.102393866E0,-6.029912829E-1,-9.688240051E0
8.216027813E0,-2.090429783E0,-5.934200287E-1,-9.683454514E0
8.225741406E0,-2.090429783E0,-6.005984545E-1,-9.702596664E0
8.235454271E0,-2.088036776E0,-6.077769399E-1,-9.719346046E0
8.245166250E0,-2.071287155E0,-6.245267391E-1,-9.693025589E0
8.254879115E0,-2.071287155E0,-6.293123364E-1,-9.669096947E0
8.264592760E0,-2.064108610E0,-6.317051649E-1,-9.654740334E0
8.274305521E0,-2.044965982E0,-6.439684033E-1,-9.654740334E0
8.284017552E0,-2.040180445E0,-6.221339107E-1,-9.654740334E0
8.293730469E0,-2.037787676E0,-6.125625968E-1,-9.676275253E0
8.303444063E0,-2.054537296E0,-6.005984545E-1,-9.688240051E0
8.313156927E0,-2.080858469E0,-5.982056856E-1,-9.695418358E0
8.322868906E0,-2.109572172E0,-5.958128572E-1,-9.690632820E0
8.332581771E0,-2.104786634E0,-6.197410822E-1,-9.688240051E0
8.342295417E0,-2.076072693E0,-6.463612318E-1,-9.693025589E0
8.352008177E0,-2.088036776E0,-6.487540603E-1,-9.673882484E0
8.361720208E0,-2.054537296E0,-6.340979934E-1,-9.654740334E0
8.371433125E0,-2.056930065E0,-6.077769399E-1,-9.654740334E0
8.381146719E0,-2.068894386E0,-5.862415433E-1,-9.666704178E0
8.390859583E0,-2.049751759E0,-5.790630579E-1,-9.678668022E0
8.400571563E0,-2.059323072E0,-5.862415433E-1,-9.693025589E0
8.410284427E0,-2.073679924E0,-5.934200287E-1,-9.685847282E0
8.419998073E0,-2.073679924E0,-6.149554253E-1,-9.661918640E0
8.429710833E0,-2.083251238E0,-6.388836503E-1,-9.649954796E0
8.439422865E0,-2.078465462E0,-6.511468887E-1,-9.664311409E0
8.449135781E0,-2.080858469E0,-6.511468887E-1,-9.647562027E0
8.458849375E0,-2.078465462E0,-6.439684033E-1,-9.659525871E0
8.468562240E0,-2.090429783E0,-6.415755749E-1,-9.671489716E0
8.478274219E0,-2.078465462E0,-6.340979934E-1,-9.673882484E0
8.487987083E0,-2.080858469E0,-6.245267391E-1,-9.678668022E0
8.497700729E0,-2.080858469E0,-5.982056856E-1,-9.704989433E0
8.507413490E0,-2.083251238E0,-5.958128572E-1,-9.690632820E0
8.517125573E0,-2.088036776E0,-5.982056856E-1,-9.693025589E0
8.526838438E0,-2.085644007E0,-6.101697683E-1,-9.671489716E0
8.536552083E0,-2.090429783E0,-6.053841114E-1,-9.671489716E0
8.546264844E0,-2.078465462E0,-6.005984545E-1,-9.688240051E0
8.555976875E0,-2.073679924E0,-5.910272002E-1,-9.709774971E0
8.565689792E0,-2.078465462E0,-6.005984545E-1,-9.690632820E0
8.575403385E0,-2.059323072E0,-5.790630579E-1,-9.678668022E0
8.585116146E0,-2.016252279E0,-5.814558864E-1,-9.664311409E0
8.594828229E0,-2.006680965E0,-5.790630579E-1,-9.683454514E0
8.604541094E0,-2.028216362E0,-5.886343718E-1,-9.707382202E0
8.614254740E0,-2.023430586E0,-6.101697683E-1,-9.714560509E0
8.623967500E0,-2.035394669E0,-6.269195080E-1,-9.685847282E0
8.633679531E0,-2.083251238E0,-6.340979934E-1,-9.637990952E0
8.643392448E0,-2.109572172E0,-6.415755749E-1,-9.606884003E0
8.653106042E0,-2.133500576E0,-6.415755749E-1,-9.614062309E0
8.662818906E0,-2.128714800E0,-6.317051649E-1,-9.669096947E0
8.672530885E0,-2.107179403E0,-6.221339107E-1,-9.712167740E0
8.682243750E0,-2.095215321E0,-6.197410822E-1,-9.719346046E0
8.691957396E0,-2.083251238E0,-6.293123364E-1,-9.716953278E0
8.701670156E0,-2.076072693E0,-6.269195080E-1,-9.702596664E0
8.711382188E0,-2.073679924E0,-6.269195080E-1,-9.683454514E0
8.721095104E0,-2.061715841E0,-6.293123364E-1,-9.673882484E0
8.730808698E0,-2.059323072E0,-6.221339107E-1,-9.673882484E0
8.740521563E0,-2.059323072E0,-6.197410822E-1,-9.666704178E0
8.750233542E0,-2.047358990E0,-6.029912829E-1,-9.673882484E0
8.759946406E0,-2.035394669E0,-5.958128572E-1,-9.673882484E0
8.769660052E0,-2.047358990E0,-5.838487148E-1,-9.688240051E0
8.779372813E0,-2.047358990E0,-5.742774606E-1,-9.688240051E0
8.789084896E0,-2.054537296E0,-5.694918036E-1,-9.697811127E0
8.798797760E0,-2.066501379E0,-5.742774606E-1,-9.690632820E0
8.808511406E0,-2.073679924E0,-5.886343718E-1,-9.685847282E0
8.818224167E0,-2.064108610E0,-6.125625968E-1,-9.685847282E0
8.827936198E0,-2.061715841E0,-6.317051649E-1,-9.678668022E0
8.837649115E0,-2.059323072E0,-6.511468887E-1,-9.678668022E0
8.847362708E0,-2.059323072E0,-6.511468887E-1,-9.683454514E0
8.857075573E0,-2.068894386E0,-6.388836503E-1,-9.681061745E0
8.866787552E0,-2.076072693E0,-6.415755749E-1,-9.673882484E0
8.876500417E0,-2.088036776E0,-6.340979934E-1,-9.678668022E0
8.886214063E0,-2.092822552E0,-6.221339107E-1,-9.678668022E0
8.895926823E0,-2.080858469E0,-6.245267391E-1,-9.661918640E0
8.905638906E0,-2.056930065E0,-6.269195080E-1,-9.688240051E0
8.915351771E0,-2.049751759E0,-6.173482537E-1,-9.683454514E0
8.925065417E0,-2.042573214E0,-6.029912829E-1,-9.678668022E0
8.934778177E0,-2.035394669E0,-5.958128572E-1,-9.685847282E0
8.944490208E0,-2.059323072E0,-5.886343718E-1,-9.685847282E0
8.954203125E0,-2.064108610E0,-5.886343718E-1,-9.700203896E0
8.963916719E0,-2.042573214E0,-6.125625968E-1,-9.707382202E0
8.973629583E0,-2.037787676E0,-6.173482537E-1,-9.704989433E0
8.983341563E0,-2.037787676E0,-6.029912829E-1,-9.688240051E0
8.993054427E0,-2.037787676E0,-6.053841114E-1,-9.659525871E0
9.002768073E0,-2.042573214E0,-6.245267391E-1,-9.671489716E0
9.012480833E0,-2.042573214E0,-6.245267391E-1,-9.690632820E0
9.022192917E0,-2.042573214E0,-6.415755749E-1,-9.683454514E0
9.031905781E0,-2.044965982E0,-6.487540603E-1,-9.681061745E0
9.041619427E0,-2.054537296E0,-6.388836503E-1,-9.683454514E0
9.051332188E0,-2.056930065E0,-6.463612318E-1,-9.666704178E0
9.061044219E0,-2.061715841E0,-6.535396576E-1,-9.685847282E0
9.070757135E0,-2.066501379E0,-6.463612318E-1,-9.688240051E0
9.080470729E0,-2.064108610E0,-6.463612318E-1,-9.690632820E0
9.090183594E0,-2.078465462E0,-6.439684033E-1,-9.681061745E0
9.099895573E0,-2.083251238E0,-6.269195080E-1,-9.669096947E0
9.109608438E0,-2.090429783E0,-6.197410822E-1,-9.661918640E0
9.119322083E0,-2.085644007E0,-6.317051649E-1,-9.659525871E0
9.129034844E0,-2.080858469E0,-6.005984545E-1,-9.678668022E0
9.138746927E0,-2.056930065E0,-5.862415433E-1,-9.683454514E0
9.148459792E0,-2.054537296E0,-5.838487148E-1,-9.669096947E0
9.158173438E0,-2.047358990E0,-5.886343718E-1,-9.669096947E0
9.167886198E0,-2.035394669E0,-5.910272002E-1,-9.683454514E0
9.177598229E0,-2.035394669E0,-6.029912829E-1,-9.712167740E0
9.187311146E0,-2.037787676E0,-6.053841114E-1,-9.697811127E0
9.197024740E0,-2.040180445E0,-6.077769399E-1,-9.693025589E0
9.206737604E0,-2.042573214E0,-6.125625968E-1,-9.664311409E0
9.216449583E0,-2.025823355E0,-6.173482537E-1,-9.669096947E0
9.226162448E0,-2.035394669E0,-6.269195080E-1,-9.681061745E0
9.235876094E0,-2.033001900E0,-6.293123364E-1,-9.690632820E0
9.245588854E0,-2.028216362E0,-6.149554253E-1,-9.693025589E0
9.255300938E0,-2.040180445E0,-6.005984545E-1,-9.673882484E0
9.265013802E0,-2.047358990E0,-6.173482537E-1,-9.673882484E0
9.274727448E0,-2.052144527E0,-6.245267391E-1,-9.685847282E0
9.284440208E0,-2.059323072E0,-6.173482537E-1,-9.681061745E0
9.294152240E0,-2.056930065E0,-6.101697683E-1,-9.688240051E0
9.303865156E0,-2.061715841E0,-6.077769399E-1,-9.690632820E0
9.313578750E0,-2.059323072E0,-6.053841114E-1,-9.693025589E0
9.323291615E0,-2.066501379E0,-5.958128572E-1,-9.693025589E0
9.333003594E0,-2.064108610E0,-6.005984545E-1,-9.697811127E0
9.342716510E0,-2.071287155E0,-6.053841114E-1,-9.678668022E0
9.352430104E0,-2.068894386E0,-6.221339107E-1,-9.676275253E0
9.362142969E0,-2.052144527E0,-6.029912829E-1,-9.671489716E0
9.371854948E0,-2.047358990E0,-6.125625968E-1,-9.678668022E0
9.381567813E0,-2.047358990E0,-6.077769399E-1,-9.666704178E0
9.391281458E0,-2.042573214E0,-6.149554253E-1,-9.676275253E0
9.400994219E0,-2.047358990E0,-6.197410822E-1,-9.683454514E0
9.410706302E0,-2.042573214E0,-6.245267391E-1,-9.690632820E0
9.420419167E0,-2.042573214E0,-6.101697683E-1,-9.688240051E0
9.430132813E0,-2.061715841E0,-6.221339107E-1,-9.688240051E0
9.439845573E0,-2.042573214E0,-6.173482537E-1,-9.697811127E0
9.449557604E0,-2.049751759E0,-6.197410822E-1,-9.714560509E0
9.459270521E0,-2.068894386E0,-6.439684033E-1,-9.707382202E0
9.468984115E0,-2.054537296E0,-6.340979934E-1,-9.683454514E0
9.478696979E0,-2.049751759E0,-6.317051649E-1,-9.673882484E0
9.488408958E0,-2.025823355E0,-6.029912829E-1,-9.657133102E0
9.498121875E0,-2.033001900E0,-5.934200287E-1,-9.659525871E0
9.507835469E0,-2.047358990E0,-6.029912829E-1,-9.657133102E0
9.517548333E0,-2.064108610E0,-5.958128572E-1,-9.678668022E0
9.527260313E0,-2.064108610E0,-5.886343718E-1,-9.683454514E0
9.536973177E0,-2.071287155E0,-5.862415433E-1,-9.693025589E0
9.546686823E0,-2.061715841E0,-6.005984545E-1,-9.690632820E0
9.556399583E0,-2.052144527E0,-6.317051649E-1,-9.685847282E0
9.566111667E0,-2.044965982E0,-6.415755749E-1,-9.695418358E0
9.575824531E0,-2.033001900E0,-6.439684033E-1,-9.654740334E0
9.585538177E0,-2.035394669E0,-6.173482537E-1,-9.664311409E0
9.595250938E0,-2.040180445E0,-6.005984545E-1,-9.661918640E0
9.604962969E0,-2.073679924E0,-5.838487148E-1,-9.681061745E0
9.614675885E0,-2.068894386E0,-5.790630579E-1,-9.695418358E0
9.624389479E0,-2.056930065E0,-5.862415433E-1,-9.695418358E0
9.634102344E0,-2.073679924E0,-5.982056856E-1,-9.693025589E0
9.643814323E0,-2.059323072E0,-6.101697683E-1,-9.693025589E0
9.653527240E0,-2.073679924E0,-6.269195080E-1,-9.681061745E0
9.663240833E0,-2.061715841E0,-6.269195080E-1,-9.671489716E0
9.672953698E0,-2.056930065E0,-6.269195080E-1,-9.657133102E0
9.682665677E0,-2.061715841E0,-6.149554253E-1,-9.649954796E0
9.692378542E0,-2.073679924E0,-5.982056856E-1,-9.661918640E0
9.702092188E0,-2.068894386E0,-5.958128572E-1,-9.652347565E0
9.711804948E0,-2.080858469E0,-5.838487148E-1,-9.664311409E0
9.721517031E0,-2.090429783E0,-5.766702294E-1,-9.666704178E0
9.731229896E0,-2.092822552E0,-5.718846321E-1,-9.681061745E0
9.740943542E0,-2.109572172E0,-5.934200287E-1,-9.681061745E0
9.750656302E0,-2.107179403E0,-6.125625968E-1,-9.664311409E0
9.760368333E0,-2.102393866E0,-6.245267391E-1,-9.671489716E0
9.770081250E0,-2.092822552E0,-6.221339107E-1,-9.664311409E0
9.779794896E0,-2.059323072E0,-6.221339107E-1,-9.693025589E0
9.789507656E0,-2.037787676E0,-6.245267391E-1,-9.707382202E0
9.799219688E0,-2.013859272E0,-6.149554253E-1,-9.702596664E0
9.808932604E0,-2.011466503E0,-6.317051649E-1,-9.697811127E0
9.818646198E0,-1.994716763E0,-6.197410822E-1,-9.704989433E0
9.828359063E0,-1.999502420E0,-6.173482537E-1,-9.690632820E0
9.838071042E0,-2.009073734E0,-6.173482537E-1,-9.693025589E0
9.847783958E0,-2.013859272E0,-6.293123364E-1,-9.685847282E0
9.857497552E0,-2.021037817E0,-6.149554253E-1,-9.685847282E0
9.867210417E0,-2.009073734E0,-6.221339107E-1,-9.683454514E0
9.876922396E0,-2.001895189E0,-6.125625968E-1,-9.676275253E0
9.886635260E0,-2.011466503E0,-5.982056856E-1,-9.697811127E0
9.896348906E0,-2.006680965E0,-6.029912829E-1,-9.688240051E0
9.906061667E0,-2.013859272E0,-5.934200287E-1,-9.681061745E0
9.915773750E0,-2.040180445E0,-5.958128572E-1,-9.676275253E0
9.925486615E0,-2.033001900E0,-6.029912829E-1,-9.683454514E0
9.935200260E0,-2.037787676E0,-6.125625968E-1,-9.690632820E0
9.944913021E0,-2.052144527E0,-6.029912829E-1,-9.688240051E0
9.954625052E0,-2.044965982E0,-6.101697683E-1,-9.683454514E0
9.964337969E0,-2.064108610E0,-6.101697683E-1,-9.683454514E0
9.974051615E0,-2.085644007E0,-6.149554253E-1,-9.702596664E0
9.983764375E0,-2.090429783E0,-6.005984545E-1,-9.678668022E0
9.993476406E0,-2.090429783E0,-6.077769399E-1,-9.681061745E0
1.000318932E1,-2.085644007E0,-6.053841114E-1,-9.664311409E0
1.001290292E1,-2.088036776E0,-6.101697683E-1,-9.669096947E0
1.002261578E1,-2.071287155E0,-6.125625968E-1,-9.671489716E0
1.003232776E1,-2.071287155E0,-6.221339107E-1,-9.671489716E0
1.004204068E1,-2.056930065E0,-6.173482537E-1,-9.671489716E0
1.005175427E1,-2.054537296E0,-6.221339107E-1,-9.685847282E0
1.006146714E1,-2.049751759E0,-6.293123364E-1,-9.685847282E0
1.007117912E1,-2.049751759E0,-6.364908218E-1,-9.678668022E0
1.008089198E1,-2.030609131E0,-6.245267391E-1,-9.673882484E0
1.009060562E1,-2.035394669E0,-6.317051649E-1,-9.685847282E0
1.010031839E1,-2.037787676E0,-6.125625968E-1,-9.693025589E0
1.011003047E1,-2.042573214E0,-6.149554253E-1,-9.685847282E0
1.011974333E1,-2.037787676E0,-6.173482537E-1,-9.678668022E0
1.012945698E1,-2.037787676E0,-6.029912829E-1,-9.676275253E0
1.013916974E1,-2.040180445E0,-5.958128572E-1,-9.681061745E0
1.014888177E1,-2.042573214E0,-6.173482537E-1,-9.693025589E0
1.015859469E1,-2.044965982E0,-6.463612318E-1,-9.709774971E0
1.016830833E1,-2.040180445E0,-6.726822853E-1,-9.709774971E0
1.017802109E1,-2.028216362E0,-6.535396576E-1,-9.676275253E0
1.018773313E1,-2.037787676E0,-6.221339107E-1,-9.649954796E0
1.019744604E1,-2.040180445E0,-5.958128572E-1,-9.659525871E0
1.020715964E1,-2.033001900E0,-5.814558864E-1,-9.688240051E0
1.021687250E1,-2.037787676E0,-5.814558864E-1,-9.700203896E0
1.022658448E1,-2.035394669E0,-5.862415433E-1,-9.700203896E0
1.023629734E1,-2.033001900E0,-6.101697683E-1,-9.688240051E0
1.024601099E1,-2.035394669E0,-6.149554253E-1,-9.681061745E0
1.025572385E1,-2.035394669E0,-6.197410822E-1,-9.671489716E0
1.026543583E1,-2.035394669E0,-6.293123364E-1,-9.683454514E0
1.027514870E1,-2.044965982E0,-6.245267391E-1,-9.673882484E0
1.028486234E1,-2.042573214E0,-6.197410822E-1,-9.661918640E0
1.029457510E1,-2.047358990E0,-6.245267391E-1,-9.647562027E0
1.030428719E1,-2.047358990E0,-6.149554253E-1,-9.676275253E0
1.031400005E1,-2.037787676E0,-6.293123364E-1,-9.690632820E0
1.032371370E1,-2.040180445E0,-6.221339107E-1,-9.693025589E0
1.033342646E1,-2.040180445E0,-6.173482537E-1,-9.685847282E0
1.034313849E1,-2.054537296E0,-6.101697683E-1,-9.676275253E0
1.035285141E1,-2.054537296E0,-6.053841114E-1,-9.666704178E0
1.036256500E1,-2.052144527E0,-5.958128572E-1,-9.673882484E0
1.037227787E1,-2.052144527E0,-6.077769399E-1,-9.669096947E0
1.038198984E1,-2.064108610E0,-5.862415433E-1,-9.697811127E0
1.039170276E1,-2.054537296E0,-5.766702294E-1,-9.690632820E0
1.040141635E1,-2.049751759E0,-5.886343718E-1,-9.702596664E0
1.041112922E1,-2.044965982E0,-5.862415433E-1,-9.700203896E0
1.042084120E1,-2.037787676E0,-6.077769399E-1,-9.685847282E0
1.043055406E1,-2.021037817E0,-6.101697683E-1,-9.688240051E0
1.044026771E1,-2.013859272E0,-6.317051649E-1,-9.683454514E0
1.044998057E1,-2.004287958E0,-6.487540603E-1,-9.666704178E0
1.045969255E1,-2.009073734E0,-6.511468887E-1,-9.671489716E0
1.046940542E1,-2.028216362E0,-6.463612318E-1,-9.659525871E0
1.047911906E1,-2.018645048E0,-6.511468887E-1,-9.664311409E0
1.048883182E1,-2.044965982E0,-6.415755749E-1,-9.678668022E0
1.049854391E1,-2.054537296E0,-6.415755749E-1,-9.681061745E0
1.050825677E1,-2.073679924E0,-6.245267391E-1,-9.693025589E0
1.051797042E1,-2.095215321E0,-6.149554253E-1,-9.690632820E0
1.052768318E1,-2.104786634E0,-5.958128572E-1,-9.685847282E0
1.053739521E1,-2.097608089E0,-5.982056856E-1,-9.683454514E0
1.054710813E1,-2.090429783E0,-5.982056856E-1,-9.681061745E0
1.055682172E1,-2.076072693E0,-5.814558864E-1,-9.678668022E0
1.056653458E1,-2.068894386E0,-5.766702294E-1,-9.676275253E0
1.057624656E1,-2.042573214E0,-5.814558864E-1,-9.673882484E0
1.058595948E1,-2.033001900E0,-5.910272002E-1,-9.690632820E0
1.059567307E1,-2.033001900E0,-6.029912829E-1,-9.690632820E0
1.060538594E1,-2.018645048E0,-6.077769399E-1,-9.697811127E0
1.061509792E1,-2.025823355E0,-6.125625968E-1,-9.695418358E0
1.062481078E1,-2.023430586E0,-6.221339107E-1,-9.697811127E0
1.063452443E1,-2.025823355E0,-6.293123364E-1,-9.697811127E0
1.064423719E1,-2.023430586E0,-6.463612318E-1,-9.685847282E0
1.065394927E1,-2.030609131E0,-6.364908218E-1,-9.685847282E0
1.066366214E1,-2.035394669E0,-6.245267391E-1,-9.676275253E0
1.067337578E1,-2.044965982E0,-6.269195080E-1,-9.673882484E0
1.068308854E1,-2.052144527E0,-6.245267391E-1,-9.664311409E0
1.069280062E1,-2.030609131E0,-6.317051649E-1,-9.669096947E0
1.070251349E1,-2.035394669E0,-6.245267391E-1,-9.664311409E0
1.071222714E1,-2.023430586E0,-6.173482537E-1,-9.673882484E0
1.072193990E1,-2.025823355E0,-6.101697683E-1,-9.678668022E0
1.073165193E1,-2.030609131E0,-5.910272002E-1,-9.659525871E0
1.074136484E1,-2.042573214E0,-5.790630579E-1,-9.666704178E0
1.075107844E1,-2.071287155E0,-5.718846321E-1,-9.681061745E0
1.076079130E1,-2.080858469E0,-5.790630579E-1,-9.695418358E0
1.077050328E1,-2.092822552E0,-6.101697683E-1,-9.712167740E0
1.078021620E1,-2.095215321E0,-6.269195080E-1,-9.719346046E0
1.078992979E1,-2.080858469E0,-6.388836503E-1,-9.707382202E0
1.079964266E1,-2.078465462E0,-6.293123364E-1,-9.688240051E0
1.080935464E1,-2.061715841E0,-6.125625968E-1,-9.666704178E0
1.081906750E1,-2.068894386E0,-6.005984545E-1,-9.657133102E0
1.082878115E1,-2.030609131E0,-6.053841114E-1,-9.666704178E0
1.083849401E1,-2.037787676E0,-6.029912829E-1,-9.659525871E0
1.084820599E1,-2.033001900E0,-6.005984545E-1,-9.666704178E0
1.085791885E1,-2.030609131E0,-6.077769399E-1,-9.683454514E0
1.086763250E1,-2.047358990E0,-6.173482537E-1,-9.693025589E0
1.087734526E1,-2.044965982E0,-6.293123364E-1,-9.697811127E0
1.088705734E1,-2.049751759E0,-6.340979934E-1,-9.695418358E0
1.089677021E1,-2.056930065E0,-6.197410822E-1,-9.683454514E0
1.090648385E1,-2.054537296E0,-6.293123364E-1,-9.683454514E0
1.091619662E1,-2.047358990E0,-6.317051649E-1,-9.681061745E0
1.092590865E1,-2.037787676E0,-6.197410822E-1,-9.671489716E0
1.093562156E1,-2.030609131E0,-6.125625968E-1,-9.683454514E0
1.094533516E1,-2.054537296E0,-5.790630579E-1,-9.693025589E0
1.095504802E1,-2.044965982E0,-5.599204898E-1,-9.690632820E0
1.096476000E1,-2.052144527E0,-5.694918036E-1,-9.681061745E0
1.097447292E1,-2.059323072E0,-5.814558864E-1,-9.678668022E0
1.098418651E1,-2.061715841E0,-6.005984545E-1,-9.671489716E0
1.099389938E1,-2.059323072E0,-6.053841114E-1,-9.678668022E0
1.100361135E1,-2.064108610E0,-5.934200287E-1,-9.681061745E0
1.101332422E1,-2.054537296E0,-6.029912829E-1,-9.669096947E0
1.102303787E1,-2.042573214E0,-6.173482537E-1,-9.661918640E0
1.103275073E1,-2.054537296E0,-6.005984545E-1,-9.673882484E0
1.104246271E1,-2.064108610E0,-6.077769399E-1,-9.695418358E0
1.105217557E1,-2.061715841E0,-6.077769399E-1,-9.707382202E0
1.106188922E1,-2.047358990E0,-6.077769399E-1,-9.716953278E0
1.107160198E1,-2.042573214E0,-6.245267391E-1,-9.716953278E0
1.108131406E1,-2.037787676E0,-6.439684033E-1,-9.693025589E0
1.109102693E1,-2.030609131E0,-6.463612318E-1,-9.676275253E0
1.110074057E1,-2.016252279E0,-6.340979934E-1,-9.673882484E0
1.111045333E1,-2.001895189E0,-6.245267391E-1,-9.671489716E0
1.112016536E1,-2.001895189E0,-6.221339107E-1,-9.669096947E0
1.112987828E1,-2.011466503E0,-6.101697683E-1,-9.685847282E0
1.113959188E1,-2.001895189E0,-6.077769399E-1,-9.678668022E0
1.114930474E1,-2.021037817E0,-5.934200287E-1,-9.697811127E0
1.115901672E1,-2.035394669E0,-5.886343718E-1,-9.695418358E0
1.116872964E1,-2.042573214E0,-5.886343718E-1,-9.688240051E0
1.117844323E1,-2.056930065E0,-5.934200287E-1,-9.690632820E0
1.118815609E1,-2.056930065E0,-6.101697683E-1,-9.683454514E0
1.119786807E1,-2.076072693E0,-6.101697683E-1,-9.678668022E0
1.120758094E1,-2.071287155E0,-5.958128572E-1,-9.678668022E0
1.121729458E1,-2.080858469E0,-5.982056856E-1,-9.676275253E0
1.122700745E1,-2.076072693E0,-5.958128572E-1,-9.669096947E0
1.123671943E1,-2.064108610E0,-5.910272002E-1,-9.685847282E0
1.124643229E1,-2.059323072E0,-6.005984545E-1,-9.671489716E0
1.125614594E1,-2.061715841E0,-6.173482537E-1,-9.676275253E0
1.126585870E1,-2.056930065E0,-6.245267391E-1,-9.685847282E0
1.127557078E1,-2.042573214E0,-6.388836503E-1,-9.676275253E0
1.128528365E1,-2.044965982E0,-6.439684033E-1,-9.666704178E0
1.129499729E1,-2.049751759E0,-6.388836503E-1,-9.671489716E0
1.130471005E1,-2.061715841E0,-6.487540603E-1,-9.693025589E0
1.131442208E1,-2.059323072E0,-6.415755749E-1,-9.690632820E0
1.132413500E1,-2.052144527E0,-6.317051649E-1,-9.690632820E0
1.133384865E1,-2.047358990E0,-6.317051649E-1,-9.688240051E0
1.134356141E1,-2.040180445E0,-6.269195080E-1,-9.688240051E0
1.135327344E1,-2.028216362E0,-6.245267391E-1,-9.683454514E0
1.136298635E1,-2.033001900E0,-6.101697683E-1,-9.681061745E0
1.137269995E1,-2.023430586E0,-5.934200287E-1,-9.690632820E0
1.138241281E1,-2.044965982E0,-5.934200287E-1,-9.695418358E0
1.139212479E1,-2.042573214E0,-5.910272002E-1,-9.685847282E0
1.140183771E1,-2.064108610E0,-5.982056856E-1,-9.678668022E0
1.141155130E1,-2.061715841E0,-6.173482537E-1,-9.683454514E0
1.142126417E1,-2.054537296E0,-6.293123364E-1,-9.681061745E0
1.143097615E1,-2.040180445E0,-6.317051649E-1,-9.664311409E0
1.144068901E1,-2.047358990E0,-6.101697683E-1,-9.664311409E0
1.145040266E1,-2.049751759E0,-5.982056856E-1,-9.664311409E0
1.146011552E1,-2.066501379E0,-5.838487148E-1,-9.700203896E0
1.146982750E1,-2.049751759E0,-5.790630579E-1,-9.716953278E0
1.147954036E1,-2.061715841E0,-6.077769399E-1,-9.707382202E0
1.148925401E1,-2.042573214E0,-6.125625968E-1,-9.697811127E0
1.149896677E1,-2.028216362E0,-6.245267391E-1,-9.683454514E0
1.150867885E1,-2.011466503E0,-6.511468887E-1,-9.673882484E0
1.151839172E1,-1.999502420E0,-6.511468887E-1,-9.664311409E0
1.152810536E1,-2.001895189E0,-6.535396576E-1,-9.654740334E0
1.153781813E1,-2.009073734E0,-6.415755749E-1,-9.657133102E0
1.154753016E1,-2.016252279E0,-6.293123364E-1,-9.676275253E0
1.155724307E1,-2.042573214E0,-6.221339107E-1,-9.678668022E0
1.156695667E1,-2.054537296E0,-6.053841114E-1,-9.704989433E0
1.157666953E1,-2.064108610E0,-5.814558864E-1,-9.716953278E0
1.158638151E1,-2.064108610E0,-5.718846321E-1,-9.712167740E0
1.159609443E1,-2.054537296E0,-5.694918036E-1,-9.704989433E0
1.160580802E1,-2.040180445E0,-5.862415433E-1,-9.685847282E0
1.161552088E1,-2.033001900E0,-5.910272002E-1,-9.671489716E0
1.162523287E1,-2.023430586E0,-5.982056856E-1,-9.683454514E0
1.163494578E1,-2.030609131E0,-6.077769399E-1,-9.683454514E0
1.164465938E1,-2.023430586E0,-6.101697683E-1,-9.664311409E0
1.165437224E1,-2.035394669E0,-6.029912829E-1,-9.649954796E0
1.166408422E1,-2.044965982E0,-6.125625968E-1,-9.657133102E0
1.167379708E1,-2.061715841E0,-6.077769399E-1,-9.678668022E0
1.168351073E1,-2.056930065E0,-6.125625968E-1,-9.685847282E0
1.169322349E1,-2.068894386E0,-6.125625968E-1,-9.688240051E0
1.170293557E1,-2.071287155E0,-6.149554253E-1,-9.704989433E0
1.171264844E1,-2.066501379E0,-6.101697683E-1,-9.695418358E0
1.172236208E1,-2.056930065E0,-6.221339107E-1,-9.688240051E0
1.173207484E1,-2.042573214E0,-6.221339107E-1,-9.661918640E0
1.174178693E1,-2.021037817E0,-6.077769399E-1,-9.676275253E0
1.175149979E1,-2.021037817E0,-6.101697683E-1,-9.669096947E0
1.176121344E1,-2.011466503E0,-6.173482537E-1,-9.683454514E0
1.177092620E1,-2.023430586E0,-6.317051649E-1,-9.704989433E0
1.178063823E1,-2.030609131E0,-6.388836503E-1,-9.716953278E0
1.179035115E1,-2.044965982E0,-6.415755749E-1,-9.709774971E0
1.180006474E1,-2.042573214E0,-6.340979934E-1,-9.700203896E0
1.180977760E1,-2.033001900E0,-6.245267391E-1,-9.690632820E0
1.181948958E1,-2.025823355E0,-6.245267391E-1,-9.683454514E0
1.182920250E1,-2.033001900E0,-6.197410822E-1,-9.678668022E0
1.183891609E1,-2.028216362E0,-6.221339107E-1,-9.681061745E0
1.184862896E1,-2.025823355E0,-6.053841114E-1,-9.678668022E0
1.185834094E1,-2.037787676E0,-6.101697683E-1,-9.678668022E0
1.186805385E1,-2.049751759E0,-6.125625968E-1,-9.693025589E0
1.187776745E1,-2.052144527E0,-6.053841114E-1,-9.685847282E0
1.188748031E1,-2.054537296E0,-6.125625968E-1,-9.681061745E0
1.189719229E1,-2.071287155E0,-6.317051649E-1,-9.673882484E0
1.190690516E1,-2.061715841E0,-6.340979934E-1,-9.678668022E0
1.191661880E1,-2.076072693E0,-6.245267391E-1,-9.678668022E0
1.192633156E1,-2.061715841E0,-6.149554253E-1,-9.676275253E0
1.193604365E1,-2.061715841E0,-6.029912829E-1,-9.681061745E0
1.194575651E1,-2.068894386E0,-6.053841114E-1,-9.676275253E0
1.195547016E1,-2.076072693E0,-6.101697683E-1,-9.683454514E0
1.196518292E1,-2.066501379E0,-5.982056856E-1,-9.671489716E0
1.197489500E1,-2.054537296E0,-6.053841114E-1,-9.664311409E0
1.198460787E1,-2.044965982E0,-6.077769399E-1,-9.666704178E0
1.199432151E1,-2.042573214E0,-6.077769399E-1,-9.666704178E0
1.200403427E1,-2.035394669E0,-6.101697683E-1,-9.678668022E0
1.201374630E1,-2.044965982E0,-5.958128572E-1,-9.683454514E0
1.202345922E1,-2.054537296E0,-5.910272002E-1,-9.688240051E0
1.203317287E1,-2.064108610E0,-5.886343718E-1,-9.690632820E0
1.204288562E1,-2.056930065E0,-6.125625968E-1,-9.721739769E0
1.205259766E1,-2.052144527E0,-6.317051649E-1,-9.719346046E0
1.206231057E1,-2.030609131E0,-6.463612318E-1,-9.721739769E0
1.207202417E1,-2.028216362E0,-6.388836503E-1,-9.685847282E0
1.208173703E1,-2.013859272E0,-6.197410822E-1,-9.645169258E0
1.209144901E1,-2.009073734E0,-6.005984545E-1,-9.657133102E0
1.210116193E1,-2.021037817E0,-5.934200287E-1,-9.673882484E0
1.211087552E1,-2.004287958E0,-5.982056856E-1,-9.673882484E0
1.212058839E1,-2.004287958E0,-5.910272002E-1,-9.676275253E0
1.213030036E1,-2.025823355E0,-6.125625968E-1,-9.702596664E0
1.214001323E1,-2.028216362E0,-6.293123364E-1,-9.702596664E0
1.214972688E1,-2.033001900E0,-6.439684033E-1,-9.693025589E0
1.215943974E1,-2.035394669E0,-6.535396576E-1,-9.700203896E0
1.216915172E1,-2.025823355E0,-6.487540603E-1,-9.695418358E0
1.217886458E1,-2.037787676E0,-6.487540603E-1,-9.683454514E0
1.218857823E1,-2.040180445E0,-6.415755749E-1,-9.666704178E0
1.219829099E1,-2.033001900E0,-6.293123364E-1,-9.664311409E0
1.220800307E1,-2.033001900E0,-6.077769399E-1,-9.669096947E0
1.221771594E1,-2.061715841E0,-5.886343718E-1,-9.681061745E0
1.222742958E1,-2.066501379E0,-5.814558864E-1,-9.688240051E0
1.223714234E1,-2.061715841E0,-5.910272002E-1,-9.693025589E0
1.224685443E1,-2.061715841E0,-5.934200287E-1,-9.688240051E0
1.225656729E1,-2.066501379E0,-6.101697683E-1,-9.695418358E0
1.226628094E1,-2.049751759E0,-6.221339107E-1,-9.714560509E0
1.227599370E1,-2.049751759E0,-6.269195080E-1,-9.704989433E0
1.228570573E1,-2.049751759E0,-6.245267391E-1,-9.678668022E0
1.229541865E1,-2.052144527E0,-6.173482537E-1,-9.666704178E0
1.230513229E1,-2.054537296E0,-6.149554253E-1,-9.652347565E0
1.231484505E1,-2.066501379E0,-6.125625968E-1,-9.664311409E0
1.232455708E1,-2.056930065E0,-5.982056856E-1,-9.678668022E0
1.233427000E1,-2.059323072E0,-6.053841114E-1,-9.685847282E0
1.234398359E1,-2.054537296E0,-6.029912829E-1,-9.676275253E0
1.235369646E1,-2.071287155E0,-6.149554253E-1,-9.712167740E0
1.236340844E1,-2.066501379E0,-6.173482537E-1,-9.697811127E0
1.237312135E1,-2.064108610E0,-6.197410822E-1,-9.700203896E0
1.238283495E1,-2.047358990E0,-6.197410822E-1,-9.695418358E0
1.239254781E1,-2.037787676E0,-6.221339107E-1,-9.681061745E0
1.240225979E1,-2.023430586E0,-6.173482537E-1,-9.671489716E0
1.241197271E1,-2.016252279E0,-6.077769399E-1,-9.671489716E0
1.242168630E1,-2.013859272E0,-6.053841114E-1,-9.681061745E0
1.243139917E1,-2.016252279E0,-6.053841114E-1,-9.690632820E0
1.244111115E1,-2.016252279E0,-5.958128572E-1,-9.693025589E0
1.245082401E1,-2.028216362E0,-5.982056856E-1,-9.697811127E0
1.246053766E1,-2.021037817E0,-6.029912829E-1,-9.704989433E0
1.247025052E1,-2.028216362E0,-5.982056856E-1,-9.704989433E0
1.247996250E1,-2.028216362E0,-6.125625968E-1,-9.702596664E0
1.248967536E1,-2.025823355E0,-6.125625968E-1,-9.700203896E0
1.249938901E1,-2.025823355E0,-6.173482537E-1,-9.695418358E0
1.250910188E1,-2.021037817E0,-6.197410822E-1,-9.678668022E0
1.251881385E1,-2.013859272E0,-6.245267391E-1,-9.666704178E0
1.252852677E1,-2.033001900E0,-6.245267391E-1,-9.669096947E0
1.253824036E1,-2.040180445E0,-6.221339107E-1,-9.669096947E0
1.254795323E1,-2.040180445E0,-6.317051649E-1,-9.676275253E0
1.255766521E1,-2.064108610E0,-6.149554253E-1,-9.676275253E0
1.256737807E1,-2.073679924E0,-6.101697683E-1,-9.697811127E0
1.257709172E1,-2.080858469E0,-5.958128572E-1,-9.714560509E0
1.258680458E1,-2.073679924E0,-6.053841114E-1,-9.716953278E0
1.259651656E1,-2.064108610E0,-6.125625968E-1,-9.712167740E0
1.260622948E1,-2.064108610E0,-6.269195080E-1,-9.719346046E0
1.261594307E1,-2.042573214E0,-6.388836503E-1,-9.712167740E0
1.262565594E1,-2.016252279E0,-6.415755749E-1,-9.683454514E0
1.263536792E1,-2.025823355E0,-6.340979934E-1,-9.673882484E0
1.264508083E1,-2.009073734E0,-6.340979934E-1,-9.657133102E0
1.265479443E1,-2.013859272E0,-6.221339107E-1,-9.654740334E0
1.266450729E1,-2.035394669E0,-6.005984545E-1,-9.640383720E0
1.267421927E1,-2.035394669E0,-5.862415433E-1,-9.661918640E0
1.268393219E1,-2.047358990E0,-6.029912829E-1,-9.695418358E0
1.269364578E1,-2.059323072E0,-6.125625968E-1,-9.726525307E0
1.270335865E1,-2.064108610E0,-6.340979934E-1,-9.736096382E0
1.271307062E1,-2.052144527E0,-6.197410822E-1,-9.721739769E0
1.272278354E1,-2.052144527E0,-6.053841114E-1,-9.688240051E0
1.273249714E1,-2.037787676E0,-5.910272002E-1,-9.685847282E0
1.274221000E1,-2.006680965E0,-5.958128572E-1,-9.683454514E0
1.275192198E1,-2.013859272E0,-5.958128572E-1,-9.695418358E0
1.276163490E1,-2.001895189E0,-6.173482537E-1,-9.685847282E0
1.277134849E1,-2.013859272E0,-6.149554253E-1,-9.678668022E0
1.278106135E1,-2.016252279E0,-6.317051649E-1,-9.676275253E0
1.279077333E1,-2.035394669E0,-6.463612318E-1,-9.695418358E0
1.280048625E1,-2.049751759E0,-6.487540603E-1,-9.690632820E0
1.281019984E1,-2.042573214E0,-6.439684033E-1,-9.693025589E0
1.281991271E1,-2.047358990E0,-6.364908218E-1,-9.704989433E0
1.282962469E1,-2.044965982E0,-6.245267391E-1,-9.693025589E0
1.283933760E1,-2.049751759E0,-6.101697683E-1,-9.690632820E0
1.284905120E1,-2.040180445E0,-6.173482537E-1,-9.683454514E0
1.285876406E1,-2.052144527E0,-6.029912829E-1,-9.695418358E0
1.286847604E1,-2.042573214E0,-6.029912829E-1,-9.688240051E0
1.287818896E1,-2.047358990E0,-5.934200287E-1,-9.685847282E0
1.288790260E1,-2.037787676E0,-6.029912829E-1,-9.673882484E0
1.289761536E1,-2.037787676E0,-5.910272002E-1,-9.669096947E0
1.290732740E1,-2.042573214E0,-6.149554253E-1,-9.683454514E0
1.291704031E1,-2.035394669E0,-6.149554253E-1,-9.702596664E0
1.292675396E1,-2.033001900E0,-6.149554253E-1,-9.702596664E0
1.293646672E1,-2.033001900E0,-6.197410822E-1,-9.693025589E0
1.294617880E1,-2.025823355E0,-6.077769399E-1,-9.678668022E0
1.295589167E1,-2.021037817E0,-6.101697683E-1,-9.678668022E0
1.296560531E1,-2.025823355E0,-6.053841114E-1,-9.693025589E0
1.297531807E1,-2.023430586E0,-6.173482537E-1,-9.683454514E0
1.298503016E1,-2.028216362E0,-6.221339107E-1,-9.695418358E0
1.299474302E1,-2.030609131E0,-6.269195080E-1,-9.683454514E0
1.300445667E1,-2.040180445E0,-6.293123364E-1,-9.678668022E0
1.301416953E1,-2.054537296E0,-6.101697683E-1,-9.693025589E0
1.302388151E1,-2.047358990E0,-6.101697683E-1,-9.683454514E0
1.303359438E1,-2.049751759E0,-6.101697683E-1,-9.690632820E0
1.304330802E1,-2.049751759E0,-6.101697683E-1,-9.681061745E0
1.305302088E1,-2.035394669E0,-6.197410822E-1,-9.697811127E0
1.306273287E1,-2.033001900E0,-6.364908218E-1,-9.707382202E0
1.307244578E1,-2.025823355E0,-6.388836503E-1,-9.700203896E0
1.308215938E1,-2.016252279E0,-6.340979934E-1,-9.697811127E0
1.309187224E1,-2.011466503E0,-6.388836503E-1,-9.697811127E0
1.310158422E1,-2.011466503E0,-6.415755749E-1,-9.685847282E0
1.311129714E1,-1.997109652E0,-6.340979934E-1,-9.688240051E0
1.312101078E1,-2.013859272E0,-6.293123364E-1,-9.685847282E0
1.313072354E1,-2.011466503E0,-6.293123364E-1,-9.683454514E0
1.314043557E1,-2.030609131E0,-6.101697683E-1,-9.676275253E0
1.315014849E1,-2.030609131E0,-6.053841114E-1,-9.673882484E0
1.315986214E1,-2.033001900E0,-6.053841114E-1,-9.688240051E0
1.316957490E1,-2.035394669E0,-6.005984545E-1,-9.693025589E0
1.317928698E1,-2.037787676E0,-6.053841114E-1,-9.702596664E0
1.318899984E1,-2.040180445E0,-6.149554253E-1,-9.697811127E0
1.319871349E1,-2.044965982E0,-6.221339107E-1,-9.693025589E0
1.320842635E1,-2.035394669E0,-6.197410822E-1,-9.695418358E0
1.321813833E1,-2.035394669E0,-6.173482537E-1,-9.685847282E0
1.322785125E1,-2.035394669E0,-6.221339107E-1,-9.683454514E0
1.323756484E1,-2.040180445E0,-6.149554253E-1,-9.681061745E0
1.324727771E1,-2.035394669E0,-6.197410822E-1,-9.683454514E0
1.325698969E1,-2.040180445E0,-6.340979934E-1,-9.681061745E0
1.326670260E1,-2.037787676E0,-6.245267391E-1,-9.673882484E0
1.327641620E1,-2.025823355E0,-6.101697683E-1,-9.664311409E0
1.328612906E1,-2.035394669E0,-6.101697683E-1,-9.678668022E0
1.329584104E1,-2.030609131E0,-5.958128572E-1,-9.678668022E0
1.330555396E1,-2.021037817E0,-6.005984545E-1,-9.693025589E0
1.331526760E1,-2.030609131E0,-6.005984545E-1,-9.700203896E0
1.332498036E1,-2.042573214E0,-6.149554253E-1,-9.707382202E0
1.333469245E1,-2.037787676E0,-6.463612318E-1,-9.724132538E0
1.334440531E1,-2.035394669E0,-6.702894568E-1,-9.728918076E0
1.335411896E1,-2.033001900E0,-6.702894568E-1,-9.712167740E0
1.336383172E1,-2.044965982E0,-6.415755749E-1,-9.676275253E0
1.337354380E1,-2.040180445E0,-6.221339107E-1,-9.652347565E0
1.338325672E1,-2.023430586E0,-6.125625968E-1,-9.671489716E0
1.339297031E1,-2.028216362E0,-6.029912829E-1,-9.685847282E0
1.340268318E1,-2.004287958E0,-6.005984545E-1,-9.707382202E0
1.341239516E1,-2.011466503E0,-6.173482537E-1,-9.702596664E0
1.342210807E1,-2.021037817E0,-6.293123364E-1,-9.693025589E0
1.343182167E1,-2.021037817E0,-6.245267391E-1,-9.688240051E0
1.344153453E1,-2.033001900E0,-6.415755749E-1,-9.690632820E0
1.345124651E1,-2.025823355E0,-6.388836503E-1,-9.676275253E0
1.346095943E1,-2.018645048E0,-6.388836503E-1,-9.671489716E0
1.347067307E1,-2.013859272E0,-6.364908218E-1,-9.659525871E0
1.348038583E1,-2.013859272E0,-6.364908218E-1,-9.664311409E0
1.349009792E1,-2.018645048E0,-6.388836503E-1,-9.690632820E0
1.349981078E1,-2.035394669E0,-6.293123364E-1,-9.704989433E0
1.350952443E1,-2.035394669E0,-6.077769399E-1,-9.704989433E0
1.351923729E1,-2.042573214E0,-6.101697683E-1,-9.688240051E0
1.352894927E1,-2.037787676E0,-6.149554253E-1,-9.678668022E0
1.353866214E1,-2.044965982E0,-6.149554253E-1,-9.671489716E0
1.354837578E1,-2.037787676E0,-6.221339107E-1,-9.676275253E0
1.355808865E1,-2.030609131E0,-6.221339107E-1,-9.695418358E0
1.356780062E1,-2.025823355E0,-6.149554253E-1,-9.693025589E0
1.357751354E1,-2.030609131E0,-6.053841114E-1,-9.697811127E0
1.358722719E1,-2.035394669E0,-6.077769399E-1,-9.685847282E0
1.359693995E1,-2.030609131E0,-6.173482537E-1,-9.681061745E0
1.360665203E1,-2.021037817E0,-6.125625968E-1,-9.688240051E0
1.361636490E1,-2.021037817E0,-6.053841114E-1,-9.688240051E0
1.362607854E1,-2.025823355E0,-6.125625968E-1,-9.673882484E0
1.363579130E1,-2.025823355E0,-6.245267391E-1,-9.681061745E0
1.364550339E1,-2.006680965E0,-6.415755749E-1,-9.693025589E0
1.365521625E1,-2.013859272E0,-6.463612318E-1,-9.683454514E0
1.366492990E1,-2.009073734E0,-6.293123364E-1,-9.681061745E0
1.367464276E1,-2.013859272E0,-6.269195080E-1,-9.681061745E0
1.368435474E1,-2.016252279E0,-6.053841114E-1,-9.685847282E0
1.369406766E1,-2.011466503E0,-6.101697683E-1,-9.695418358E0
1.370378130E1,-2.006680965E0,-6.149554253E-1,-9.707382202E0
1.371349406E1,-2.011466503E0,-6.197410822E-1,-9.709774971E0
1.372320609E1,-2.021037817E0,-6.173482537E-1,-9.716953278E0
1.373291901E1,-2.021037817E0,-6.293123364E-1,-9.719346046E0
1.374263266E1,-2.013859272E0,-6.463612318E-1,-9.700203896E0
1.375234542E1,-2.021037817E0,-6.439684033E-1,-9.681061745E0
1.376205750E1,-2.023430586E0,-6.583253145E-1,-9.666704178E0
1.377177036E1,-2.016252279E0,-6.535396576E-1,-9.652347565E0
1.378148401E1,-2.023430586E0,-6.388836503E-1,-9.666704178E0
1.379119688E1,-2.028216362E0,-6.269195080E-1,-9.681061745E0
1.380090885E1,-2.025823355E0,-6.245267391E-1,-9.685847282E0
1.381062177E1,-2.028216362E0,-6.149554253E-1,-9.704989433E0
1.382033542E1,-2.033001900E0,-6.221339107E-1,-9.704989433E0
1.383004818E1,-2.023430586E0,-6.173482537E-1,-9.695418358E0
1.383976021E1,-2.030609131E0,-6.293123364E-1,-9.700203896E0
1.384947313E1,-2.025823355E0,-6.149554253E-1,-9.676275253E0
1.385918677E1,-2.028216362E0,-6.269195080E-1,-9.685847282E0
1.386889953E1,-2.040180445E0,-6.317051649E-1,-9.685847282E0
1.387861162E1,-2.028216362E0,-6.293123364E-1,-9.695418358E0
1.388832448E1,-2.025823355E0,-6.245267391E-1,-9.690632820E0
1.389803813E1,-2.028216362E0,-6.388836503E-1,-9.702596664E0
1.390775099E1,-2.013859272E0,-6.340979934E-1,-9.685847282E0
1.391746297E1,-2.013859272E0,-6.197410822E-1,-9.683454514E0
1.392717588E1,-2.009073734E0,-6.245267391E-1,-9.676275253E0
1.393688948E1,-2.028216362E0,-6.293123364E-1,-9.683454514E0
1.394660234E1,-2.009073734E0,-6.221339107E-1,-9.693025589E0
1.395631438E1,-2.028216362E0,-6.269195080E-1,-9.693025589E0
1.396602724E1,-2.033001900E0,-6.173482537E-1,-9.709774971E0
1.397574088E1,-2.047358990E0,-5.886343718E-1,-9.693025589E0
1.398545375E1,-2.047358990E0,-5.910272002E-1,-9.700203896E0
1.399516573E1,-2.047358990E0,-6.005984545E-1,-9.702596664E0
1.400487859E1,-2.044965982E0,-6.197410822E-1,-9.704989433E0
1.401459224E1,-2.040180445E0,-6.149554253E-1,-9.702596664E0
1.402430510E1,-2.028216362E0,-5.910272002E-1,-9.664311409E0
1.403401708E1,-2.028216362E0,-5.599204898E-1,-9.652347565E0
1.404373000E1,-2.013859272E0,-5.599204898E-1,-9.676275253E0
1.405344365E1,-2.001895189E0,-5.575276613E-1,-9.676275253E0
1.406315641E1,-1.994716763E0,-5.790630579E-1,-9.693025589E0
1.407286849E1,-2.004287958E0,-5.958128572E-1,-9.697811127E0
1.408258135E1,-2.013859272E0,-6.149554253E-1,-9.707382202E0
1.409229500E1,-2.021037817E0,-6.388836503E-1,-9.714560509E0
1.410200787E1,-2.021037817E0,-6.364908218E-1,-9.693025589E0
1.411171984E1,-2.016252279E0,-6.535396576E-1,-9.676275253E0
1.412143276E1,-2.016252279E0,-6.463612318E-1,-9.683454514E0
1.413114635E1,-2.009073734E0,-6.535396576E-1,-9.659525871E0
1.414085922E1,-2.023430586E0,-6.364908218E-1,-9.673882484E0
1.415057125E1,-2.033001900E0,-6.221339107E-1,-9.685847282E0
1.416028412E1,-2.052144527E0,-6.149554253E-1,-9.695418358E0
1.416999776E1,-2.056930065E0,-6.053841114E-1,-9.702596664E0
1.417971062E1,-2.061715841E0,-5.958128572E-1,-9.700203896E0
1.418942260E1,-2.052144527E0,-5.886343718E-1,-9.695418358E0
1.419913552E1,-2.054537296E0,-5.790630579E-1,-9.683454514E0
1.420884912E1,-2.052144527E0,-6.005984545E-1,-9.695418358E0
1.421856198E1,-2.037787676E0,-5.934200287E-1,-9.709774971E0
1.422827396E1,-2.030609131E0,-6.029912829E-1,-9.716953278E0
1.423798688E1,-2.018645048E0,-6.197410822E-1,-9.702596664E0
1.424770052E1,-2.004287958E0,-6.125625968E-1,-9.683454514E0
1.425741328E1,-1.987538338E0,-6.053841114E-1,-9.671489716E0
1.426712536E1,-2.001895189E0,-6.053841114E-1,-9.688240051E0
1.427683823E1,-1.982752681E0,-6.125625968E-1,-9.676275253E0
1.428655188E1,-1.997109652E0,-6.077769399E-1,-9.683454514E0
1.429626474E1,-2.006680965E0,-6.053841114E-1,-9.690632820E0
1.430597672E1,-2.011466503E0,-6.101697683E-1,-9.697811127E0
1.431568964E1,-2.030609131E0,-6.149554253E-1,-9.690632820E0
1.432540328E1,-2.040180445E0,-5.982056856E-1,-9.690632820E0
1.433511604E1,-2.033001900E0,-6.077769399E-1,-9.695418358E0
1.434482813E1,-2.033001900E0,-6.053841114E-1,-9.690632820E0
1.435454099E1,-2.047358990E0,-6.077769399E-1,-9.700203896E0
1.436425464E1,-2.033001900E0,-6.221339107E-1,-9.697811127E0
1.437396750E1,-2.025823355E0,-6.221339107E-1,-9.709774971E0
1.438367948E1,-2.018645048E0,-6.197410822E-1,-9.707382202E0
1.439339240E1,-2.011466503E0,-6.245267391E-1,-9.685847282E0
1.440310604E1,-2.011466503E0,-6.149554253E-1,-9.681061745E0
1.441281880E1,-2.013859272E0,-6.101697683E-1,-9.676275253E0
1.442253088E1,-2.025823355E0,-6.029912829E-1,-9.678668022E0
1.443224375E1,-2.023430586E0,-5.814558864E-1,-9.685847282E0
1.444195740E1,-2.028216362E0,-5.982056856E-1,-9.695418358E0
1.445167026E1,-2.059323072E0,-5.910272002E-1,-9.716953278E0
1.446138224E1,-2.076072693E0,-5.982056856E-1,-9.709774971E0
1.447109516E1,-2.066501379E0,-6.053841114E-1,-9.719346046E0
1.448080880E1,-2.054537296E0,-5.910272002E-1,-9.697811127E0
1.449052156E1,-2.049751759E0,-6.005984545E-1,-9.664311409E0
1.450023365E1,-2.047358990E0,-6.053841114E-1,-9.671489716E0
1.450994651E1,-2.030609131E0,-6.149554253E-1,-9.659525871E0
1.451966016E1,-2.016252279E0,-6.173482537E-1,-9.669096947E0
1.452937302E1,-2.025823355E0,-6.269195080E-1,-9.666704178E0
1.453908500E1,-2.028216362E0,-6.245267391E-1,-9.673882484E0
1.454879792E1,-2.030609131E0,-6.197410822E-1,-9.700203896E0
1.455851156E1,-2.035394669E0,-6.197410822E-1,-9.702596664E0
1.456822432E1,-2.030609131E0,-6.077769399E-1,-9.697811127E0
1.457793641E1,-2.030609131E0,-5.958128572E-1,-9.697811127E0
1.458764927E1,-2.037787676E0,-5.982056856E-1,-9.702596664E0
1.459736292E1,-2.047358990E0,-5.982056856E-1,-9.702596664E0
1.460707578E1,-2.037787676E0,-5.958128572E-1,-9.681061745E0
1.461678776E1,-2.033001900E0,-5.886343718E-1,-9.676275253E0
1.462650068E1,-2.021037817E0,-6.053841114E-1,-9.666704178E0
1.463621432E1,-2.023430586E0,-6.053841114E-1,-9.664311409E0
1.464592708E1,-2.030609131E0,-5.886343718E-1,-9.666704178E0
1.465563917E1,-2.030609131E0,-5.838487148E-1,-9.669096947E0
1.466535208E1,-2.042573214E0,-5.647061467E-1,-9.688240051E0
1.467506568E1,-2.056930065E0,-5.862415433E-1,-9.685847282E0
1.468477854E1,-2.054537296E0,-6.005984545E-1,-9.704989433E0
1.469449052E1,-2.052144527E0,-6.245267391E-1,-9.719346046E0
1.470420344E1,-2.042573214E0,-6.364908218E-1,-9.724132538E0
1.471391708E1,-2.030609131E0,-6.245267391E-1,-9.690632820E0
1.472362984E1,-2.044965982E0,-6.125625968E-1,-9.645169258E0
1.473334193E1,-2.047358990E0,-5.814558864E-1,-9.642776489E0
1.474305484E1,-2.037787676E0,-5.790630579E-1,-9.664311409E0
1.475276849E1,-2.044965982E0,-5.670989752E-1,-9.678668022E0
1.476248125E1,-2.040180445E0,-5.910272002E-1,-9.690632820E0
1.477219328E1,-2.035394669E0,-6.101697683E-1,-9.688240051E0
1.478190620E1,-2.023430586E0,-6.269195080E-1,-9.709774971E0
1.479161984E1,-2.021037817E0,-6.487540603E-1,-9.697811127E0
1.480133271E1,-2.030609131E0,-6.559324861E-1,-9.702596664E0
1.481104469E1,-2.035394669E0,-6.487540603E-1,-9.704989433E0
1.482075760E1,-2.044965982E0,-6.269195080E-1,-9.704989433E0
1.483047125E1,-2.035394669E0,-6.269195080E-1,-9.690632820E0
1.484018401E1,-2.033001900E0,-6.388836503E-1,-9.681061745E0
1.484989609E1,-2.040180445E0,-6.340979934E-1,-9.681061745E0
1.485960896E1,-2.037787676E0,-6.173482537E-1,-9.676275253E0
1.486932260E1,-2.042573214E0,-5.958128572E-1,-9.676275253E0
1.487903547E1,-2.054537296E0,-5.910272002E-1,-9.652347565E0
1.488874745E1,-2.052144527E0,-5.718846321E-1,-9.652347565E0
1.489846037E1,-2.044965982E0,-5.814558864E-1,-9.676275253E0
1.490817401E1,-2.035394669E0,-5.814558864E-1,-9.704989433E0
1.491788677E1,-2.035394669E0,-5.934200287E-1,-9.721739769E0
1.492759885E1,-2.033001900E0,-6.005984545E-1,-9.731310844E0
1.493731177E1,-2.030609131E0,-6.101697683E-1,-9.721739769E0
1.494702537E1,-2.021037817E0,-6.005984545E-1,-9.697811127E0
1.495673823E1,-2.016252279E0,-6.173482537E-1,-9.688240051E0
1.496645026E1,-2.023430586E0,-5.958128572E-1,-9.671489716E0
1.497616313E1,-2.009073734E0,-6.005984545E-1,-9.652347565E0
1.498587677E1,-2.016252279E0,-6.005984545E-1,-9.657133102E0
1.499558964E1,-2.023430586E0,-6.053841114E-1,-9.652347565E0
1.500530162E1,-2.037787676E0,-6.053841114E-1,-9.673882484E0
1.501501453E1,-2.052144527E0,-5.910272002E-1,-9.676275253E0
1.502472818E1,-2.040180445E0,-5.982056856E-1,-9.676275253E0
1.503444094E1,-2.049751759E0,-5.934200287E-1,-9.693025589E0
1.504415302E1,-2.037787676E0,-6.077769399E-1,-9.704989433E0
