"Time (s)","Gyroscope x (rad/s)","Gyroscope y (rad/s)","Gyroscope z (rad/s)"
1.592890100E-1,6.872031838E-3,2.290677279E-3,1.221694518E-3
1.690018750E-1,3.206948051E-3,1.068982761E-3,3.665083554E-3
1.787154690E-1,-2.901524538E-3,1.068982761E-3,4.886778072E-3
1.884282810E-1,-5.344913341E-3,-1.527118147E-4,3.665083554E-3
1.981403130E-1,-5.344913341E-3,-1.527118147E-4,4.886778072E-3
2.078531770E-1,-2.901524538E-3,1.068982761E-3,4.886778072E-3
2.175667710E-1,-4.581354442E-4,2.290677279E-3,2.443389036E-3
2.272795310E-1,4.428642802E-3,3.512371797E-3,2.443389036E-3
2.369915630E-1,5.650337320E-3,1.068982761E-3,0.000000000E0
2.467044270E-1,4.428642802E-3,1.068982761E-3,1.221694518E-3
2.564180210E-1,-4.581354442E-4,-2.596100792E-3,0.000000000E0
2.661307810E-1,-1.679830020E-3,-1.374406274E-3,1.221694518E-3
2.758428130E-1,-2.901524538E-3,-2.596100792E-3,3.665083554E-3
2.855556770E-1,-5.344913341E-3,-1.374406274E-3,3.665083554E-3
2.952692710E-1,-4.123218823E-3,1.068982761E-3,2.443389036E-3
3.049820310E-1,-2.901524538E-3,1.068982761E-3,2.443389036E-3
3.146940630E-1,-1.679830020E-3,-1.374406274E-3,1.221694518E-3
3.244069270E-1,-4.581354442E-4,-3.817795310E-3,-1.221694518E-3
3.341205730E-1,-4.581354442E-4,-5.039489828E-3,-1.221694518E-3
3.438333330E-1,-4.581354442E-4,-3.817795310E-3,-2.443389036E-3
3.535453650E-1,-4.581354442E-4,-2.596100792E-3,-2.443389036E-3
3.632582290E-1,-1.679830020E-3,-1.527118147E-4,-2.443389036E-3
3.729718230E-1,-4.581354442E-4,3.512371797E-3,-2.443389036E-3
3.826845830E-1,-4.581354442E-4,4.734066315E-3,-2.443389036E-3
3.923966150E-1,-4.581354442E-4,3.512371797E-3,0.000000000E0
4.021094790E-1,-4.581354442E-4,1.068982761E-3,0.000000000E0
4.118230730E-1,-4.581354442E-4,-1.527118147E-4,0.000000000E0
4.215358330E-1,7.635590737E-4,-2.596100792E-3,-1.221694518E-3
4.312478650E-1,1.985253533E-3,-2.596100792E-3,-1.221694518E-3
4.409607290E-1,3.206948051E-3,-3.817795310E-3,0.000000000E0
4.506743750E-1,3.206948051E-3,-3.817795310E-3,-1.221694518E-3
4.603871350E-1,7.635590737E-4,-1.527118147E-4,0.000000000E0
4.700991670E-1,-1.679830020E-3,1.068982761E-3,1.221694518E-3
4.798120310E-1,-2.901524538E-3,2.290677279E-3,1.221694518E-3
4.895256250E-1,-2.901524538E-3,1.068982761E-3,2.443389036E-3
4.992383850E-1,-1.679830020E-3,-1.374406274E-3,3.665083554E-3
5.089504170E-1,7.635590737E-4,-1.374406274E-3,2.443389036E-3
5.186632810E-1,1.985253533E-3,-2.596100792E-3,3.665083554E-3
5.283768750E-1,3.206948051E-3,-2.596100792E-3,3.665083554E-3
5.380896350E-1,3.206948051E-3,-1.374406274E-3,4.886778072E-3
5.478016670E-1,1.985253533E-3,-1.374406274E-3,4.886778072E-3
5.575145310E-1,1.985253533E-3,-1.527118147E-4,4.886778072E-3
5.672281770E-1,1.985253533E-3,1.068982761E-3,6.108472589E-3
5.769409380E-1,3.206948051E-3,2.290677279E-3,7.330167107E-3
5.866529690E-1,3.206948051E-3,1.068982761E-3,6.108472589E-3
5.963658330E-1,4.428642802E-3,-1.527118147E-4,6.108472589E-3
6.060794270E-1,3.206948051E-3,-1.527118147E-4,6.108472589E-3
6.157921880E-1,3.206948051E-3,-1.374406274E-3,4.886778072E-3
6.255042190E-1,3.206948051E-3,-1.374406274E-3,3.665083554E-3
6.352170830E-1,3.206948051E-3,-1.374406274E-3,2.443389036E-3
6.449306770E-1,1.985253533E-3,1.068982761E-3,1.221694518E-3
6.546434380E-1,1.985253533E-3,2.290677279E-3,1.221694518E-3
6.643554690E-1,1.985253533E-3,1.068982761E-3,-1.221694518E-3
6.740683330E-1,1.985253533E-3,-1.527118147E-4,-2.443389036E-3
6.837819790E-1,1.985253533E-3,-2.596100792E-3,-1.221694518E-3
6.934947400E-1,1.985253533E-3,-3.817795310E-3,-1.221694518E-3
7.032067710E-1,3.206948051E-3,-3.817795310E-3,1.221694518E-3
7.129196350E-1,1.985253533E-3,-2.596100792E-3,3.665083554E-3
7.226332290E-1,1.985253533E-3,-1.374406274E-3,4.886778072E-3
7.323459900E-1,3.206948051E-3,2.290677279E-3,4.886778072E-3
7.420580210E-1,3.206948051E-3,3.512371797E-3,2.443389036E-3
7.517708850E-1,3.206948051E-3,5.955760833E-3,2.443389036E-3
7.614845310E-1,4.428642802E-3,4.734066315E-3,1.221694518E-3
7.711972920E-1,5.650337320E-3,4.734066315E-3,0.000000000E0
7.809093230E-1,8.093725890E-3,2.290677279E-3,1.221694518E-3
7.906221880E-1,9.315420873E-3,2.290677279E-3,1.221694518E-3
8.003357810E-1,9.315420873E-3,2.290677279E-3,2.443389036E-3
8.100485420E-1,8.093725890E-3,3.512371797E-3,4.886778072E-3
8.197605730E-1,5.650337320E-3,4.734066315E-3,3.665083554E-3
8.294734380E-1,4.428642802E-3,3.512371797E-3,2.443389036E-3
8.391870310E-1,4.428642802E-3,3.512371797E-3,2.443389036E-3
8.488997920E-1,4.428642802E-3,3.512371797E-3,1.221694518E-3
8.586118230E-1,3.206948051E-3,4.734066315E-3,2.443389036E-3
8.683246880E-1,1.985253533E-3,3.512371797E-3,3.665083554E-3
8.780383330E-1,-4.581354442E-4,1.068982761E-3,3.665083554E-3
8.877510940E-1,7.635590737E-4,-1.527118147E-4,4.886778072E-3
8.974631250E-1,7.635590737E-4,1.068982761E-3,3.665083554E-3
9.071759900E-1,7.635590737E-4,2.290677279E-3,1.221694518E-3
9.168895830E-1,7.635590737E-4,2.290677279E-3,1.221694518E-3
9.266023440E-1,-4.581354442E-4,1.068982761E-3,1.221694518E-3
9.363143750E-1,-1.679830020E-3,1.068982761E-3,0.000000000E0
9.460272400E-1,-2.901524538E-3,-2.596100792E-3,1.221694518E-3
9.557408850E-1,-4.123218823E-3,-5.039489828E-3,2.443389036E-3
9.654536460E-1,-4.123218823E-3,-3.817795310E-3,1.221694518E-3
9.751656770E-1,-2.901524538E-3,-2.596100792E-3,1.221694518E-3
9.848785420E-1,-1.679830020E-3,2.290677279E-3,1.221694518E-3
9.945921350E-1,-4.581354442E-4,3.512371797E-3,0.000000000E0
1.004304896E0,7.635590737E-4,4.734066315E-3,1.221694518E-3
1.014016927E0,1.985253533E-3,3.512371797E-3,0.000000000E0
1.023729792E0,7.635590737E-4,2.290677279E-3,-1.221694518E-3
1.033443385E0,-1.679830020E-3,-1.374406274E-3,0.000000000E0
1.043156250E0,-1.679830020E-3,-3.817795310E-3,0.000000000E0
1.052868177E0,-2.901524538E-3,-3.817795310E-3,-1.221694518E-3
1.062581094E0,-2.901524538E-3,-3.817795310E-3,0.000000000E0
1.072294688E0,-2.901524538E-3,-3.817795310E-3,0.000000000E0
1.082007448E0,-2.901524538E-3,-2.596100792E-3,-1.221694518E-3
1.091719479E0,-2.901524538E-3,-2.596100792E-3,-1.221694518E-3
1.101432344E0,-2.901524538E-3,-3.817795310E-3,0.000000000E0
1.111145938E0,-4.581354442E-4,-3.817795310E-3,1.221694518E-3
1.120858698E0,-4.581354442E-4,-2.596100792E-3,1.221694518E-3
1.130570729E0,7.635590737E-4,-2.596100792E-3,1.221694518E-3
1.140283594E0,-4.581354442E-4,-1.374406274E-3,3.665083554E-3
1.149997240E0,-1.679830020E-3,-1.527118147E-4,3.665083554E-3
1.159710000E0,-2.901524538E-3,-1.374406274E-3,3.665083554E-3
1.169422031E0,-1.679830020E-3,-1.374406274E-3,2.443389036E-3
1.179134896E0,-1.679830020E-3,-2.596100792E-3,2.443389036E-3
1.188848490E0,-4.581354442E-4,-2.596100792E-3,0.000000000E0
1.198561250E0,-4.581354442E-4,-3.817795310E-3,0.000000000E0
1.208273281E0,-4.581354442E-4,-3.817795310E-3,-1.221694518E-3
1.217986146E0,-4.581354442E-4,-2.596100792E-3,-2.443389036E-3
1.227699792E0,-4.581354442E-4,-2.596100792E-3,-2.443389036E-3
1.237412552E0,-1.679830020E-3,-1.374406274E-3,-2.443389036E-3
1.247124583E0,-2.901524538E-3,-2.596100792E-3,-3.665083554E-3
1.256837448E0,-2.901524538E-3,-2.596100792E-3,-1.221694518E-3
1.266551042E0,-2.901524538E-3,-2.596100792E-3,-1.221694518E-3
1.276263802E0,-2.901524538E-3,-3.817795310E-3,0.000000000E0
1.285975833E0,-1.679830020E-3,-3.817795310E-3,-1.221694518E-3
1.295688698E0,-4.581354442E-4,-2.596100792E-3,0.000000000E0
1.305402344E0,7.635590737E-4,-1.374406274E-3,0.000000000E0
1.315115104E0,7.635590737E-4,-1.527118147E-4,-1.221694518E-3
1.324827135E0,1.985253533E-3,1.068982761E-3,0.000000000E0
1.334540000E0,1.985253533E-3,1.068982761E-3,0.000000000E0
1.344253594E0,7.635590737E-4,-1.527118147E-4,0.000000000E0
1.353966354E0,7.635590737E-4,-1.374406274E-3,-1.221694518E-3
1.363678385E0,7.635590737E-4,-1.374406274E-3,0.000000000E0
1.373391250E0,1.985253533E-3,-2.596100792E-3,1.221694518E-3
1.383104844E0,3.206948051E-3,-3.817795310E-3,3.665083554E-3
1.392817708E0,3.206948051E-3,-3.817795310E-3,3.665083554E-3
1.402529635E0,1.985253533E-3,-2.596100792E-3,4.886778072E-3
1.412242552E0,-1.679830020E-3,-1.374406274E-3,3.665083554E-3
1.421956146E0,-1.679830020E-3,-2.596100792E-3,3.665083554E-3
1.431668906E0,-4.581354442E-4,-1.374406274E-3,2.443389036E-3
1.441380938E0,1.985253533E-3,1.068982761E-3,1.221694518E-3
1.451093802E0,3.206948051E-3,5.955760833E-3,2.443389036E-3
1.460807396E0,3.206948051E-3,5.955760833E-3,1.221694518E-3
1.470520260E0,1.985253533E-3,4.734066315E-3,1.221694518E-3
1.480232188E0,7.635590737E-4,1.068982761E-3,-1.221694518E-3
1.489945104E0,-4.581354442E-4,-1.527118147E-4,-2.443389036E-3
1.499658698E0,-1.679830020E-3,-1.527118147E-4,-1.221694518E-3
1.509371458E0,-1.679830020E-3,2.290677279E-3,-1.221694518E-3
1.519083490E0,-1.679830020E-3,3.512371797E-3,-2.443389036E-3
1.528796354E0,-4.581354442E-4,4.734066315E-3,-2.443389036E-3
1.538509948E0,-4.581354442E-4,3.512371797E-3,-1.221694518E-3
1.548222708E0,-1.679830020E-3,1.068982761E-3,-1.221694518E-3
1.557934740E0,-1.679830020E-3,-1.527118147E-4,0.000000000E0
1.567647604E0,-2.901524538E-3,-1.527118147E-4,0.000000000E0
1.577361250E0,-1.679830020E-3,-1.374406274E-3,1.221694518E-3
1.587074010E0,-4.581354442E-4,-2.596100792E-3,1.221694518E-3
1.596786042E0,7.635590737E-4,-2.596100792E-3,2.443389036E-3
1.606498906E0,7.635590737E-4,-1.527118147E-4,1.221694518E-3
1.616212500E0,7.635590737E-4,1.068982761E-3,1.221694518E-3
1.625925260E0,-4.581354442E-4,1.068982761E-3,0.000000000E0
1.635637292E0,-4.581354442E-4,-1.527118147E-4,-1.221694518E-3
1.645350156E0,-4.581354442E-4,-1.374406274E-3,-2.443389036E-3
1.655063802E0,7.635590737E-4,-1.527118147E-4,-1.221694518E-3
1.664776563E0,7.635590737E-4,-1.527118147E-4,-1.221694518E-3
1.674488594E0,7.635590737E-4,-1.527118147E-4,0.000000000E0
1.684201458E0,-4.581354442E-4,-1.374406274E-3,0.000000000E0
1.693915052E0,-1.679830020E-3,-2.596100792E-3,0.000000000E0
1.703627813E0,-2.901524538E-3,-1.374406274E-3,0.000000000E0
1.713339844E0,-2.901524538E-3,-1.527118147E-4,0.000000000E0
1.723052708E0,-2.901524538E-3,-1.527118147E-4,0.000000000E0
1.732766302E0,-4.581354442E-4,2.290677279E-3,0.000000000E0
1.742479167E0,-4.581354442E-4,2.290677279E-3,0.000000000E0
1.752191146E0,1.985253533E-3,2.290677279E-3,-1.221694518E-3
1.761904010E0,1.985253533E-3,1.068982761E-3,0.000000000E0
1.771617604E0,7.635590737E-4,-1.527118147E-4,0.000000000E0
1.781330365E0,7.635590737E-4,-1.527118147E-4,0.000000000E0
1.791042396E0,-1.679830020E-3,-1.374406274E-3,1.221694518E-3
1.800755260E0,-1.679830020E-3,-1.374406274E-3,2.443389036E-3
1.810468854E0,-4.581354442E-4,-1.527118147E-4,3.665083554E-3
1.820181719E0,-4.581354442E-4,-1.374406274E-3,2.443389036E-3
1.829893646E0,-4.581354442E-4,-1.374406274E-3,1.221694518E-3
1.839606563E0,7.635590737E-4,-1.374406274E-3,2.443389036E-3
1.849320156E0,7.635590737E-4,-2.596100792E-3,1.221694518E-3
1.859032917E0,1.985253533E-3,-2.596100792E-3,1.221694518E-3
1.868744948E0,1.985253533E-3,-1.374406274E-3,1.221694518E-3
1.878457813E0,7.635590737E-4,-1.374406274E-3,1.221694518E-3
1.888171406E0,7.635590737E-4,-1.374406274E-3,0.000000000E0
1.897884167E0,-4.581354442E-4,-1.527118147E-4,1.221694518E-3
1.907596198E0,-1.679830020E-3,1.068982761E-3,0.000000000E0
1.917309063E0,-2.901524538E-3,2.290677279E-3,1.221694518E-3
1.927022708E0,-2.901524538E-3,1.068982761E-3,0.000000000E0
1.936735469E0,-1.679830020E-3,-1.374406274E-3,0.000000000E0
1.946447500E0,-1.679830020E-3,-2.596100792E-3,0.000000000E0
1.956160365E0,7.635590737E-4,-1.374406274E-3,0.000000000E0
1.965873958E0,3.206948051E-3,-1.527118147E-4,0.000000000E0
1.975586719E0,4.428642802E-3,1.068982761E-3,0.000000000E0
1.985298750E0,5.650337320E-3,-1.527118147E-4,0.000000000E0
1.995011615E0,4.428642802E-3,1.068982761E-3,0.000000000E0
2.004725208E0,7.635590737E-4,2.290677279E-3,0.000000000E0
2.014438073E0,-1.679830020E-3,-1.527118147E-4,0.000000000E0
2.024150052E0,-1.679830020E-3,-2.596100792E-3,0.000000000E0
2.033862917E0,-4.581354442E-4,-2.596100792E-3,-1.221694518E-3
2.043576510E0,1.985253533E-3,-1.527118147E-4,-1.221694518E-3
2.053289271E0,1.985253533E-3,2.290677279E-3,0.000000000E0
2.063001302E0,7.635590737E-4,1.068982761E-3,0.000000000E0
2.072714167E0,7.635590737E-4,-1.374406274E-3,0.000000000E0
2.082427760E0,-4.581354442E-4,-3.817795310E-3,-1.221694518E-3
2.092140521E0,-1.679830020E-3,-3.817795310E-3,-1.221694518E-3
2.101852552E0,-1.679830020E-3,-2.596100792E-3,-1.221694518E-3
2.111565469E0,-1.679830020E-3,1.068982761E-3,-1.221694518E-3
2.121279063E0,-4.581354442E-4,4.734066315E-3,0.000000000E0
2.130991823E0,-4.581354442E-4,4.734066315E-3,-2.443389036E-3
2.140703854E0,-4.581354442E-4,3.512371797E-3,-1.221694518E-3
2.150416719E0,7.635590737E-4,2.290677279E-3,-1.221694518E-3
2.160130313E0,-4.581354442E-4,2.290677279E-3,-2.443389036E-3
2.169843073E0,-4.581354442E-4,2.290677279E-3,0.000000000E0
2.179555104E0,-4.581354442E-4,2.290677279E-3,-1.221694518E-3
2.189267969E0,-1.679830020E-3,1.068982761E-3,-1.221694518E-3
2.198981615E0,7.635590737E-4,-1.527118147E-4,0.000000000E0
2.208694375E0,7.635590737E-4,1.068982761E-3,1.221694518E-3
2.218406406E0,7.635590737E-4,2.290677279E-3,1.221694518E-3
2.228119271E0,1.985253533E-3,2.290677279E-3,1.221694518E-3
2.237832865E0,1.985253533E-3,2.290677279E-3,2.443389036E-3
2.247545625E0,3.206948051E-3,2.290677279E-3,1.221694518E-3
2.257257656E0,3.206948051E-3,2.290677279E-3,1.221694518E-3
2.266970521E0,1.985253533E-3,5.955760833E-3,0.000000000E0
2.276684115E0,3.206948051E-3,8.399149403E-3,-1.221694518E-3
2.286396875E0,3.206948051E-3,9.620844387E-3,0.000000000E0
2.296108906E0,4.428642802E-3,9.620844387E-3,0.000000000E0
2.305821771E0,3.206948051E-3,7.177455351E-3,0.000000000E0
2.315535417E0,1.985253533E-3,2.290677279E-3,1.221694518E-3
2.325248177E0,-4.581354442E-4,1.068982761E-3,1.221694518E-3
2.334960208E0,-1.679830020E-3,-1.527118147E-4,2.443389036E-3
2.344673073E0,7.635590737E-4,-1.527118147E-4,1.221694518E-3
2.354386667E0,1.985253533E-3,1.068982761E-3,1.221694518E-3
2.364099427E0,7.635590737E-4,1.068982761E-3,1.221694518E-3
2.373811458E0,1.985253533E-3,2.290677279E-3,0.000000000E0
2.383524323E0,1.985253533E-3,3.512371797E-3,0.000000000E0
2.393237917E0,1.985253533E-3,4.734066315E-3,0.000000000E0
2.402950677E0,1.985253533E-3,3.512371797E-3,-1.221694518E-3
2.412662760E0,3.206948051E-3,3.512371797E-3,-1.221694518E-3
2.422375625E0,3.206948051E-3,1.068982761E-3,0.000000000E0
2.432089219E0,3.206948051E-3,-1.527118147E-4,0.000000000E0
2.441801979E0,1.985253533E-3,-1.374406274E-3,-1.221694518E-3
2.451514010E0,-1.679830020E-3,-3.817795310E-3,-2.443389036E-3
2.461226875E0,-4.123218823E-3,-5.039489828E-3,-1.221694518E-3
2.470940469E0,-5.344913341E-3,-5.039489828E-3,-1.221694518E-3
2.480653229E0,-5.344913341E-3,-3.817795310E-3,0.000000000E0
2.490365260E0,-2.901524538E-3,-3.817795310E-3,0.000000000E0
2.500078125E0,7.635590737E-4,-1.374406274E-3,-1.221694518E-3
2.509791771E0,4.428642802E-3,1.068982761E-3,-2.443389036E-3
2.519504531E0,8.093725890E-3,2.290677279E-3,-2.443389036E-3
2.529216563E0,9.315420873E-3,1.068982761E-3,0.000000000E0
2.538929427E0,8.093725890E-3,1.068982761E-3,1.221694518E-3
2.548643021E0,5.650337320E-3,1.068982761E-3,2.443389036E-3
2.558355781E0,1.985253533E-3,1.068982761E-3,2.443389036E-3
2.568067813E0,-4.581354442E-4,-1.527118147E-4,1.221694518E-3
2.577780677E0,-1.679830020E-3,-1.374406274E-3,0.000000000E0
2.587494271E0,-4.581354442E-4,-1.374406274E-3,0.000000000E0
2.597207031E0,7.635590737E-4,-3.817795310E-3,0.000000000E0
2.606919063E0,4.428642802E-3,-2.596100792E-3,0.000000000E0
2.616631927E0,4.428642802E-3,-1.374406274E-3,0.000000000E0
2.626345573E0,3.206948051E-3,1.068982761E-3,-1.221694518E-3
2.636058333E0,1.985253533E-3,2.290677279E-3,-1.221694518E-3
2.645770365E0,7.635590737E-4,1.068982761E-3,0.000000000E0
2.655483229E0,7.635590737E-4,2.290677279E-3,2.443389036E-3
2.665196823E0,7.635590737E-4,4.734066315E-3,3.665083554E-3
2.674909583E0,-4.581354442E-4,5.955760833E-3,2.443389036E-3
2.684621615E0,-4.581354442E-4,4.734066315E-3,2.443389036E-3
2.694334479E0,7.635590737E-4,1.068982761E-3,2.443389036E-3
2.704048073E0,1.985253533E-3,-1.527118147E-4,2.443389036E-3
2.713760833E0,3.206948051E-3,-1.374406274E-3,1.221694518E-3
2.723472865E0,4.428642802E-3,1.068982761E-3,1.221694518E-3
2.733185729E0,4.428642802E-3,3.512371797E-3,2.443389036E-3
2.742899375E0,4.428642802E-3,4.734066315E-3,2.443389036E-3
2.752612135E0,4.428642802E-3,5.955760833E-3,1.221694518E-3
2.762324167E0,3.206948051E-3,4.734066315E-3,0.000000000E0
2.772037031E0,1.985253533E-3,4.734066315E-3,2.443389036E-3
2.781750625E0,-4.581354442E-4,3.512371797E-3,1.221694518E-3
2.791463385E0,-1.679830020E-3,2.290677279E-3,0.000000000E0
2.801175417E0,-1.679830020E-3,-1.374406274E-3,-1.221694518E-3
2.810888281E0,-4.581354442E-4,-5.039489828E-3,-2.443389036E-3
2.820601875E0,1.985253533E-3,-5.039489828E-3,0.000000000E0
2.830314635E0,1.985253533E-3,-5.039489828E-3,1.221694518E-3
2.840026667E0,1.985253533E-3,-2.596100792E-3,1.221694518E-3
2.849739531E0,7.635590737E-4,-1.527118147E-4,1.221694518E-3
2.859453177E0,-1.679830020E-3,1.068982761E-3,1.221694518E-3
2.869165938E0,-1.679830020E-3,2.290677279E-3,0.000000000E0
2.878877917E0,-4.581354442E-4,2.290677279E-3,-2.443389036E-3
2.888590833E0,-4.581354442E-4,3.512371797E-3,-2.443389036E-3
2.898304427E0,7.635590737E-4,2.290677279E-3,-2.443389036E-3
2.908017188E0,7.635590737E-4,1.068982761E-3,-3.665083554E-3
2.917729219E0,-4.581354442E-4,-1.527118147E-4,-2.443389036E-3
2.927442083E0,-4.581354442E-4,-1.527118147E-4,-2.443389036E-3
2.937155677E0,-1.679830020E-3,1.068982761E-3,-2.443389036E-3
2.946868438E0,-4.581354442E-4,2.290677279E-3,0.000000000E0
2.956580469E0,7.635590737E-4,3.512371797E-3,1.221694518E-3
2.966293333E0,3.206948051E-3,3.512371797E-3,1.221694518E-3
2.976006979E0,3.206948051E-3,3.512371797E-3,2.443389036E-3
2.985719740E0,4.428642802E-3,2.290677279E-3,2.443389036E-3
2.995431771E0,5.650337320E-3,2.290677279E-3,2.443389036E-3
3.005144635E0,4.428642802E-3,2.290677279E-3,3.665083554E-3
3.014858229E0,5.650337320E-3,3.512371797E-3,2.443389036E-3
3.024570990E0,4.428642802E-3,4.734066315E-3,1.221694518E-3
3.034283021E0,3.206948051E-3,3.512371797E-3,1.221694518E-3
3.043995885E0,1.985253533E-3,1.068982761E-3,1.221694518E-3
3.053709479E0,7.635590737E-4,-1.374406274E-3,0.000000000E0
3.063422240E0,7.635590737E-4,-2.596100792E-3,0.000000000E0
3.073134271E0,7.635590737E-4,-2.596100792E-3,1.221694518E-3
3.082847135E0,7.635590737E-4,-3.817795310E-3,1.221694518E-3
3.092560729E0,-4.581354442E-4,-3.817795310E-3,2.443389036E-3
3.102273594E0,-1.679830020E-3,-2.596100792E-3,1.221694518E-3
3.111985521E0,-2.901524538E-3,-2.596100792E-3,0.000000000E0
3.121698385E0,-2.901524538E-3,-1.374406274E-3,0.000000000E0
3.131412031E0,-5.344913341E-3,-2.596100792E-3,-1.221694518E-3
3.141124792E0,-5.344913341E-3,-3.817795310E-3,-3.665083554E-3
3.150836823E0,-2.901524538E-3,-3.817795310E-3,-7.330167107E-3
3.160549688E0,-4.123218823E-3,-1.374406274E-3,-6.108472589E-3
3.170263281E0,-2.901524538E-3,-1.374406274E-3,-6.108472589E-3
3.179976042E0,-2.901524538E-3,-1.374406274E-3,-3.665083554E-3
3.189688073E0,-2.901524538E-3,-1.374406274E-3,-2.443389036E-3
3.199400938E0,-2.901524538E-3,-3.817795310E-3,-2.443389036E-3
3.209114531E0,-4.123218823E-3,-3.817795310E-3,-1.221694518E-3
3.218827292E0,-2.901524538E-3,-2.596100792E-3,-1.221694518E-3
3.228539323E0,-4.581354442E-4,-2.596100792E-3,-1.221694518E-3
3.238252188E0,1.985253533E-3,-2.596100792E-3,1.221694518E-3
3.247965833E0,4.428642802E-3,-2.596100792E-3,0.000000000E0
3.257678594E0,3.206948051E-3,-2.596100792E-3,0.000000000E0
3.267390625E0,-4.581354442E-4,-1.374406274E-3,0.000000000E0
3.277103490E0,-2.901524538E-3,-1.374406274E-3,1.221694518E-3
3.286817083E0,-2.901524538E-3,-5.039489828E-3,1.221694518E-3
3.296529844E0,-4.123218823E-3,-6.261184346E-3,2.443389036E-3
3.306241875E0,-2.901524538E-3,-3.817795310E-3,2.443389036E-3
3.315954740E0,-2.901524538E-3,-1.527118147E-4,4.886778072E-3
3.325668333E0,-2.901524538E-3,-1.374406274E-3,4.886778072E-3
3.335381094E0,-2.901524538E-3,-2.596100792E-3,3.665083554E-3
3.345093125E0,-2.901524538E-3,-3.817795310E-3,2.443389036E-3
3.354805990E0,-1.679830020E-3,-3.817795310E-3,1.221694518E-3
3.364519583E0,-1.679830020E-3,-3.817795310E-3,1.221694518E-3
3.374232448E0,-1.679830020E-3,-2.596100792E-3,1.221694518E-3
3.383944375E0,-1.679830020E-3,-1.374406274E-3,1.221694518E-3
3.393657240E0,-2.901524538E-3,1.068982761E-3,0.000000000E0
3.403370885E0,-4.123218823E-3,1.068982761E-3,-1.221694518E-3
3.413083646E0,-2.901524538E-3,2.290677279E-3,-1.221694518E-3
3.422795677E0,-4.123218823E-3,2.290677279E-3,-2.443389036E-3
3.432508542E0,-5.344913341E-3,2.290677279E-3,-3.665083554E-3
3.442222135E0,-4.123218823E-3,2.290677279E-3,-2.443389036E-3
3.451934896E0,-2.901524538E-3,-1.527118147E-4,-1.221694518E-3
3.461646927E0,-4.581354442E-4,-3.817795310E-3,0.000000000E0
3.471359792E0,-1.679830020E-3,-5.039489828E-3,1.221694518E-3
3.481073385E0,-2.901524538E-3,-3.817795310E-3,1.221694518E-3
3.490786146E0,-4.123218823E-3,-2.596100792E-3,1.221694518E-3
3.500498177E0,-6.566607859E-3,-3.817795310E-3,-1.221694518E-3
3.510211042E0,-6.566607859E-3,-2.596100792E-3,-2.443389036E-3
3.519924688E0,-5.344913341E-3,-1.374406274E-3,-4.886778072E-3
3.529637448E0,-4.123218823E-3,-1.374406274E-3,-3.665083554E-3
3.539349479E0,-2.901524538E-3,-1.374406274E-3,-2.443389036E-3
3.549062344E0,-1.679830020E-3,-2.596100792E-3,-1.221694518E-3
3.558775938E0,7.635590737E-4,-1.374406274E-3,0.000000000E0
3.568488698E0,7.635590737E-4,-1.374406274E-3,0.000000000E0
3.578200729E0,7.635590737E-4,-1.527118147E-4,0.000000000E0
3.587913594E0,-4.581354442E-4,1.068982761E-3,1.221694518E-3
3.597627188E0,-4.581354442E-4,1.068982761E-3,1.221694518E-3
3.607339948E0,-4.581354442E-4,-1.527118147E-4,0.000000000E0
3.617051979E0,7.635590737E-4,-1.527118147E-4,0.000000000E0
3.626764844E0,1.985253533E-3,-1.374406274E-3,-1.221694518E-3
3.636478438E0,3.206948051E-3,-1.374406274E-3,-2.443389036E-3
3.646191198E0,3.206948051E-3,-1.527118147E-4,-2.443389036E-3
3.655903229E0,1.985253533E-3,-1.527118147E-4,-2.443389036E-3
3.665616094E0,7.635590737E-4,-1.374406274E-3,-2.443389036E-3
3.675329740E0,-4.581354442E-4,-2.596100792E-3,-1.221694518E-3
3.685042500E0,-1.679830020E-3,-3.817795310E-3,-1.221694518E-3
3.694754531E0,-2.901524538E-3,-5.039489828E-3,1.221694518E-3
3.704467396E0,-2.901524538E-3,-6.261184346E-3,2.443389036E-3
3.714180990E0,-1.679830020E-3,-7.482878864E-3,2.443389036E-3
3.723893750E0,-4.581354442E-4,-7.482878864E-3,3.665083554E-3
3.733605781E0,7.635590737E-4,-6.261184346E-3,1.221694518E-3
3.743318646E0,7.635590737E-4,-3.817795310E-3,1.221694518E-3
3.753032240E0,7.635590737E-4,-1.374406274E-3,0.000000000E0
3.762745000E0,7.635590737E-4,-1.527118147E-4,-1.221694518E-3
3.772457031E0,1.985253533E-3,-1.527118147E-4,-3.665083554E-3
3.782169896E0,1.985253533E-3,-1.527118147E-4,-4.886778072E-3
3.791883490E0,3.206948051E-3,-1.527118147E-4,-6.108472589E-3
3.801596250E0,4.428642802E-3,1.068982761E-3,-6.108472589E-3
3.811308281E0,3.206948051E-3,2.290677279E-3,-3.665083554E-3
3.821021146E0,3.206948051E-3,3.512371797E-3,-1.221694518E-3
3.830734792E0,3.206948051E-3,3.512371797E-3,-1.221694518E-3
3.840447552E0,1.985253533E-3,2.290677279E-3,1.221694518E-3
3.850159583E0,7.635590737E-4,2.290677279E-3,0.000000000E0
3.859872448E0,-4.581354442E-4,2.290677279E-3,0.000000000E0
3.869586042E0,-4.581354442E-4,2.290677279E-3,1.221694518E-3
3.879298802E0,7.635590737E-4,3.512371797E-3,0.000000000E0
3.889010833E0,3.206948051E-3,4.734066315E-3,0.000000000E0
3.898723698E0,4.428642802E-3,3.512371797E-3,2.443389036E-3
3.908437292E0,5.650337320E-3,3.512371797E-3,1.221694518E-3
3.918150052E0,3.206948051E-3,4.734066315E-3,2.443389036E-3
3.927862083E0,-4.581354442E-4,5.955760833E-3,2.443389036E-3
3.937574948E0,-4.581354442E-4,3.512371797E-3,1.221694518E-3
3.947288542E0,7.635590737E-4,-1.527118147E-4,2.443389036E-3
3.957001302E0,7.635590737E-4,-1.527118147E-4,4.886778072E-3
3.966713333E0,3.206948051E-3,2.290677279E-3,4.886778072E-3
3.976426198E0,3.206948051E-3,3.512371797E-3,4.886778072E-3
3.986139844E0,1.985253533E-3,2.290677279E-3,3.665083554E-3
3.995852604E0,7.635590737E-4,-1.527118147E-4,2.443389036E-3
4.005564635E0,7.635590737E-4,-1.374406274E-3,0.000000000E0
4.015277500E0,7.635590737E-4,-1.374406274E-3,0.000000000E0
4.024991094E0,-4.581354442E-4,-1.527118147E-4,-2.443389036E-3
4.034703854E0,7.635590737E-4,2.290677279E-3,-2.443389036E-3
4.044415885E0,7.635590737E-4,2.290677279E-3,-2.443389036E-3
4.054128750E0,7.635590737E-4,3.512371797E-3,-2.443389036E-3
4.063842344E0,-4.581354442E-4,2.290677279E-3,-2.443389036E-3
4.073555104E0,-4.581354442E-4,-1.527118147E-4,-2.443389036E-3
4.083267135E0,-4.581354442E-4,-1.374406274E-3,-2.443389036E-3
4.092980000E0,-4.581354442E-4,-2.596100792E-3,-2.443389036E-3
4.102693594E0,-4.581354442E-4,-3.817795310E-3,-1.221694518E-3
4.112406354E0,1.985253533E-3,-5.039489828E-3,0.000000000E0
4.122118385E0,4.428642802E-3,-5.039489828E-3,0.000000000E0
4.131831250E0,4.428642802E-3,-2.596100792E-3,1.221694518E-3
4.141544896E0,4.428642802E-3,-1.527118147E-4,3.665083554E-3
4.151257656E0,4.428642802E-3,-1.527118147E-4,2.443389036E-3
4.160969635E0,4.428642802E-3,-1.374406274E-3,3.665083554E-3
4.170682552E0,4.428642802E-3,-1.374406274E-3,4.886778072E-3
4.180396146E0,4.428642802E-3,-1.374406274E-3,6.108472589E-3
4.190108906E0,4.428642802E-3,-1.374406274E-3,6.108472589E-3
4.199820938E0,3.206948051E-3,-2.596100792E-3,6.108472589E-3
4.209533802E0,1.985253533E-3,-3.817795310E-3,7.330167107E-3
4.219247396E0,7.635590737E-4,-3.817795310E-3,6.108472589E-3
4.228960156E0,7.635590737E-4,-2.596100792E-3,4.886778072E-3
4.238672188E0,7.635590737E-4,-1.527118147E-4,3.665083554E-3
4.248385052E0,1.985253533E-3,2.290677279E-3,1.221694518E-3
4.258098646E0,3.206948051E-3,3.512371797E-3,0.000000000E0
4.267811406E0,3.206948051E-3,2.290677279E-3,-1.221694518E-3
4.277523438E0,3.206948051E-3,-1.527118147E-4,-1.221694518E-3
4.287236302E0,3.206948051E-3,-1.374406274E-3,0.000000000E0
4.296949896E0,1.985253533E-3,-2.596100792E-3,1.221694518E-3
4.306662656E0,-4.581354442E-4,-2.596100792E-3,1.221694518E-3
4.316374688E0,7.635590737E-4,-1.527118147E-4,0.000000000E0
4.326087552E0,1.985253533E-3,1.068982761E-3,-1.221694518E-3
4.335801198E0,3.206948051E-3,3.512371797E-3,-1.221694518E-3
4.345513958E0,5.650337320E-3,3.512371797E-3,-1.221694518E-3
4.355225990E0,5.650337320E-3,3.512371797E-3,0.000000000E0
4.364938854E0,5.650337320E-3,3.512371797E-3,1.221694518E-3
4.374652448E0,4.428642802E-3,3.512371797E-3,1.221694518E-3
4.384365208E0,3.206948051E-3,3.512371797E-3,2.443389036E-3
4.394077240E0,1.985253533E-3,3.512371797E-3,1.221694518E-3
4.403790104E0,7.635590737E-4,1.068982761E-3,1.221694518E-3
4.413503698E0,-4.581354442E-4,-1.527118147E-4,0.000000000E0
4.423216458E0,1.985253533E-3,2.290677279E-3,1.221694518E-3
4.432928490E0,1.985253533E-3,2.290677279E-3,1.221694518E-3
4.442641354E0,1.985253533E-3,-1.527118147E-4,3.665083554E-3
4.452354948E0,1.985253533E-3,1.068982761E-3,4.886778072E-3
4.462067708E0,1.985253533E-3,1.068982761E-3,4.886778072E-3
4.471779740E0,-4.581354442E-4,1.068982761E-3,4.886778072E-3
4.481492604E0,-4.581354442E-4,1.068982761E-3,3.665083554E-3
4.491206198E0,7.635590737E-4,2.290677279E-3,1.221694518E-3
4.500919063E0,-4.581354442E-4,1.068982761E-3,2.443389036E-3
4.510630990E0,7.635590737E-4,1.068982761E-3,0.000000000E0
4.520343854E0,7.635590737E-4,1.068982761E-3,-1.221694518E-3
4.530057500E0,7.635590737E-4,1.068982761E-3,-1.221694518E-3
4.539770260E0,7.635590737E-4,1.068982761E-3,0.000000000E0
4.549482292E0,1.985253533E-3,1.068982761E-3,0.000000000E0
4.559195156E0,1.985253533E-3,1.068982761E-3,0.000000000E0
4.568908750E0,1.985253533E-3,1.068982761E-3,0.000000000E0
4.578621510E0,-4.581354442E-4,2.290677279E-3,0.000000000E0
4.588333542E0,-1.679830020E-3,2.290677279E-3,-2.443389036E-3
4.598046406E0,-1.679830020E-3,-1.527118147E-4,-1.221694518E-3
4.607760000E0,-4.581354442E-4,-2.596100792E-3,-1.221694518E-3
4.617472760E0,7.635590737E-4,-1.527118147E-4,-1.221694518E-3
4.627184792E0,1.985253533E-3,3.512371797E-3,0.000000000E0
4.636897656E0,7.635590737E-4,4.734066315E-3,1.221694518E-3
4.646611250E0,-4.581354442E-4,3.512371797E-3,1.221694518E-3
4.656324010E0,-1.679830020E-3,2.290677279E-3,0.000000000E0
4.666036042E0,-4.581354442E-4,1.068982761E-3,1.221694518E-3
4.675748906E0,-1.679830020E-3,1.068982761E-3,1.221694518E-3
4.685462552E0,-4.581354442E-4,3.512371797E-3,2.443389036E-3
4.695175313E0,7.635590737E-4,2.290677279E-3,1.221694518E-3
4.704887344E0,7.635590737E-4,1.068982761E-3,1.221694518E-3
4.714600208E0,7.635590737E-4,-1.374406274E-3,0.000000000E0
4.724313802E0,7.635590737E-4,-3.817795310E-3,-1.221694518E-3
4.734026563E0,-1.679830020E-3,-5.039489828E-3,-1.221694518E-3
4.743738594E0,-4.123218823E-3,-5.039489828E-3,-1.221694518E-3
4.753451458E0,-4.123218823E-3,-5.039489828E-3,0.000000000E0
4.763165052E0,-4.123218823E-3,-6.261184346E-3,0.000000000E0
4.772877813E0,-2.901524538E-3,-6.261184346E-3,0.000000000E0
4.782589844E0,-4.581354442E-4,-5.039489828E-3,1.221694518E-3
4.792302708E0,-4.581354442E-4,-3.817795310E-3,1.221694518E-3
4.802016302E0,-4.581354442E-4,-3.817795310E-3,-1.221694518E-3
4.811729063E0,1.985253533E-3,-1.374406274E-3,-1.221694518E-3
4.821441094E0,1.985253533E-3,-1.527118147E-4,-2.443389036E-3
4.831153958E0,1.985253533E-3,1.068982761E-3,-3.665083554E-3
4.840867604E0,7.635590737E-4,1.068982761E-3,-3.665083554E-3
4.850580365E0,-4.581354442E-4,-1.527118147E-4,-3.665083554E-3
4.860292396E0,-1.679830020E-3,-1.374406274E-3,-3.665083554E-3
4.870005260E0,-2.901524538E-3,-1.374406274E-3,-3.665083554E-3
4.879718854E0,-1.679830020E-3,-2.596100792E-3,-2.443389036E-3
4.889431615E0,-1.679830020E-3,-2.596100792E-3,-1.221694518E-3
4.899143646E0,-1.679830020E-3,-2.596100792E-3,-1.221694518E-3
4.908856510E0,-4.581354442E-4,-2.596100792E-3,1.221694518E-3
4.918570104E0,-4.581354442E-4,-2.596100792E-3,1.221694518E-3
4.928282865E0,7.635590737E-4,-1.374406274E-3,2.443389036E-3
4.937994896E0,1.985253533E-3,-1.374406274E-3,2.443389036E-3
4.947707760E0,7.635590737E-4,-1.374406274E-3,4.886778072E-3
4.957421406E0,1.985253533E-3,-1.374406274E-3,3.665083554E-3
4.967134167E0,7.635590737E-4,-1.527118147E-4,6.108472589E-3
4.976846198E0,7.635590737E-4,1.068982761E-3,4.886778072E-3
4.986559063E0,7.635590737E-4,1.068982761E-3,4.886778072E-3
4.996272656E0,7.635590737E-4,-1.374406274E-3,4.886778072E-3
5.005985417E0,7.635590737E-4,-2.596100792E-3,2.443389036E-3
5.015697448E0,7.635590737E-4,-1.527118147E-4,2.443389036E-3
5.025410313E0,7.635590737E-4,-1.527118147E-4,2.443389036E-3
5.035123906E0,-1.679830020E-3,-1.527118147E-4,0.000000000E0
5.044836667E0,-2.901524538E-3,-1.527118147E-4,-1.221694518E-3
5.054548698E0,-2.901524538E-3,1.068982761E-3,-1.221694518E-3
5.064261563E0,-2.901524538E-3,1.068982761E-3,0.000000000E0
5.073975208E0,-2.901524538E-3,-1.374406274E-3,0.000000000E0
5.083687969E0,7.635590737E-4,-1.374406274E-3,-2.443389036E-3
5.093400000E0,1.985253533E-3,-1.374406274E-3,-4.886778072E-3
5.103112865E0,1.985253533E-3,-1.527118147E-4,-6.108472589E-3
5.112826458E0,-4.581354442E-4,-1.527118147E-4,-7.330167107E-3
5.122539219E0,-4.581354442E-4,-1.527118147E-4,-6.108472589E-3
5.132251250E0,-4.123218823E-3,-1.374406274E-3,-6.108472589E-3
5.141964115E0,-5.344913341E-3,-3.817795310E-3,-6.108472589E-3
5.151677760E0,-1.679830020E-3,-3.817795310E-3,-6.108472589E-3
5.161390521E0,7.635590737E-4,-2.596100792E-3,-7.330167107E-3
5.171102552E0,3.206948051E-3,-2.596100792E-3,-6.108472589E-3
5.180815417E0,5.650337320E-3,-1.374406274E-3,-4.886778072E-3
5.190529010E0,5.650337320E-3,-1.374406274E-3,-3.665083554E-3
5.200241771E0,3.206948051E-3,-1.527118147E-4,-2.443389036E-3
5.209953802E0,7.635590737E-4,-1.374406274E-3,-2.443389036E-3
5.219666667E0,-1.679830020E-3,-3.817795310E-3,-2.443389036E-3
5.229380313E0,-4.581354442E-4,-5.039489828E-3,0.000000000E0
5.239093073E0,-4.581354442E-4,-2.596100792E-3,2.443389036E-3
5.248805104E0,7.635590737E-4,1.068982761E-3,2.443389036E-3
5.258517969E0,-4.581354442E-4,3.512371797E-3,2.443389036E-3
5.268231563E0,7.635590737E-4,2.290677279E-3,1.221694518E-3
5.277944323E0,7.635590737E-4,1.068982761E-3,2.443389036E-3
5.287656354E0,7.635590737E-4,-1.527118147E-4,4.886778072E-3
5.297369219E0,7.635590737E-4,-1.374406274E-3,3.665083554E-3
5.307082865E0,-4.581354442E-4,-1.527118147E-4,4.886778072E-3
5.316795625E0,-1.679830020E-3,1.068982761E-3,6.108472589E-3
5.326507656E0,-2.901524538E-3,2.290677279E-3,6.108472589E-3
5.336220521E0,-4.123218823E-3,1.068982761E-3,6.108472589E-3
5.345934115E0,-5.344913341E-3,1.068982761E-3,4.886778072E-3
5.355646979E0,-5.344913341E-3,-1.527118147E-4,3.665083554E-3
5.365358906E0,-6.566607859E-3,-1.527118147E-4,4.886778072E-3
5.375071823E0,-4.123218823E-3,1.068982761E-3,4.886778072E-3
5.384785417E0,-1.679830020E-3,1.068982761E-3,1.221694518E-3
5.394498177E0,7.635590737E-4,1.068982761E-3,1.221694518E-3
5.404210208E0,7.635590737E-4,2.290677279E-3,1.221694518E-3
5.413923073E0,-4.581354442E-4,3.512371797E-3,1.221694518E-3
5.423636719E0,-2.901524538E-3,4.734066315E-3,0.000000000E0
5.433349479E0,-4.123218823E-3,3.512371797E-3,-1.221694518E-3
5.443061510E0,-5.344913341E-3,-1.527118147E-4,-1.221694518E-3
5.452774375E0,-2.901524538E-3,-1.374406274E-3,-2.443389036E-3
5.462487969E0,7.635590737E-4,-2.596100792E-3,-3.665083554E-3
5.472200833E0,1.985253533E-3,-1.374406274E-3,-4.886778072E-3
5.481912813E0,3.206948051E-3,1.068982761E-3,-6.108472589E-3
5.491625677E0,4.428642802E-3,-1.527118147E-4,-4.886778072E-3
5.501339271E0,1.985253533E-3,-1.374406274E-3,-3.665083554E-3
5.511052031E0,-4.581354442E-4,-1.374406274E-3,-1.221694518E-3
5.520764063E0,-4.581354442E-4,-1.374406274E-3,-1.221694518E-3
5.530476927E0,-4.581354442E-4,-1.374406274E-3,-1.221694518E-3
5.540190573E0,-4.581354442E-4,-1.374406274E-3,0.000000000E0
5.549903333E0,-4.581354442E-4,-1.374406274E-3,-1.221694518E-3
5.559615365E0,7.635590737E-4,-1.374406274E-3,-2.443389036E-3
5.569328229E0,7.635590737E-4,-1.527118147E-4,-1.221694518E-3
5.579041875E0,-4.581354442E-4,-1.374406274E-3,-3.665083554E-3
5.588754635E0,-4.581354442E-4,-1.374406274E-3,-3.665083554E-3
5.598466667E0,-4.581354442E-4,-1.374406274E-3,-2.443389036E-3
5.608179531E0,7.635590737E-4,-1.527118147E-4,-2.443389036E-3
5.617893177E0,7.635590737E-4,-1.374406274E-3,-2.443389036E-3
5.627605938E0,7.635590737E-4,-1.374406274E-3,-2.443389036E-3
5.637317969E0,-4.581354442E-4,-1.374406274E-3,-1.221694518E-3
5.647030833E0,-4.581354442E-4,-1.374406274E-3,-1.221694518E-3
5.656744427E0,-1.679830020E-3,-1.374406274E-3,1.221694518E-3
5.666457292E0,-1.679830020E-3,-1.374406274E-3,0.000000000E0
5.676169271E0,-1.679830020E-3,-1.527118147E-4,1.221694518E-3
5.685882135E0,-4.581354442E-4,-1.527118147E-4,3.665083554E-3
5.695595729E0,-4.581354442E-4,-1.527118147E-4,3.665083554E-3
5.705308594E0,7.635590737E-4,-1.527118147E-4,3.665083554E-3
5.715020573E0,1.985253533E-3,-1.527118147E-4,3.665083554E-3
5.724733438E0,7.635590737E-4,-1.374406274E-3,6.108472589E-3
5.734447031E0,-4.581354442E-4,-1.374406274E-3,6.108472589E-3
5.744159896E0,-4.581354442E-4,-1.374406274E-3,6.108472589E-3
5.753871875E0,-4.581354442E-4,-1.374406274E-3,4.886778072E-3
5.763584740E0,7.635590737E-4,1.068982761E-3,4.886778072E-3
5.773298333E0,3.206948051E-3,1.068982761E-3,4.886778072E-3
5.783011094E0,4.428642802E-3,2.290677279E-3,7.330167107E-3
5.792723177E0,3.206948051E-3,3.512371797E-3,7.330167107E-3
5.802436042E0,1.985253533E-3,4.734066315E-3,4.886778072E-3
5.812149635E0,7.635590737E-4,5.955760833E-3,3.665083554E-3
5.821862396E0,-1.679830020E-3,2.290677279E-3,3.665083554E-3
5.831574479E0,-1.679830020E-3,-1.374406274E-3,3.665083554E-3
5.841287344E0,-1.679830020E-3,-1.374406274E-3,4.886778072E-3
5.851000938E0,-4.581354442E-4,2.290677279E-3,3.665083554E-3
5.860713802E0,-4.581354442E-4,3.512371797E-3,3.665083554E-3
5.870425781E0,-4.581354442E-4,3.512371797E-3,2.443389036E-3
5.880138646E0,7.635590737E-4,2.290677279E-3,1.221694518E-3
5.889852240E0,1.985253533E-3,1.068982761E-3,0.000000000E0
5.899565104E0,7.635590737E-4,1.068982761E-3,-1.221694518E-3
5.909277083E0,7.635590737E-4,2.290677279E-3,-2.443389036E-3
5.918989948E0,-4.581354442E-4,3.512371797E-3,-2.443389036E-3
5.928703542E0,-1.679830020E-3,3.512371797E-3,-2.443389036E-3
5.938416406E0,-1.679830020E-3,1.068982761E-3,-1.221694518E-3
5.948128385E0,-1.679830020E-3,-1.527118147E-4,-2.443389036E-3
5.957841250E0,-2.901524538E-3,-1.374406274E-3,-3.665083554E-3
5.967554896E0,-4.123218823E-3,-1.527118147E-4,-3.665083554E-3
5.977267656E0,-4.123218823E-3,1.068982761E-3,-3.665083554E-3
5.986979688E0,-2.901524538E-3,1.068982761E-3,-2.443389036E-3
5.996692552E0,-2.901524538E-3,-1.374406274E-3,-1.221694518E-3
6.006406198E0,-1.679830020E-3,-3.817795310E-3,-2.443389036E-3
6.016118958E0,-1.679830020E-3,-3.817795310E-3,-1.221694518E-3
6.025830990E0,-1.679830020E-3,-3.817795310E-3,0.000000000E0
6.035543854E0,-1.679830020E-3,-2.596100792E-3,1.221694518E-3
6.045257500E0,-2.901524538E-3,-1.374406274E-3,1.221694518E-3
6.054970260E0,-1.679830020E-3,-1.527118147E-4,1.221694518E-3
6.064682292E0,-1.679830020E-3,-1.527118147E-4,3.665083554E-3
6.074395208E0,-1.679830020E-3,-1.527118147E-4,3.665083554E-3
6.084108802E0,-4.581354442E-4,1.068982761E-3,3.665083554E-3
6.093821563E0,-1.679830020E-3,2.290677279E-3,2.443389036E-3
6.103533594E0,-4.581354442E-4,-1.527118147E-4,1.221694518E-3
6.113246510E0,-1.679830020E-3,-1.374406274E-3,0.000000000E0
6.122960104E0,-1.679830020E-3,-1.374406274E-3,1.221694518E-3
6.132672969E0,-2.901524538E-3,-1.527118147E-4,1.221694518E-3
6.142384948E0,-1.679830020E-3,-1.527118147E-4,1.221694518E-3
6.152097813E0,-4.581354442E-4,1.068982761E-3,2.443389036E-3
6.161811406E0,-4.581354442E-4,1.068982761E-3,1.221694518E-3
6.171524271E0,7.635590737E-4,1.068982761E-3,0.000000000E0
6.181236250E0,7.635590737E-4,-1.527118147E-4,-2.443389036E-3
6.190949115E0,-4.581354442E-4,-1.527118147E-4,-3.665083554E-3
6.200662760E0,-4.581354442E-4,1.068982761E-3,-4.886778072E-3
6.210375521E0,-1.679830020E-3,1.068982761E-3,-6.108472589E-3
6.220087552E0,-1.679830020E-3,-1.374406274E-3,-4.886778072E-3
6.229800417E0,-4.581354442E-4,-1.374406274E-3,-3.665083554E-3
6.239514063E0,-4.581354442E-4,-1.374406274E-3,-2.443389036E-3
6.249226823E0,-4.581354442E-4,-1.527118147E-4,-1.221694518E-3
6.258938854E0,-1.679830020E-3,-1.527118147E-4,-1.221694518E-3
6.268651771E0,-4.123218823E-3,-1.374406274E-3,0.000000000E0
6.278365365E0,-4.123218823E-3,-1.527118147E-4,2.443389036E-3
6.288078125E0,-4.123218823E-3,-1.527118147E-4,1.221694518E-3
6.297790156E0,-4.581354442E-4,-1.527118147E-4,0.000000000E0
6.307503073E0,7.635590737E-4,-1.527118147E-4,0.000000000E0
6.317216667E0,7.635590737E-4,-1.527118147E-4,0.000000000E0
6.326929531E0,7.635590737E-4,-1.527118147E-4,1.221694518E-3
6.336641510E0,7.635590737E-4,-1.527118147E-4,1.221694518E-3
6.346354375E0,7.635590737E-4,-1.374406274E-3,2.443389036E-3
6.356068021E0,-1.679830020E-3,-1.527118147E-4,2.443389036E-3
6.365780781E0,-1.679830020E-3,1.068982761E-3,2.443389036E-3
6.375492813E0,-4.581354442E-4,1.068982761E-3,1.221694518E-3
6.385205677E0,7.635590737E-4,1.068982761E-3,2.443389036E-3
6.394919323E0,3.206948051E-3,1.068982761E-3,2.443389036E-3
6.404632083E0,5.650337320E-3,2.290677279E-3,2.443389036E-3
6.414344115E0,4.428642802E-3,1.068982761E-3,1.221694518E-3
6.424057031E0,7.635590737E-4,2.290677279E-3,0.000000000E0
6.433770625E0,-2.901524538E-3,-1.527118147E-4,0.000000000E0
6.443483385E0,-2.901524538E-3,-2.596100792E-3,-1.221694518E-3
6.453195417E0,-2.901524538E-3,-2.596100792E-3,0.000000000E0
6.462908333E0,-1.679830020E-3,-1.527118147E-4,0.000000000E0
6.472621927E0,-4.581354442E-4,1.068982761E-3,0.000000000E0
6.482334792E0,-4.581354442E-4,1.068982761E-3,1.221694518E-3
6.492046771E0,-4.581354442E-4,-1.527118147E-4,-1.221694518E-3
6.501759635E0,7.635590737E-4,-1.527118147E-4,-1.221694518E-3
6.511473281E0,7.635590737E-4,-1.527118147E-4,-1.221694518E-3
6.521186042E0,7.635590737E-4,1.068982761E-3,-2.443389036E-3
6.530898073E0,-4.581354442E-4,3.512371797E-3,-2.443389036E-3
6.540610938E0,-1.679830020E-3,3.512371797E-3,-1.221694518E-3
6.550324583E0,-1.679830020E-3,2.290677279E-3,-1.221694518E-3
6.560037344E0,-2.901524538E-3,-1.527118147E-4,-2.443389036E-3
6.569749375E0,-4.123218823E-3,1.068982761E-3,-2.443389036E-3
6.579462292E0,-2.901524538E-3,3.512371797E-3,-3.665083554E-3
6.589175885E0,-2.901524538E-3,3.512371797E-3,-4.886778072E-3
6.598888646E0,-4.581354442E-4,3.512371797E-3,-4.886778072E-3
6.608600729E0,7.635590737E-4,3.512371797E-3,-3.665083554E-3
6.618313594E0,7.635590737E-4,2.290677279E-3,-3.665083554E-3
6.628027188E0,-4.581354442E-4,1.068982761E-3,-3.665083554E-3
6.637740052E0,-4.581354442E-4,1.068982761E-3,-3.665083554E-3
6.647452031E0,-1.679830020E-3,1.068982761E-3,-4.886778072E-3
6.657164896E0,-1.679830020E-3,2.290677279E-3,-3.665083554E-3
6.666878542E0,-1.679830020E-3,2.290677279E-3,-2.443389036E-3
6.676591302E0,-4.581354442E-4,2.290677279E-3,-2.443389036E-3
6.686303333E0,7.635590737E-4,-1.527118147E-4,-1.221694518E-3
6.696016198E0,7.635590737E-4,-1.527118147E-4,-1.221694518E-3
6.705729844E0,-4.581354442E-4,1.068982761E-3,-1.221694518E-3
6.715442604E0,-1.679830020E-3,2.290677279E-3,-2.443389036E-3
6.725154688E0,-4.581354442E-4,2.290677279E-3,-3.665083554E-3
6.734867552E0,-4.581354442E-4,3.512371797E-3,-3.665083554E-3
6.744581146E0,7.635590737E-4,4.734066315E-3,-2.443389036E-3
6.754294010E0,1.985253533E-3,5.955760833E-3,-4.886778072E-3
6.764005990E0,1.985253533E-3,7.177455351E-3,-2.443389036E-3
6.773718854E0,1.985253533E-3,5.955760833E-3,-2.443389036E-3
6.783432500E0,1.985253533E-3,3.512371797E-3,-1.221694518E-3
6.793145260E0,7.635590737E-4,4.734066315E-3,0.000000000E0
6.802857292E0,7.635590737E-4,4.734066315E-3,0.000000000E0
6.812570156E0,-4.581354442E-4,2.290677279E-3,1.221694518E-3
6.822283802E0,-1.679830020E-3,-1.527118147E-4,1.221694518E-3
6.831996563E0,-1.679830020E-3,-2.596100792E-3,2.443389036E-3
6.841708594E0,-4.581354442E-4,-2.596100792E-3,1.221694518E-3
6.851421510E0,7.635590737E-4,-1.374406274E-3,2.443389036E-3
6.861135104E0,7.635590737E-4,-1.374406274E-3,4.886778072E-3
6.870847969E0,1.985253533E-3,-2.596100792E-3,4.886778072E-3
6.880559948E0,3.206948051E-3,-2.596100792E-3,6.108472589E-3
6.890272813E0,5.650337320E-3,-1.374406274E-3,7.330167107E-3
6.899986458E0,4.428642802E-3,-1.374406274E-3,7.330167107E-3
6.909699219E0,1.985253533E-3,-1.374406274E-3,8.551862091E-3
6.919411250E0,7.635590737E-4,-1.374406274E-3,7.330167107E-3
6.929124115E0,-4.581354442E-4,-2.596100792E-3,7.330167107E-3
6.938837760E0,-1.679830020E-3,-1.374406274E-3,8.551862091E-3
6.948550521E0,-1.679830020E-3,2.290677279E-3,6.108472589E-3
6.958262552E0,-4.581354442E-4,4.734066315E-3,4.886778072E-3
6.967975469E0,7.635590737E-4,7.177455351E-3,3.665083554E-3
6.977689063E0,4.428642802E-3,7.177455351E-3,1.221694518E-3
6.987401823E0,4.428642802E-3,5.955760833E-3,1.221694518E-3
6.997113906E0,5.650337320E-3,5.955760833E-3,0.000000000E0
7.006826771E0,4.428642802E-3,3.512371797E-3,0.000000000E0
7.016540365E0,7.635590737E-4,-1.527118147E-4,0.000000000E0
7.026253229E0,7.635590737E-4,-1.374406274E-3,1.221694518E-3
7.035965208E0,-4.581354442E-4,1.068982761E-3,2.443389036E-3
7.045678073E0,-2.901524538E-3,3.512371797E-3,2.443389036E-3
7.055391719E0,-4.123218823E-3,1.068982761E-3,0.000000000E0
7.065104479E0,-2.901524538E-3,-3.817795310E-3,-1.221694518E-3
7.074816510E0,-4.581354442E-4,-5.039489828E-3,0.000000000E0
7.084529427E0,1.985253533E-3,-3.817795310E-3,1.221694518E-3
7.094243021E0,3.206948051E-3,-1.527118147E-4,0.000000000E0
7.103955781E0,4.428642802E-3,-2.596100792E-3,0.000000000E0
7.113667865E0,4.428642802E-3,-3.817795310E-3,0.000000000E0
7.123380729E0,3.206948051E-3,-5.039489828E-3,2.443389036E-3
7.133094323E0,1.985253533E-3,-5.039489828E-3,2.443389036E-3
7.142807188E0,-4.581354442E-4,-5.039489828E-3,3.665083554E-3
7.152519167E0,-4.581354442E-4,-3.817795310E-3,4.886778072E-3
7.162232031E0,7.635590737E-4,-2.596100792E-3,2.443389036E-3
7.171945677E0,7.635590737E-4,-2.596100792E-3,1.221694518E-3
7.181658438E0,-4.581354442E-4,-1.374406274E-3,1.221694518E-3
7.191370469E0,-4.581354442E-4,-2.596100792E-3,0.000000000E0
7.201083385E0,-1.679830020E-3,-2.596100792E-3,-1.221694518E-3
7.210796979E0,-2.901524538E-3,-2.596100792E-3,0.000000000E0
7.220509740E0,-2.901524538E-3,-2.596100792E-3,0.000000000E0
7.230221823E0,-4.581354442E-4,-3.817795310E-3,0.000000000E0
7.239934688E0,-4.581354442E-4,-3.817795310E-3,3.665083554E-3
7.249648281E0,-1.679830020E-3,-1.374406274E-3,3.665083554E-3
7.259361146E0,-4.123218823E-3,1.068982761E-3,3.665083554E-3
7.269073125E0,-4.123218823E-3,-1.527118147E-4,2.443389036E-3
7.278785990E0,-4.123218823E-3,-1.374406274E-3,3.665083554E-3
7.288499635E0,-4.123218823E-3,-1.374406274E-3,4.886778072E-3
7.298212396E0,-4.123218823E-3,-1.527118147E-4,3.665083554E-3
7.307924427E0,-2.901524538E-3,1.068982761E-3,3.665083554E-3
7.317637344E0,-1.679830020E-3,-1.374406274E-3,2.443389036E-3
7.327350938E0,-2.901524538E-3,-3.817795310E-3,2.443389036E-3
7.337063698E0,-2.901524538E-3,-5.039489828E-3,1.221694518E-3
7.346775781E0,-2.901524538E-3,-5.039489828E-3,2.443389036E-3
7.356488646E0,-2.901524538E-3,-3.817795310E-3,3.665083554E-3
7.366202240E0,-1.679830020E-3,-1.527118147E-4,3.665083554E-3
7.375915104E0,7.635590737E-4,1.068982761E-3,2.443389036E-3
7.385627083E0,7.635590737E-4,3.512371797E-3,2.443389036E-3
7.395339948E0,7.635590737E-4,3.512371797E-3,0.000000000E0
7.405053594E0,1.985253533E-3,3.512371797E-3,-1.221694518E-3
7.414766354E0,7.635590737E-4,2.290677279E-3,-1.221694518E-3
7.424478385E0,-4.581354442E-4,1.068982761E-3,0.000000000E0
7.434191302E0,-1.679830020E-3,-1.374406274E-3,0.000000000E0
7.443904896E0,-2.901524538E-3,-3.817795310E-3,-1.221694518E-3
7.453617656E0,-4.123218823E-3,-5.039489828E-3,-3.665083554E-3
7.463329740E0,-2.901524538E-3,-3.817795310E-3,-4.886778072E-3
7.473042604E0,-1.679830020E-3,-3.817795310E-3,-4.886778072E-3
7.482756198E0,-4.581354442E-4,-2.596100792E-3,-4.886778072E-3
7.492469063E0,7.635590737E-4,-2.596100792E-3,-2.443389036E-3
7.502181042E0,1.985253533E-3,-3.817795310E-3,0.000000000E0
7.511893906E0,1.985253533E-3,-6.261184346E-3,0.000000000E0
7.521607552E0,-4.581354442E-4,-7.482878864E-3,2.443389036E-3
7.531320313E0,-1.679830020E-3,-7.482878864E-3,2.443389036E-3
7.541032344E0,-4.123218823E-3,-7.482878864E-3,2.443389036E-3
7.550745260E0,-4.123218823E-3,-6.261184346E-3,3.665083554E-3
7.560458854E0,-2.901524538E-3,-3.817795310E-3,2.443389036E-3
7.570171615E0,-4.581354442E-4,-1.527118147E-4,2.443389036E-3
7.579883698E0,7.635590737E-4,1.068982761E-3,1.221694518E-3
7.589596563E0,1.985253533E-3,1.068982761E-3,1.221694518E-3
7.599310208E0,1.985253533E-3,1.068982761E-3,1.221694518E-3
7.609022969E0,7.635590737E-4,-1.527118147E-4,1.221694518E-3
7.618735000E0,7.635590737E-4,-1.374406274E-3,1.221694518E-3
7.628447865E0,-1.679830020E-3,-5.039489828E-3,2.443389036E-3
7.638161510E0,-2.901524538E-3,-5.039489828E-3,2.443389036E-3
7.647874271E0,7.635590737E-4,-2.596100792E-3,2.443389036E-3
7.657586354E0,1.985253533E-3,-1.374406274E-3,1.221694518E-3
7.667299219E0,4.428642802E-3,-1.374406274E-3,1.221694518E-3
7.677012813E0,6.872031838E-3,-1.374406274E-3,0.000000000E0
7.686725677E0,5.650337320E-3,-1.527118147E-4,-2.443389036E-3
7.696437656E0,4.428642802E-3,1.068982761E-3,-3.665083554E-3
7.706150521E0,3.206948051E-3,-1.374406274E-3,-3.665083554E-3
7.715864167E0,1.985253533E-3,-6.261184346E-3,-1.221694518E-3
7.725576927E0,7.635590737E-4,-8.704573847E-3,0.000000000E0
7.735288958E0,7.635590737E-4,-6.261184346E-3,1.221694518E-3
7.745001875E0,-4.581354442E-4,-3.817795310E-3,2.443389036E-3
7.754715469E0,-1.679830020E-3,-2.596100792E-3,1.221694518E-3
7.764428333E0,-4.581354442E-4,-2.596100792E-3,-1.221694518E-3
7.774140313E0,7.635590737E-4,-3.817795310E-3,-1.221694518E-3
7.783853177E0,3.206948051E-3,-6.261184346E-3,-2.443389036E-3
7.793566823E0,6.872031838E-3,-8.704573847E-3,-2.443389036E-3
7.803279583E0,8.093725890E-3,-1.114796288E-2,-1.221694518E-3
7.812991615E0,6.872031838E-3,-1.481304597E-2,0.000000000E0
7.822704531E0,5.650337320E-3,-1.603474095E-2,2.443389036E-3
7.832418125E0,1.985253533E-3,-1.481304597E-2,6.108472589E-3
7.842130990E0,-1.679830020E-3,-1.114796288E-2,7.330167107E-3
7.851842969E0,-2.901524538E-3,-7.482878864E-3,8.551862091E-3
7.861555833E0,-4.123218823E-3,-5.039489828E-3,8.551862091E-3
7.871269479E0,-1.679830020E-3,-6.261184346E-3,8.551862091E-3
7.880982240E0,7.635590737E-4,-9.926267900E-3,7.330167107E-3
7.890694271E0,1.985253533E-3,-1.236965694E-2,6.108472589E-3
7.900407188E0,4.428642802E-3,-1.114796288E-2,4.886778072E-3
7.910120781E0,3.206948051E-3,-7.482878864E-3,6.108472589E-3
7.919833646E0,1.985253533E-3,-5.039489828E-3,7.330167107E-3
7.929545625E0,7.635590737E-4,-5.039489828E-3,7.330167107E-3
7.939258490E0,-1.679830020E-3,-7.482878864E-3,7.330167107E-3
7.948972135E0,-2.901524538E-3,-8.704573847E-3,7.330167107E-3
7.958684896E0,-1.679830020E-3,-8.704573847E-3,3.665083554E-3
7.968396927E0,7.635590737E-4,-6.261184346E-3,1.221694518E-3
7.978109844E0,1.985253533E-3,-3.817795310E-3,0.000000000E0
7.987823438E0,3.206948051E-3,-1.527118147E-4,-1.221694518E-3
7.997536302E0,3.206948051E-3,1.068982761E-3,-2.443389036E-3
8.007248281E0,3.206948051E-3,3.512371797E-3,-1.221694518E-3
8.016961146E0,3.206948051E-3,3.512371797E-3,-1.221694518E-3
8.026674792E0,3.206948051E-3,2.290677279E-3,-1.221694518E-3
8.036387552E0,4.428642802E-3,1.068982761E-3,0.000000000E0
8.046099583E0,3.206948051E-3,1.068982761E-3,1.221694518E-3
8.055812500E0,1.985253533E-3,1.068982761E-3,0.000000000E0
8.065526094E0,3.206948051E-3,-1.527118147E-4,0.000000000E0
8.075238854E0,4.428642802E-3,-1.374406274E-3,-1.221694518E-3
8.084950938E0,4.428642802E-3,1.068982761E-3,1.221694518E-3
8.094663802E0,4.428642802E-3,-1.527118147E-4,1.221694518E-3
8.104377448E0,4.428642802E-3,-1.374406274E-3,2.443389036E-3
8.114090208E0,3.206948051E-3,-3.817795310E-3,3.665083554E-3
8.123802240E0,1.985253533E-3,-6.261184346E-3,3.665083554E-3
8.133515156E0,7.635590737E-4,-7.482878864E-3,3.665083554E-3
8.143228750E0,-4.581354442E-4,-6.261184346E-3,3.665083554E-3
8.152941615E0,-1.679830020E-3,-6.261184346E-3,4.886778072E-3
8.162653594E0,-4.581354442E-4,-6.261184346E-3,4.886778072E-3
8.172366458E0,7.635590737E-4,-6.261184346E-3,4.886778072E-3
8.182080104E0,7.635590737E-4,-6.261184346E-3,3.665083554E-3
8.191792865E0,1.985253533E-3,-6.261184346E-3,2.443389036E-3
8.201504896E0,4.428642802E-3,-3.817795310E-3,3.665083554E-3
8.211217813E0,4.428642802E-3,-3.817795310E-3,4.886778072E-3
8.220931406E0,4.428642802E-3,-3.817795310E-3,3.665083554E-3
8.230644271E0,3.206948051E-3,-2.596100792E-3,3.665083554E-3
8.240356250E0,3.206948051E-3,-1.374406274E-3,3.665083554E-3
8.250069115E0,-4.581354442E-4,-1.374406274E-3,3.665083554E-3
8.259782760E0,-4.581354442E-4,-3.817795310E-3,3.665083554E-3
8.269495521E0,7.635590737E-4,-5.039489828E-3,2.443389036E-3
8.279207552E0,7.635590737E-4,-5.039489828E-3,1.221694518E-3
8.288920469E0,1.985253533E-3,-3.817795310E-3,0.000000000E0
8.298634063E0,3.206948051E-3,-2.596100792E-3,-1.221694518E-3
8.308346927E0,3.206948051E-3,-1.374406274E-3,-1.221694518E-3
8.318058906E0,3.206948051E-3,-1.527118147E-4,-1.221694518E-3
8.327771771E0,3.206948051E-3,-1.527118147E-4,1.221694518E-3
8.337485417E0,3.206948051E-3,-1.374406274E-3,2.443389036E-3
8.347198177E0,1.985253533E-3,-1.374406274E-3,1.221694518E-3
8.356910208E0,7.635590737E-4,-2.596100792E-3,0.000000000E0
8.366623125E0,7.635590737E-4,-3.817795310E-3,0.000000000E0
8.376336719E0,1.985253533E-3,-5.039489828E-3,1.221694518E-3
8.386049583E0,1.985253533E-3,-2.596100792E-3,0.000000000E0
8.395761563E0,3.206948051E-3,1.068982761E-3,-1.221694518E-3
8.405474427E0,1.985253533E-3,3.512371797E-3,0.000000000E0
8.415188073E0,7.635590737E-4,2.290677279E-3,0.000000000E0
8.424900833E0,7.635590737E-4,2.290677279E-3,1.221694518E-3
8.434612865E0,1.985253533E-3,2.290677279E-3,1.221694518E-3
8.444325781E0,1.985253533E-3,3.512371797E-3,0.000000000E0
8.454039375E0,7.635590737E-4,5.955760833E-3,0.000000000E0
8.463752240E0,-4.581354442E-4,5.955760833E-3,-1.221694518E-3
8.473464219E0,-1.679830020E-3,4.734066315E-3,-1.221694518E-3
8.483177083E0,-2.901524538E-3,4.734066315E-3,0.000000000E0
8.492890729E0,-2.901524538E-3,3.512371797E-3,-1.221694518E-3
8.502603490E0,-2.901524538E-3,4.734066315E-3,-2.443389036E-3
8.512315573E0,-2.901524538E-3,7.177455351E-3,-2.443389036E-3
8.522028438E0,-2.901524538E-3,8.399149403E-3,-1.221694518E-3
8.531742083E0,-4.581354442E-4,8.399149403E-3,0.000000000E0
8.541454844E0,-4.581354442E-4,8.399149403E-3,0.000000000E0
8.551166875E0,7.635590737E-4,8.399149403E-3,-1.221694518E-3
8.560879792E0,-4.581354442E-4,4.734066315E-3,-1.221694518E-3
8.570593385E0,-4.581354442E-4,1.068982761E-3,-1.221694518E-3
8.580306146E0,7.635590737E-4,-5.039489828E-3,-2.443389036E-3
8.590018229E0,1.985253533E-3,-8.704573847E-3,-3.665083554E-3
8.599731094E0,3.206948051E-3,-9.926267900E-3,-4.886778072E-3
8.609444740E0,1.985253533E-3,-6.261184346E-3,-4.886778072E-3
8.619157500E0,-2.901524538E-3,-1.527118147E-4,-4.886778072E-3
8.628869531E0,-4.123218823E-3,8.399149403E-3,-6.108472589E-3
8.638582448E0,-2.901524538E-3,1.328592747E-2,-4.886778072E-3
8.648296042E0,-4.581354442E-4,1.084253844E-2,-3.665083554E-3
8.658008906E0,3.206948051E-3,3.512371797E-3,-2.443389036E-3
8.667720885E0,3.206948051E-3,1.068982761E-3,-1.221694518E-3
8.677433750E0,7.635590737E-4,1.068982761E-3,0.000000000E0
8.687147396E0,-4.581354442E-4,2.290677279E-3,0.000000000E0
8.696860156E0,-4.123218823E-3,2.290677279E-3,0.000000000E0
8.706572188E0,-4.123218823E-3,4.734066315E-3,1.221694518E-3
8.716285104E0,-2.901524538E-3,5.955760833E-3,1.221694518E-3
8.725998698E0,-1.679830020E-3,5.955760833E-3,1.221694518E-3
8.735711563E0,-4.581354442E-4,4.734066315E-3,1.221694518E-3
8.745423542E0,7.635590737E-4,1.068982761E-3,1.221694518E-3
8.755136406E0,7.635590737E-4,-1.527118147E-4,-1.221694518E-3
8.764850052E0,3.206948051E-3,-1.527118147E-4,0.000000000E0
8.774562813E0,1.985253533E-3,-1.527118147E-4,2.443389036E-3
8.784274896E0,1.985253533E-3,1.068982761E-3,1.221694518E-3
8.793987760E0,1.985253533E-3,2.290677279E-3,2.443389036E-3
8.803701406E0,3.206948051E-3,3.512371797E-3,3.665083554E-3
8.813414167E0,3.206948051E-3,4.734066315E-3,3.665083554E-3
8.823126198E0,1.985253533E-3,3.512371797E-3,3.665083554E-3
8.832839115E0,1.985253533E-3,2.290677279E-3,3.665083554E-3
8.842552708E0,4.428642802E-3,1.068982761E-3,1.221694518E-3
8.852265573E0,5.650337320E-3,2.290677279E-3,1.221694518E-3
8.861977552E0,6.872031838E-3,4.734066315E-3,0.000000000E0
8.871690417E0,6.872031838E-3,5.955760833E-3,-1.221694518E-3
8.881404063E0,6.872031838E-3,8.399149403E-3,0.000000000E0
8.891116823E0,6.872031838E-3,9.620844387E-3,1.221694518E-3
8.900828906E0,6.872031838E-3,8.399149403E-3,3.665083554E-3
8.910541771E0,5.650337320E-3,8.399149403E-3,4.886778072E-3
8.920255417E0,5.650337320E-3,7.177455351E-3,3.665083554E-3
8.929968177E0,6.872031838E-3,5.955760833E-3,3.665083554E-3
8.939680208E0,5.650337320E-3,4.734066315E-3,4.886778072E-3
8.949393125E0,5.650337320E-3,3.512371797E-3,3.665083554E-3
8.959106719E0,5.650337320E-3,-1.527118147E-4,3.665083554E-3
8.968819583E0,4.428642802E-3,-1.527118147E-4,2.443389036E-3
8.978531563E0,1.985253533E-3,-1.527118147E-4,0.000000000E0
8.988244427E0,-4.581354442E-4,-1.374406274E-3,-1.221694518E-3
8.997958073E0,-1.679830020E-3,-1.374406274E-3,-1.221694518E-3
9.007670833E0,-4.581354442E-4,2.290677279E-3,-3.665083554E-3
9.017382917E0,-1.679830020E-3,7.177455351E-3,-2.443389036E-3
9.027095781E0,-4.123218823E-3,8.399149403E-3,-3.665083554E-3
9.036809427E0,-2.901524538E-3,7.177455351E-3,-4.886778072E-3
9.046522188E0,-2.901524538E-3,3.512371797E-3,-6.108472589E-3
9.056234219E0,-2.901524538E-3,-1.527118147E-4,-7.330167107E-3
9.065947135E0,-2.901524538E-3,-1.374406274E-3,-6.108472589E-3
9.075660729E0,-2.901524538E-3,-1.374406274E-3,-7.330167107E-3
9.085373594E0,-2.901524538E-3,-1.527118147E-4,-4.886778072E-3
9.095085573E0,-5.344913341E-3,1.068982761E-3,-2.443389036E-3
9.104798438E0,-5.344913341E-3,1.068982761E-3,-1.221694518E-3
9.114512083E0,-6.566607859E-3,-1.527118147E-4,1.221694518E-3
9.124224844E0,-6.566607859E-3,-1.527118147E-4,2.443389036E-3
9.133936927E0,-5.344913341E-3,-1.527118147E-4,3.665083554E-3
9.143649792E0,-4.123218823E-3,2.290677279E-3,3.665083554E-3
9.153363438E0,-2.901524538E-3,3.512371797E-3,3.665083554E-3
9.163076198E0,7.635590737E-4,3.512371797E-3,3.665083554E-3
9.172788229E0,1.985253533E-3,3.512371797E-3,4.886778072E-3
9.182501146E0,1.985253533E-3,3.512371797E-3,4.886778072E-3
9.192214740E0,7.635590737E-4,3.512371797E-3,4.886778072E-3
9.201927604E0,-4.581354442E-4,2.290677279E-3,4.886778072E-3
9.211639583E0,-1.679830020E-3,1.068982761E-3,3.665083554E-3
9.221352448E0,-1.679830020E-3,-1.527118147E-4,1.221694518E-3
9.231066094E0,-4.581354442E-4,-1.527118147E-4,-1.221694518E-3
9.240778854E0,-4.581354442E-4,1.068982761E-3,-1.221694518E-3
9.250490938E0,-1.679830020E-3,1.068982761E-3,-1.221694518E-3
9.260203802E0,-2.901524538E-3,-1.527118147E-4,-1.221694518E-3
9.269917448E0,-4.123218823E-3,-2.596100792E-3,-2.443389036E-3
9.279630208E0,-4.123218823E-3,-2.596100792E-3,-1.221694518E-3
9.289342240E0,-4.123218823E-3,-1.374406274E-3,-1.221694518E-3
9.299055156E0,-2.901524538E-3,-1.374406274E-3,-2.443389036E-3
9.308768750E0,-2.901524538E-3,-1.374406274E-3,-3.665083554E-3
9.318481615E0,-4.581354442E-4,-1.374406274E-3,-2.443389036E-3
9.328193594E0,-1.679830020E-3,-2.596100792E-3,-1.221694518E-3
9.337906510E0,-1.679830020E-3,-1.374406274E-3,0.000000000E0
9.347620104E0,-2.901524538E-3,-1.374406274E-3,0.000000000E0
9.357332969E0,-2.901524538E-3,-2.596100792E-3,1.221694518E-3
9.367044948E0,-2.901524538E-3,-1.527118147E-4,2.443389036E-3
9.376757813E0,-2.901524538E-3,-1.374406274E-3,2.443389036E-3
9.386471458E0,-2.901524538E-3,-1.374406274E-3,2.443389036E-3
9.396184219E0,-2.901524538E-3,-1.374406274E-3,3.665083554E-3
9.405896302E0,-4.123218823E-3,-1.374406274E-3,2.443389036E-3
9.415609167E0,-4.123218823E-3,-2.596100792E-3,0.000000000E0
9.425322813E0,-4.123218823E-3,-2.596100792E-3,0.000000000E0
9.435035573E0,-2.901524538E-3,-3.817795310E-3,-1.221694518E-3
9.444747604E0,-1.679830020E-3,-3.817795310E-3,0.000000000E0
9.454460521E0,-4.123218823E-3,-2.596100792E-3,0.000000000E0
9.464174115E0,-5.344913341E-3,-1.374406274E-3,0.000000000E0
9.473886979E0,-6.566607859E-3,-1.374406274E-3,0.000000000E0
9.483598958E0,-6.566607859E-3,-1.374406274E-3,-1.221694518E-3
9.493311875E0,-5.344913341E-3,-2.596100792E-3,-1.221694518E-3
9.503025469E0,-2.901524538E-3,-2.596100792E-3,-2.443389036E-3
9.512738333E0,-4.581354442E-4,-2.596100792E-3,-2.443389036E-3
9.522450313E0,7.635590737E-4,-2.596100792E-3,-2.443389036E-3
9.532163177E0,1.985253533E-3,-2.596100792E-3,0.000000000E0
9.541876823E0,3.206948051E-3,-1.374406274E-3,1.221694518E-3
9.551589583E0,3.206948051E-3,-1.527118147E-4,2.443389036E-3
9.561301667E0,3.206948051E-3,-1.527118147E-4,2.443389036E-3
9.571014531E0,7.635590737E-4,1.068982761E-3,1.221694518E-3
9.580728177E0,-4.581354442E-4,1.068982761E-3,1.221694518E-3
9.590440938E0,7.635590737E-4,-2.596100792E-3,-1.221694518E-3
9.600152969E0,7.635590737E-4,-1.374406274E-3,-1.221694518E-3
9.609865885E0,1.985253533E-3,-1.527118147E-4,0.000000000E0
9.619579479E0,1.985253533E-3,2.290677279E-3,0.000000000E0
9.629292344E0,1.985253533E-3,2.290677279E-3,1.221694518E-3
9.639004323E0,1.985253533E-3,1.068982761E-3,1.221694518E-3
9.648717240E0,1.985253533E-3,1.068982761E-3,1.221694518E-3
9.658430833E0,1.985253533E-3,2.290677279E-3,2.443389036E-3
9.668143698E0,1.985253533E-3,1.068982761E-3,1.221694518E-3
9.677855677E0,1.985253533E-3,2.290677279E-3,2.443389036E-3
9.687568542E0,1.985253533E-3,1.068982761E-3,4.886778072E-3
9.697282188E0,3.206948051E-3,-1.374406274E-3,6.108472589E-3
9.706994948E0,4.428642802E-3,-2.596100792E-3,9.773556143E-3
9.716707031E0,4.428642802E-3,-2.596100792E-3,1.099525020E-2
9.726419896E0,3.206948051E-3,-2.596100792E-3,1.221694518E-2
9.736133542E0,3.206948051E-3,-1.527118147E-4,1.466033421E-2
9.745846302E0,7.635590737E-4,1.068982761E-3,1.710372418E-2
9.755558333E0,7.635590737E-4,-1.527118147E-4,1.832541823E-2
9.765271250E0,7.635590737E-4,-2.596100792E-3,1.954711229E-2
9.774984896E0,3.206948051E-3,-1.374406274E-3,1.954711229E-2
9.784697656E0,3.206948051E-3,-1.527118147E-4,1.832541823E-2
9.794409688E0,3.206948051E-3,2.290677279E-3,1.588202827E-2
9.804122604E0,1.985253533E-3,4.734066315E-3,1.221694518E-2
9.813836198E0,3.206948051E-3,5.955760833E-3,7.330167107E-3
9.823549063E0,3.206948051E-3,7.177455351E-3,3.665083554E-3
9.833261042E0,3.206948051E-3,8.399149403E-3,1.221694518E-3
9.842973958E0,1.985253533E-3,5.955760833E-3,-1.221694518E-3
9.852687552E0,1.985253533E-3,4.734066315E-3,-1.221694518E-3
9.862400417E0,7.635590737E-4,3.512371797E-3,-2.443389036E-3
9.872112396E0,7.635590737E-4,2.290677279E-3,-3.665083554E-3
9.881825260E0,7.635590737E-4,2.290677279E-3,-4.886778072E-3
9.891538906E0,-4.581354442E-4,2.290677279E-3,-3.665083554E-3
9.901251667E0,-1.679830020E-3,1.068982761E-3,-4.886778072E-3
9.910963750E0,-1.679830020E-3,2.290677279E-3,-6.108472589E-3
9.920676615E0,-4.581354442E-4,3.512371797E-3,-6.108472589E-3
9.930390260E0,7.635590737E-4,3.512371797E-3,-6.108472589E-3
9.940103021E0,7.635590737E-4,1.068982761E-3,-6.108472589E-3
9.949815052E0,7.635590737E-4,1.068982761E-3,-6.108472589E-3
9.959527969E0,-4.581354442E-4,-1.527118147E-4,-7.330167107E-3
9.969241615E0,-4.581354442E-4,2.290677279E-3,-7.330167107E-3
9.978954375E0,-4.581354442E-4,2.290677279E-3,-4.886778072E-3
9.988666406E0,-1.679830020E-3,3.512371797E-3,-4.886778072E-3
9.998379323E0,-4.581354442E-4,3.512371797E-3,-3.665083554E-3
1.000809292E1,7.635590737E-4,2.290677279E-3,-1.221694518E-3
1.001780578E1,1.985253533E-3,3.512371797E-3,0.000000000E0
1.002751776E1,1.985253533E-3,4.734066315E-3,1.221694518E-3
1.003723068E1,3.206948051E-3,4.734066315E-3,1.221694518E-3
1.004694427E1,3.206948051E-3,4.734066315E-3,2.443389036E-3
1.005665714E1,3.206948051E-3,4.734066315E-3,2.443389036E-3
1.006636912E1,1.985253533E-3,4.734066315E-3,4.886778072E-3
1.007608198E1,1.985253533E-3,3.512371797E-3,4.886778072E-3
1.008579563E1,1.985253533E-3,2.290677279E-3,3.665083554E-3
1.009550838E1,-4.581354442E-4,-1.527118147E-4,4.886778072E-3
1.010522047E1,-4.581354442E-4,-1.527118147E-4,4.886778072E-3
1.011493333E1,-4.581354442E-4,-1.374406274E-3,3.665083554E-3
1.012464698E1,-4.581354442E-4,-1.527118147E-4,3.665083554E-3
1.013435974E1,1.985253533E-3,-1.527118147E-4,2.443389036E-3
1.014407177E1,5.650337320E-3,-1.527118147E-4,2.443389036E-3
1.015378469E1,5.650337320E-3,2.290677279E-3,2.443389036E-3
1.016349833E1,5.650337320E-3,4.734066315E-3,1.221694518E-3
1.017321109E1,1.985253533E-3,5.955760833E-3,0.000000000E0
1.018292312E1,7.635590737E-4,3.512371797E-3,-1.221694518E-3
1.019263604E1,7.635590737E-4,-1.374406274E-3,-1.221694518E-3
1.020234964E1,7.635590737E-4,-2.596100792E-3,-2.443389036E-3
1.021206250E1,7.635590737E-4,-1.527118147E-4,-2.443389036E-3
1.022177448E1,-4.581354442E-4,2.290677279E-3,-2.443389036E-3
1.023148734E1,-4.581354442E-4,2.290677279E-3,-2.443389036E-3
1.024120099E1,-1.679830020E-3,2.290677279E-3,-1.221694518E-3
1.025091385E1,-1.679830020E-3,-1.527118147E-4,-2.443389036E-3
1.026062583E1,-1.679830020E-3,-1.527118147E-4,-2.443389036E-3
1.027033870E1,-4.581354442E-4,1.068982761E-3,-2.443389036E-3
1.028005234E1,-4.581354442E-4,2.290677279E-3,-1.221694518E-3
1.028976510E1,7.635590737E-4,3.512371797E-3,0.000000000E0
1.029947719E1,1.985253533E-3,2.290677279E-3,0.000000000E0
1.030919005E1,7.635590737E-4,1.068982761E-3,0.000000000E0
1.031890370E1,-4.581354442E-4,-1.527118147E-4,0.000000000E0
1.032861646E1,-1.679830020E-3,-2.596100792E-3,1.221694518E-3
1.033832849E1,-4.123218823E-3,-2.596100792E-3,1.221694518E-3
1.034804141E1,-5.344913341E-3,-3.817795310E-3,1.221694518E-3
1.035775500E1,-4.123218823E-3,-5.039489828E-3,1.221694518E-3
1.036746786E1,-1.679830020E-3,-5.039489828E-3,1.221694518E-3
1.037717984E1,-1.679830020E-3,-6.261184346E-3,1.221694518E-3
1.038689276E1,-1.679830020E-3,-7.482878864E-3,1.221694518E-3
1.039660635E1,-1.679830020E-3,-6.261184346E-3,1.221694518E-3
1.040631922E1,-4.581354442E-4,-5.039489828E-3,0.000000000E0
1.041603120E1,7.635590737E-4,-5.039489828E-3,0.000000000E0
1.042574406E1,1.985253533E-3,-2.596100792E-3,0.000000000E0
1.043545771E1,1.985253533E-3,-1.374406274E-3,-1.221694518E-3
1.044517057E1,7.635590737E-4,1.068982761E-3,0.000000000E0
1.045488255E1,1.985253533E-3,2.290677279E-3,0.000000000E0
1.046459542E1,1.985253533E-3,1.068982761E-3,-1.221694518E-3
1.047430906E1,7.635590737E-4,-1.527118147E-4,-1.221694518E-3
1.048402182E1,-4.581354442E-4,-1.374406274E-3,-1.221694518E-3
1.049373391E1,-1.679830020E-3,-1.374406274E-3,-1.221694518E-3
1.050344677E1,-2.901524538E-3,-2.596100792E-3,0.000000000E0
1.051316042E1,-4.123218823E-3,-3.817795310E-3,1.221694518E-3
1.052287318E1,-4.123218823E-3,-5.039489828E-3,1.221694518E-3
1.053258521E1,-1.679830020E-3,-3.817795310E-3,3.665083554E-3
1.054229812E1,-1.679830020E-3,-2.596100792E-3,2.443389036E-3
1.055201172E1,-1.679830020E-3,-1.374406274E-3,3.665083554E-3
1.056172458E1,-1.679830020E-3,-1.527118147E-4,4.886778072E-3
1.057143656E1,-4.581354442E-4,1.068982761E-3,3.665083554E-3
1.058114948E1,7.635590737E-4,2.290677279E-3,4.886778072E-3
1.059086307E1,7.635590737E-4,3.512371797E-3,3.665083554E-3
1.060057594E1,1.985253533E-3,2.290677279E-3,2.443389036E-3
1.061028792E1,3.206948051E-3,3.512371797E-3,2.443389036E-3
1.062000078E1,1.985253533E-3,3.512371797E-3,1.221694518E-3
1.062971443E1,7.635590737E-4,3.512371797E-3,1.221694518E-3
1.063942719E1,-4.581354442E-4,4.734066315E-3,0.000000000E0
1.064913927E1,-1.679830020E-3,2.290677279E-3,-1.221694518E-3
1.065885214E1,-2.901524538E-3,1.068982761E-3,-2.443389036E-3
1.066856578E1,-4.581354442E-4,-1.374406274E-3,-2.443389036E-3
1.067827854E1,-4.581354442E-4,-2.596100792E-3,-2.443389036E-3
1.068799063E1,7.635590737E-4,-3.817795310E-3,-1.221694518E-3
1.069770349E1,1.985253533E-3,-3.817795310E-3,-1.221694518E-3
1.070741714E1,7.635590737E-4,-3.817795310E-3,0.000000000E0
1.071712990E1,7.635590737E-4,-1.374406274E-3,1.221694518E-3
1.072684193E1,-1.679830020E-3,-1.527118147E-4,0.000000000E0
1.073655484E1,-1.679830020E-3,1.068982761E-3,1.221694518E-3
1.074626844E1,-1.679830020E-3,-1.527118147E-4,2.443389036E-3
1.075598130E1,7.635590737E-4,-1.527118147E-4,2.443389036E-3
1.076569328E1,3.206948051E-3,-1.374406274E-3,2.443389036E-3
1.077540620E1,4.428642802E-3,-1.527118147E-4,1.221694518E-3
1.078511979E1,3.206948051E-3,2.290677279E-3,1.221694518E-3
1.079483266E1,-4.581354442E-4,2.290677279E-3,1.221694518E-3
1.080454464E1,-2.901524538E-3,-2.596100792E-3,1.221694518E-3
1.081425750E1,-4.123218823E-3,-3.817795310E-3,1.221694518E-3
1.082397115E1,-5.344913341E-3,-1.374406274E-3,0.000000000E0
1.083368401E1,-4.123218823E-3,-1.527118147E-4,0.000000000E0
1.084339599E1,-4.123218823E-3,1.068982761E-3,-1.221694518E-3
1.085310885E1,-4.123218823E-3,1.068982761E-3,0.000000000E0
1.086282250E1,-4.123218823E-3,-1.527118147E-4,-1.221694518E-3
1.087253526E1,-4.123218823E-3,-1.527118147E-4,0.000000000E0
1.088224734E1,-2.901524538E-3,1.068982761E-3,0.000000000E0
1.089196021E1,-2.901524538E-3,1.068982761E-3,1.221694518E-3
1.090167385E1,-4.581354442E-4,2.290677279E-3,1.221694518E-3
1.091138662E1,-4.581354442E-4,2.290677279E-3,2.443389036E-3
1.092109865E1,-4.581354442E-4,1.068982761E-3,3.665083554E-3
1.093081156E1,7.635590737E-4,-1.374406274E-3,2.443389036E-3
1.094052516E1,7.635590737E-4,-1.374406274E-3,3.665083554E-3
1.095023802E1,-4.581354442E-4,-1.374406274E-3,6.108472589E-3
1.095995000E1,-1.679830020E-3,-2.596100792E-3,6.108472589E-3
1.096966292E1,-1.679830020E-3,-2.596100792E-3,7.330167107E-3
1.097937651E1,-1.679830020E-3,-5.039489828E-3,8.551862091E-3
1.098908938E1,-1.679830020E-3,-5.039489828E-3,1.099525020E-2
1.099880135E1,-4.581354442E-4,-2.596100792E-3,1.221694518E-2
1.100851422E1,-1.679830020E-3,-1.374406274E-3,1.343864016E-2
1.101822786E1,-4.581354442E-4,2.290677279E-3,1.343864016E-2
1.102794073E1,7.635590737E-4,3.512371797E-3,1.221694518E-2
1.103765271E1,3.206948051E-3,4.734066315E-3,9.773556143E-3
1.104736557E1,6.872031838E-3,4.734066315E-3,7.330167107E-3
1.105707922E1,6.872031838E-3,4.734066315E-3,6.108472589E-3
1.106679198E1,5.650337320E-3,2.290677279E-3,3.665083554E-3
1.107650406E1,1.985253533E-3,1.068982761E-3,1.221694518E-3
1.108621693E1,-4.581354442E-4,-1.527118147E-4,1.221694518E-3
1.109593057E1,-1.679830020E-3,1.068982761E-3,0.000000000E0
1.110564333E1,-1.679830020E-3,-1.527118147E-4,-1.221694518E-3
1.111535537E1,-1.679830020E-3,-1.527118147E-4,-1.221694518E-3
1.112506828E1,-4.581354442E-4,-1.527118147E-4,-1.221694518E-3
1.113478188E1,7.635590737E-4,-1.527118147E-4,-2.443389036E-3
1.114449474E1,7.635590737E-4,-1.374406274E-3,-2.443389036E-3
1.115420672E1,7.635590737E-4,-3.817795310E-3,-2.443389036E-3
1.116391964E1,7.635590737E-4,-3.817795310E-3,-1.221694518E-3
1.117363323E1,7.635590737E-4,-2.596100792E-3,-1.221694518E-3
1.118334609E1,7.635590737E-4,-1.374406274E-3,-1.221694518E-3
1.119305807E1,7.635590737E-4,-1.527118147E-4,-1.221694518E-3
1.120277094E1,7.635590737E-4,-1.527118147E-4,1.221694518E-3
1.121248458E1,7.635590737E-4,-2.596100792E-3,1.221694518E-3
1.122219745E1,7.635590737E-4,-2.596100792E-3,2.443389036E-3
1.123190943E1,7.635590737E-4,-3.817795310E-3,2.443389036E-3
1.124162229E1,7.635590737E-4,-1.374406274E-3,2.443389036E-3
1.125133594E1,7.635590737E-4,1.068982761E-3,1.221694518E-3
1.126104870E1,3.206948051E-3,4.734066315E-3,1.221694518E-3
1.127076078E1,3.206948051E-3,7.177455351E-3,1.221694518E-3
1.128047365E1,3.206948051E-3,5.955760833E-3,1.221694518E-3
1.129018729E1,3.206948051E-3,3.512371797E-3,1.221694518E-3
1.129990005E1,3.206948051E-3,1.068982761E-3,1.221694518E-3
1.130961208E1,3.206948051E-3,-1.527118147E-4,1.221694518E-3
1.131932500E1,3.206948051E-3,-1.527118147E-4,0.000000000E0
1.132903865E1,1.985253533E-3,1.068982761E-3,0.000000000E0
1.133875141E1,1.985253533E-3,2.290677279E-3,-1.221694518E-3
1.134846344E1,1.985253533E-3,3.512371797E-3,-1.221694518E-3
1.135817635E1,1.985253533E-3,1.068982761E-3,-3.665083554E-3
1.136788995E1,7.635590737E-4,-1.374406274E-3,-2.443389036E-3
1.137760281E1,-4.581354442E-4,-2.596100792E-3,-1.221694518E-3
1.138731479E1,-4.581354442E-4,-1.374406274E-3,-1.221694518E-3
1.139702771E1,7.635590737E-4,-1.527118147E-4,0.000000000E0
1.140674130E1,3.206948051E-3,-1.527118147E-4,1.221694518E-3
1.141645417E1,3.206948051E-3,2.290677279E-3,1.221694518E-3
1.142616615E1,1.985253533E-3,4.734066315E-3,0.000000000E0
1.143587901E1,1.985253533E-3,3.512371797E-3,-2.443389036E-3
1.144559266E1,1.985253533E-3,1.068982761E-3,-3.665083554E-3
1.145530552E1,3.206948051E-3,2.290677279E-3,-4.886778072E-3
1.146501750E1,4.428642802E-3,5.955760833E-3,-3.665083554E-3
1.147473037E1,3.206948051E-3,9.620844387E-3,-1.221694518E-3
1.148444401E1,1.985253533E-3,9.620844387E-3,-1.221694518E-3
1.149415677E1,7.635590737E-4,5.955760833E-3,-1.221694518E-3
1.150386885E1,7.635590737E-4,2.290677279E-3,0.000000000E0
1.151358172E1,-1.679830020E-3,-1.527118147E-4,1.221694518E-3
1.152329537E1,-1.679830020E-3,-1.527118147E-4,2.443389036E-3
1.153300812E1,-1.679830020E-3,2.290677279E-3,2.443389036E-3
1.154272016E1,-4.581354442E-4,3.512371797E-3,0.000000000E0
1.155243307E1,7.635590737E-4,3.512371797E-3,-1.221694518E-3
1.156214667E1,-4.581354442E-4,2.290677279E-3,0.000000000E0
1.157185953E1,-4.581354442E-4,1.068982761E-3,-1.221694518E-3
1.158157151E1,-2.901524538E-3,-1.527118147E-4,0.000000000E0
1.159128443E1,-2.901524538E-3,-1.374406274E-3,0.000000000E0
1.160099802E1,-2.901524538E-3,-2.596100792E-3,0.000000000E0
1.161071089E1,-1.679830020E-3,-2.596100792E-3,1.221694518E-3
1.162042286E1,-1.679830020E-3,-2.596100792E-3,1.221694518E-3
1.163013578E1,-1.679830020E-3,-2.596100792E-3,1.221694518E-3
1.163984938E1,-1.679830020E-3,-1.374406274E-3,0.000000000E0
1.164956224E1,-1.679830020E-3,-1.374406274E-3,0.000000000E0
1.165927422E1,-4.581354442E-4,-1.374406274E-3,0.000000000E0
1.166898708E1,7.635590737E-4,-1.374406274E-3,0.000000000E0
1.167870073E1,1.985253533E-3,-1.527118147E-4,0.000000000E0
1.168841349E1,7.635590737E-4,1.068982761E-3,1.221694518E-3
1.169812557E1,-4.581354442E-4,-1.527118147E-4,2.443389036E-3
1.170783844E1,-1.679830020E-3,-2.596100792E-3,2.443389036E-3
1.171755208E1,-2.901524538E-3,-2.596100792E-3,4.886778072E-3
1.172726484E1,-2.901524538E-3,-1.374406274E-3,6.108472589E-3
1.173697693E1,-1.679830020E-3,-1.374406274E-3,6.108472589E-3
1.174668979E1,7.635590737E-4,2.290677279E-3,4.886778072E-3
1.175640344E1,1.985253533E-3,2.290677279E-3,3.665083554E-3
1.176611620E1,1.985253533E-3,1.068982761E-3,2.443389036E-3
1.177582823E1,1.985253533E-3,-1.374406274E-3,1.221694518E-3
1.178554115E1,1.985253533E-3,-2.596100792E-3,0.000000000E0
1.179525474E1,7.635590737E-4,-2.596100792E-3,0.000000000E0
1.180496760E1,-1.679830020E-3,-5.039489828E-3,0.000000000E0
1.181467958E1,-4.581354442E-4,-2.596100792E-3,0.000000000E0
1.182439250E1,7.635590737E-4,-1.374406274E-3,-1.221694518E-3
1.183410609E1,7.635590737E-4,-1.374406274E-3,-1.221694518E-3
1.184381896E1,-4.581354442E-4,-2.596100792E-3,-1.221694518E-3
1.185353094E1,7.635590737E-4,-1.374406274E-3,-2.443389036E-3
1.186324385E1,-4.581354442E-4,-2.596100792E-3,-2.443389036E-3
1.187295745E1,-4.581354442E-4,-1.374406274E-3,-2.443389036E-3
1.188267031E1,-4.581354442E-4,-2.596100792E-3,-2.443389036E-3
1.189238229E1,7.635590737E-4,-2.596100792E-3,-1.221694518E-3
1.190209516E1,7.635590737E-4,-1.374406274E-3,-1.221694518E-3
1.191180880E1,7.635590737E-4,-1.527118147E-4,0.000000000E0
1.192152156E1,7.635590737E-4,-1.527118147E-4,0.000000000E0
1.193123365E1,1.985253533E-3,-1.374406274E-3,1.221694518E-3
1.194094651E1,7.635590737E-4,-2.596100792E-3,2.443389036E-3
1.195066016E1,1.985253533E-3,-1.374406274E-3,4.886778072E-3
1.196037292E1,1.985253533E-3,-1.374406274E-3,4.886778072E-3
1.197008500E1,1.985253533E-3,-1.374406274E-3,4.886778072E-3
1.197979786E1,-4.581354442E-4,-1.374406274E-3,6.108472589E-3
1.198951151E1,-1.679830020E-3,-1.527118147E-4,6.108472589E-3
1.199922427E1,-1.679830020E-3,-1.527118147E-4,6.108472589E-3
1.200893630E1,-4.581354442E-4,2.290677279E-3,4.886778072E-3
1.201864922E1,7.635590737E-4,2.290677279E-3,6.108472589E-3
1.202836286E1,4.428642802E-3,2.290677279E-3,4.886778072E-3
1.203807563E1,5.650337320E-3,1.068982761E-3,4.886778072E-3
1.204778766E1,4.428642802E-3,-1.527118147E-4,3.665083554E-3
1.205750057E1,3.206948051E-3,1.068982761E-3,3.665083554E-3
1.206721417E1,7.635590737E-4,3.512371797E-3,2.443389036E-3
1.207692703E1,-4.581354442E-4,2.290677279E-3,0.000000000E0
1.208663901E1,-4.581354442E-4,-1.527118147E-4,-1.221694518E-3
1.209635193E1,-1.679830020E-3,-1.527118147E-4,-1.221694518E-3
1.210606552E1,-4.581354442E-4,2.290677279E-3,-2.443389036E-3
1.211577838E1,-1.679830020E-3,3.512371797E-3,-1.221694518E-3
1.212549037E1,-1.679830020E-3,2.290677279E-3,-2.443389036E-3
1.213520323E1,-4.581354442E-4,1.068982761E-3,-3.665083554E-3
1.214491688E1,-1.679830020E-3,-1.527118147E-4,-4.886778072E-3
1.215462974E1,-2.901524538E-3,-1.527118147E-4,-3.665083554E-3
1.216434172E1,-4.123218823E-3,-1.527118147E-4,-2.443389036E-3
1.217405458E1,-4.123218823E-3,-1.527118147E-4,-2.443389036E-3
1.218376823E1,-2.901524538E-3,1.068982761E-3,-3.665083554E-3
1.219348099E1,-4.123218823E-3,-1.527118147E-4,-3.665083554E-3
1.220319307E1,-2.901524538E-3,-1.374406274E-3,-3.665083554E-3
1.221290594E1,-4.123218823E-3,-1.374406274E-3,-4.886778072E-3
1.222261958E1,-2.901524538E-3,-1.374406274E-3,-6.108472589E-3
1.223233234E1,-2.901524538E-3,-1.527118147E-4,-4.886778072E-3
1.224204443E1,-4.581354442E-4,-1.374406274E-3,-6.108472589E-3
1.225175729E1,-4.581354442E-4,-2.596100792E-3,-4.886778072E-3
1.226147094E1,-4.581354442E-4,-2.596100792E-3,-3.665083554E-3
1.227118370E1,-1.679830020E-3,-1.374406274E-3,-2.443389036E-3
1.228089573E1,-2.901524538E-3,-1.527118147E-4,-1.221694518E-3
1.229060865E1,-2.901524538E-3,-1.527118147E-4,0.000000000E0
1.230032229E1,-2.901524538E-3,-1.527118147E-4,-1.221694518E-3
1.231003505E1,7.635590737E-4,-1.527118147E-4,0.000000000E0
1.231974708E1,1.985253533E-3,-1.527118147E-4,-1.221694518E-3
1.232946000E1,3.206948051E-3,1.068982761E-3,-2.443389036E-3
1.233917359E1,3.206948051E-3,2.290677279E-3,-2.443389036E-3
1.234888646E1,1.985253533E-3,2.290677279E-3,-1.221694518E-3
1.235859844E1,7.635590737E-4,2.290677279E-3,1.221694518E-3
1.236831135E1,-1.679830020E-3,1.068982761E-3,2.443389036E-3
1.237802495E1,-1.679830020E-3,2.290677279E-3,3.665083554E-3
1.238773781E1,-1.679830020E-3,2.290677279E-3,3.665083554E-3
1.239744979E1,-1.679830020E-3,2.290677279E-3,3.665083554E-3
1.240716271E1,7.635590737E-4,2.290677279E-3,4.886778072E-3
1.241687630E1,7.635590737E-4,1.068982761E-3,3.665083554E-3
1.242658917E1,7.635590737E-4,1.068982761E-3,4.886778072E-3
1.243630115E1,7.635590737E-4,-1.527118147E-4,3.665083554E-3
1.244601401E1,1.985253533E-3,-1.527118147E-4,2.443389036E-3
1.245572766E1,3.206948051E-3,1.068982761E-3,1.221694518E-3
1.246544052E1,3.206948051E-3,1.068982761E-3,1.221694518E-3
1.247515250E1,1.985253533E-3,-1.527118147E-4,0.000000000E0
1.248486537E1,7.635590737E-4,-1.374406274E-3,0.000000000E0
1.249457901E1,-4.581354442E-4,-1.374406274E-3,0.000000000E0
1.250429188E1,-4.581354442E-4,-2.596100792E-3,-1.221694518E-3
1.251400385E1,-4.581354442E-4,-2.596100792E-3,-1.221694518E-3
1.252371677E1,-1.679830020E-3,-2.596100792E-3,-2.443389036E-3
1.253343037E1,-4.581354442E-4,-1.374406274E-3,-2.443389036E-3
1.254314323E1,-1.679830020E-3,-1.527118147E-4,-2.443389036E-3
1.255285521E1,-4.581354442E-4,1.068982761E-3,-3.665083554E-3
1.256256807E1,7.635590737E-4,2.290677279E-3,-4.886778072E-3
1.257228172E1,7.635590737E-4,3.512371797E-3,-3.665083554E-3
1.258199458E1,1.985253533E-3,3.512371797E-3,-2.443389036E-3
1.259170656E1,1.985253533E-3,4.734066315E-3,-2.443389036E-3
1.260141948E1,3.206948051E-3,4.734066315E-3,-1.221694518E-3
1.261113307E1,3.206948051E-3,3.512371797E-3,-1.221694518E-3
1.262084594E1,1.985253533E-3,1.068982761E-3,-1.221694518E-3
1.263055792E1,-4.581354442E-4,-1.527118147E-4,0.000000000E0
1.264027083E1,7.635590737E-4,-1.374406274E-3,0.000000000E0
1.264998443E1,1.985253533E-3,-1.527118147E-4,0.000000000E0
1.265969729E1,3.206948051E-3,1.068982761E-3,1.221694518E-3
1.266940927E1,4.428642802E-3,1.068982761E-3,1.221694518E-3
1.267912219E1,5.650337320E-3,1.068982761E-3,0.000000000E0
1.268883578E1,6.872031838E-3,1.068982761E-3,2.443389036E-3
1.269854865E1,5.650337320E-3,2.290677279E-3,3.665083554E-3
1.270826063E1,1.985253533E-3,2.290677279E-3,3.665083554E-3
1.271797354E1,7.635590737E-4,1.068982761E-3,2.443389036E-3
1.272768714E1,7.635590737E-4,-1.374406274E-3,3.665083554E-3
1.273740000E1,-4.581354442E-4,-1.374406274E-3,3.665083554E-3
1.274711198E1,-4.581354442E-4,2.290677279E-3,2.443389036E-3
1.275682490E1,-4.581354442E-4,4.734066315E-3,1.221694518E-3
1.276653849E1,-4.581354442E-4,4.734066315E-3,-1.221694518E-3
1.277625135E1,7.635590737E-4,3.512371797E-3,-2.443389036E-3
1.278596333E1,1.985253533E-3,2.290677279E-3,-4.886778072E-3
1.279567625E1,7.635590737E-4,1.068982761E-3,-4.886778072E-3
1.280538984E1,7.635590737E-4,1.068982761E-3,-2.443389036E-3
1.281510271E1,-4.581354442E-4,1.068982761E-3,-2.443389036E-3
1.282481469E1,-2.901524538E-3,2.290677279E-3,0.000000000E0
1.283452760E1,-4.581354442E-4,3.512371797E-3,0.000000000E0
1.284424120E1,-1.679830020E-3,2.290677279E-3,-1.221694518E-3
1.285395406E1,-1.679830020E-3,3.512371797E-3,-1.221694518E-3
1.286366604E1,-4.581354442E-4,3.512371797E-3,-1.221694518E-3
1.287337896E1,-4.581354442E-4,2.290677279E-3,-2.443389036E-3
1.288309260E1,7.635590737E-4,1.068982761E-3,-1.221694518E-3
1.289280537E1,1.985253533E-3,-1.527118147E-4,-1.221694518E-3
1.290251740E1,1.985253533E-3,-1.374406274E-3,0.000000000E0
1.291223031E1,1.985253533E-3,-2.596100792E-3,1.221694518E-3
1.292194396E1,7.635590737E-4,-1.527118147E-4,1.221694518E-3
1.293165672E1,-4.581354442E-4,2.290677279E-3,1.221694518E-3
1.294136880E1,7.635590737E-4,3.512371797E-3,0.000000000E0
1.295108167E1,1.985253533E-3,3.512371797E-3,0.000000000E0
1.296079531E1,1.985253533E-3,2.290677279E-3,0.000000000E0
1.297050807E1,3.206948051E-3,1.068982761E-3,0.000000000E0
1.298022016E1,1.985253533E-3,1.068982761E-3,-1.221694518E-3
1.298993302E1,7.635590737E-4,1.068982761E-3,0.000000000E0
1.299964667E1,7.635590737E-4,-1.527118147E-4,0.000000000E0
1.300935953E1,7.635590737E-4,1.068982761E-3,0.000000000E0
1.301907151E1,7.635590737E-4,3.512371797E-3,-1.221694518E-3
1.302878438E1,1.985253533E-3,4.734066315E-3,-1.221694518E-3
1.303849802E1,1.985253533E-3,5.955760833E-3,0.000000000E0
1.304821089E1,1.985253533E-3,4.734066315E-3,-1.221694518E-3
1.305792286E1,1.985253533E-3,3.512371797E-3,-1.221694518E-3
1.306763578E1,1.985253533E-3,2.290677279E-3,-1.221694518E-3
1.307734938E1,1.985253533E-3,1.068982761E-3,-1.221694518E-3
1.308706224E1,7.635590737E-4,-1.527118147E-4,-1.221694518E-3
1.309677422E1,-4.581354442E-4,-1.527118147E-4,0.000000000E0
1.310648714E1,-1.679830020E-3,-1.527118147E-4,0.000000000E0
1.311620078E1,-1.679830020E-3,-1.527118147E-4,0.000000000E0
1.312591354E1,-4.581354442E-4,-1.527118147E-4,1.221694518E-3
1.313562557E1,-4.581354442E-4,-1.527118147E-4,1.221694518E-3
1.314533849E1,-4.581354442E-4,-1.374406274E-3,1.221694518E-3
1.315505214E1,7.635590737E-4,-1.374406274E-3,1.221694518E-3
1.316476490E1,7.635590737E-4,-1.374406274E-3,2.443389036E-3
1.317447698E1,7.635590737E-4,-1.527118147E-4,2.443389036E-3
1.318418984E1,7.635590737E-4,-1.527118147E-4,2.443389036E-3
1.319390349E1,7.635590737E-4,-1.527118147E-4,1.221694518E-3
1.320361635E1,1.985253533E-3,1.068982761E-3,0.000000000E0
1.321332833E1,1.985253533E-3,2.290677279E-3,0.000000000E0
1.322304125E1,1.985253533E-3,2.290677279E-3,0.000000000E0
1.323275484E1,7.635590737E-4,2.290677279E-3,0.000000000E0
1.324246771E1,7.635590737E-4,1.068982761E-3,0.000000000E0
1.325217969E1,1.985253533E-3,1.068982761E-3,0.000000000E0
1.326189260E1,7.635590737E-4,1.068982761E-3,0.000000000E0
1.327160620E1,7.635590737E-4,1.068982761E-3,0.000000000E0
1.328131906E1,7.635590737E-4,1.068982761E-3,1.221694518E-3
1.329103104E1,7.635590737E-4,2.290677279E-3,2.443389036E-3
1.330074396E1,1.985253533E-3,4.734066315E-3,2.443389036E-3
1.331045760E1,4.428642802E-3,4.734066315E-3,1.221694518E-3
1.332017037E1,4.428642802E-3,5.955760833E-3,2.443389036E-3
1.332988245E1,4.428642802E-3,4.734066315E-3,1.221694518E-3
1.333959531E1,4.428642802E-3,3.512371797E-3,1.221694518E-3
1.334930896E1,1.985253533E-3,4.734066315E-3,0.000000000E0
1.335902172E1,-4.581354442E-4,4.734066315E-3,-1.221694518E-3
1.336873380E1,-4.581354442E-4,2.290677279E-3,-1.221694518E-3
1.337844672E1,7.635590737E-4,-1.374406274E-3,0.000000000E0
1.338816031E1,3.206948051E-3,-1.374406274E-3,0.000000000E0
1.339787318E1,3.206948051E-3,2.290677279E-3,1.221694518E-3
1.340758516E1,3.206948051E-3,2.290677279E-3,0.000000000E0
1.341729807E1,7.635590737E-4,2.290677279E-3,0.000000000E0
1.342701167E1,7.635590737E-4,1.068982761E-3,0.000000000E0
1.343672453E1,7.635590737E-4,1.068982761E-3,-1.221694518E-3
1.344643651E1,-4.581354442E-4,2.290677279E-3,1.221694518E-3
1.345614943E1,-1.679830020E-3,2.290677279E-3,0.000000000E0
1.346586307E1,-1.679830020E-3,3.512371797E-3,1.221694518E-3
1.347557583E1,7.635590737E-4,2.290677279E-3,0.000000000E0
1.348528792E1,7.635590737E-4,-1.527118147E-4,-1.221694518E-3
1.349500078E1,7.635590737E-4,-1.527118147E-4,-1.221694518E-3
1.350471443E1,-1.679830020E-3,-1.527118147E-4,0.000000000E0
1.351442729E1,-2.901524538E-3,-1.527118147E-4,1.221694518E-3
1.352413927E1,-2.901524538E-3,-1.374406274E-3,1.221694518E-3
1.353385214E1,-1.679830020E-3,-1.527118147E-4,1.221694518E-3
1.354356578E1,-4.581354442E-4,1.068982761E-3,0.000000000E0
1.355327865E1,-4.581354442E-4,1.068982761E-3,1.221694518E-3
1.356299063E1,-4.581354442E-4,1.068982761E-3,0.000000000E0
1.357270354E1,-4.581354442E-4,2.290677279E-3,0.000000000E0
1.358241719E1,-4.581354442E-4,1.068982761E-3,0.000000000E0
1.359212995E1,-4.581354442E-4,-1.527118147E-4,-1.221694518E-3
1.360184203E1,7.635590737E-4,1.068982761E-3,-1.221694518E-3
1.361155490E1,7.635590737E-4,3.512371797E-3,0.000000000E0
1.362126854E1,1.985253533E-3,4.734066315E-3,0.000000000E0
1.363098130E1,1.985253533E-3,4.734066315E-3,0.000000000E0
1.364069338E1,7.635590737E-4,3.512371797E-3,1.221694518E-3
1.365040625E1,-4.581354442E-4,2.290677279E-3,2.443389036E-3
1.366011990E1,-4.581354442E-4,2.290677279E-3,2.443389036E-3
1.366983276E1,-4.581354442E-4,-1.527118147E-4,2.443389036E-3
1.367954474E1,-4.581354442E-4,-1.527118147E-4,1.221694518E-3
1.368925766E1,7.635590737E-4,-1.374406274E-3,1.221694518E-3
1.369897130E1,7.635590737E-4,1.068982761E-3,1.221694518E-3
1.370868406E1,1.985253533E-3,-1.527118147E-4,0.000000000E0
1.371839609E1,1.985253533E-3,-1.527118147E-4,1.221694518E-3
1.372810901E1,7.635590737E-4,-1.527118147E-4,2.443389036E-3
1.373782266E1,-4.581354442E-4,-1.527118147E-4,2.443389036E-3
1.374753542E1,-1.679830020E-3,-1.527118147E-4,1.221694518E-3
1.375724750E1,-1.679830020E-3,-1.374406274E-3,1.221694518E-3
1.376696037E1,-2.901524538E-3,-2.596100792E-3,0.000000000E0
1.377667401E1,-1.679830020E-3,-2.596100792E-3,-1.221694518E-3
1.378638688E1,-4.581354442E-4,-2.596100792E-3,-2.443389036E-3
1.379609885E1,-4.581354442E-4,-2.596100792E-3,-1.221694518E-3
1.380581177E1,-4.581354442E-4,-1.374406274E-3,-1.221694518E-3
1.381552542E1,-1.679830020E-3,-1.527118147E-4,-1.221694518E-3
1.382523818E1,-4.123218823E-3,-1.374406274E-3,-1.221694518E-3
1.383495021E1,-5.344913341E-3,-1.374406274E-3,0.000000000E0
1.384466312E1,-4.123218823E-3,-2.596100792E-3,-1.221694518E-3
1.385437677E1,-4.123218823E-3,-1.374406274E-3,0.000000000E0
1.386408953E1,-5.344913341E-3,-1.527118147E-4,0.000000000E0
1.387380162E1,-6.566607859E-3,-1.527118147E-4,0.000000000E0
1.388351448E1,-7.788302377E-3,1.068982761E-3,0.000000000E0
1.389322812E1,-9.009997360E-3,-1.527118147E-4,0.000000000E0
1.390294099E1,-9.009997360E-3,-1.527118147E-4,1.221694518E-3
1.391265297E1,-1.023169141E-2,-1.374406274E-3,0.000000000E0
1.392236589E1,-7.788302377E-3,1.068982761E-3,0.000000000E0
1.393207948E1,-7.788302377E-3,1.068982761E-3,0.000000000E0
1.394179234E1,-6.566607859E-3,1.068982761E-3,-1.221694518E-3
1.395150438E1,-4.123218823E-3,2.290677279E-3,-1.221694518E-3
1.396121724E1,-4.123218823E-3,2.290677279E-3,-2.443389036E-3
1.397093089E1,-4.123218823E-3,1.068982761E-3,-3.665083554E-3
1.398064375E1,-4.123218823E-3,-1.527118147E-4,-3.665083554E-3
1.399035573E1,-4.123218823E-3,-1.374406274E-3,-2.443389036E-3
1.400006859E1,-4.123218823E-3,-1.374406274E-3,-2.443389036E-3
1.400978224E1,-5.344913341E-3,1.068982761E-3,-1.221694518E-3
1.401949510E1,-6.566607859E-3,1.068982761E-3,-1.221694518E-3
1.402920708E1,-6.566607859E-3,-2.596100792E-3,-1.221694518E-3
1.403892000E1,-4.123218823E-3,-5.039489828E-3,0.000000000E0
1.404863365E1,-2.901524538E-3,-2.596100792E-3,2.443389036E-3
1.405834641E1,-4.581354442E-4,-1.527118147E-4,1.221694518E-3
1.406805849E1,-4.581354442E-4,1.068982761E-3,1.221694518E-3
1.407777135E1,-4.581354442E-4,-1.527118147E-4,0.000000000E0
1.408748500E1,-4.581354442E-4,-1.374406274E-3,-1.221694518E-3
1.409719786E1,-1.679830020E-3,-1.374406274E-3,1.221694518E-3
1.410690984E1,-2.901524538E-3,-1.374406274E-3,1.221694518E-3
1.411662276E1,-4.123218823E-3,-1.374406274E-3,1.221694518E-3
1.412633635E1,-2.901524538E-3,-1.527118147E-4,1.221694518E-3
1.413604922E1,-4.581354442E-4,1.068982761E-3,0.000000000E0
1.414576125E1,-1.679830020E-3,-1.527118147E-4,-1.221694518E-3
1.415547412E1,-2.901524538E-3,-1.527118147E-4,-1.221694518E-3
1.416518776E1,-4.123218823E-3,-1.374406274E-3,0.000000000E0
1.417490063E1,-5.344913341E-3,-2.596100792E-3,0.000000000E0
1.418461260E1,-4.123218823E-3,-2.596100792E-3,0.000000000E0
1.419432552E1,-4.123218823E-3,-3.817795310E-3,1.221694518E-3
1.420403912E1,-2.901524538E-3,-3.817795310E-3,2.443389036E-3
1.421375198E1,-4.581354442E-4,-1.374406274E-3,1.221694518E-3
1.422346396E1,-4.581354442E-4,-1.527118147E-4,1.221694518E-3
1.423317688E1,-4.581354442E-4,1.068982761E-3,2.443389036E-3
1.424289052E1,-4.581354442E-4,-1.527118147E-4,2.443389036E-3
1.425260328E1,-1.679830020E-3,-1.374406274E-3,1.221694518E-3
1.426231537E1,-4.581354442E-4,-2.596100792E-3,1.221694518E-3
1.427202823E1,7.635590737E-4,-2.596100792E-3,1.221694518E-3
1.428174188E1,1.985253533E-3,-1.374406274E-3,1.221694518E-3
1.429145474E1,1.985253533E-3,-1.374406274E-3,1.221694518E-3
1.430116672E1,7.635590737E-4,-1.374406274E-3,1.221694518E-3
1.431087964E1,-4.581354442E-4,-1.374406274E-3,2.443389036E-3
1.432059328E1,-4.581354442E-4,-2.596100792E-3,2.443389036E-3
1.433030604E1,-4.581354442E-4,-1.374406274E-3,2.443389036E-3
1.434001812E1,-4.581354442E-4,-1.374406274E-3,1.221694518E-3
1.434973099E1,-4.581354442E-4,-1.374406274E-3,2.443389036E-3
1.435944464E1,7.635590737E-4,-2.596100792E-3,1.221694518E-3
1.436915750E1,7.635590737E-4,-3.817795310E-3,1.221694518E-3
1.437886948E1,-1.679830020E-3,-3.817795310E-3,1.221694518E-3
1.438858240E1,-1.679830020E-3,-3.817795310E-3,0.000000000E0
1.439829604E1,-2.901524538E-3,-3.817795310E-3,-1.221694518E-3
1.440800880E1,-2.901524538E-3,-2.596100792E-3,-1.221694518E-3
1.441772089E1,-1.679830020E-3,-3.817795310E-3,-3.665083554E-3
1.442743375E1,-4.581354442E-4,-3.817795310E-3,-3.665083554E-3
1.443714740E1,1.985253533E-3,-3.817795310E-3,-3.665083554E-3
1.444686026E1,4.428642802E-3,-2.596100792E-3,-4.886778072E-3
1.445657224E1,4.428642802E-3,-3.817795310E-3,-3.665083554E-3
1.446628516E1,3.206948051E-3,-5.039489828E-3,-2.443389036E-3
1.447599880E1,-4.581354442E-4,-6.261184346E-3,0.000000000E0
1.448571156E1,-4.123218823E-3,-7.482878864E-3,1.221694518E-3
1.449542365E1,-4.123218823E-3,-5.039489828E-3,2.443389036E-3
1.450513651E1,-2.901524538E-3,-1.374406274E-3,3.665083554E-3
1.451485016E1,-4.581354442E-4,1.068982761E-3,2.443389036E-3
1.452456302E1,7.635590737E-4,1.068982761E-3,-1.221694518E-3
1.453427500E1,7.635590737E-4,-1.527118147E-4,-3.665083554E-3
1.454398792E1,7.635590737E-4,-2.596100792E-3,-4.886778072E-3
1.455370156E1,-1.679830020E-3,-5.039489828E-3,-2.443389036E-3
1.456341432E1,-4.123218823E-3,-7.482878864E-3,-1.221694518E-3
1.457312641E1,-5.344913341E-3,-7.482878864E-3,-1.221694518E-3
1.458283927E1,-4.123218823E-3,-5.039489828E-3,0.000000000E0
1.459255292E1,-2.901524538E-3,-3.817795310E-3,0.000000000E0
1.460226578E1,-1.679830020E-3,-2.596100792E-3,0.000000000E0
1.461197776E1,-4.581354442E-4,-2.596100792E-3,-1.221694518E-3
1.462169068E1,7.635590737E-4,-1.374406274E-3,0.000000000E0
1.463140432E1,-1.679830020E-3,-1.374406274E-3,0.000000000E0
1.464111708E1,-1.679830020E-3,-2.596100792E-3,-2.443389036E-3
1.465082917E1,7.635590737E-4,-1.527118147E-4,-1.221694518E-3
1.466054208E1,1.985253533E-3,1.068982761E-3,-1.221694518E-3
1.467025568E1,4.428642802E-3,2.290677279E-3,0.000000000E0
1.467996854E1,4.428642802E-3,1.068982761E-3,2.443389036E-3
1.468968052E1,4.428642802E-3,-1.374406274E-3,2.443389036E-3
1.469939344E1,1.985253533E-3,-2.596100792E-3,2.443389036E-3
1.470910708E1,-1.679830020E-3,-2.596100792E-3,3.665083554E-3
1.471881984E1,-2.901524538E-3,-2.596100792E-3,3.665083554E-3
1.472853193E1,-4.581354442E-4,-5.039489828E-3,2.443389036E-3
1.473824484E1,3.206948051E-3,-2.596100792E-3,3.665083554E-3
1.474795849E1,4.428642802E-3,1.068982761E-3,3.665083554E-3
1.475767125E1,4.428642802E-3,3.512371797E-3,6.108472589E-3
1.476738328E1,5.650337320E-3,3.512371797E-3,4.886778072E-3
1.477709620E1,5.650337320E-3,3.512371797E-3,4.886778072E-3
1.478680984E1,4.428642802E-3,3.512371797E-3,3.665083554E-3
1.479652271E1,1.985253533E-3,2.290677279E-3,1.221694518E-3
1.480623469E1,1.985253533E-3,3.512371797E-3,1.221694518E-3
1.481594760E1,-4.581354442E-4,3.512371797E-3,0.000000000E0
1.482566125E1,-1.679830020E-3,4.734066315E-3,0.000000000E0
1.483537401E1,-2.901524538E-3,2.290677279E-3,-1.221694518E-3
1.484508609E1,-4.123218823E-3,-1.527118147E-4,-1.221694518E-3
1.485479896E1,-5.344913341E-3,-1.374406274E-3,-1.221694518E-3
1.486451260E1,-4.123218823E-3,-1.374406274E-3,-1.221694518E-3
1.487422547E1,-4.123218823E-3,-1.527118147E-4,0.000000000E0
1.488393745E1,-4.581354442E-4,1.068982761E-3,1.221694518E-3
1.489365037E1,3.206948051E-3,1.068982761E-3,1.221694518E-3
1.490336401E1,5.650337320E-3,3.512371797E-3,1.221694518E-3
1.491307677E1,5.650337320E-3,3.512371797E-3,2.443389036E-3
1.492278885E1,4.428642802E-3,4.734066315E-3,3.665083554E-3
1.493250177E1,4.428642802E-3,4.734066315E-3,1.221694518E-3
1.494221537E1,3.206948051E-3,3.512371797E-3,1.221694518E-3
1.495192823E1,1.985253533E-3,1.068982761E-3,1.221694518E-3
1.496164026E1,1.985253533E-3,-1.527118147E-4,1.221694518E-3
1.497135312E1,1.985253533E-3,-1.527118147E-4,2.443389036E-3
1.498106677E1,1.985253533E-3,-1.374406274E-3,1.221694518E-3
1.499077964E1,3.206948051E-3,-1.527118147E-4,1.221694518E-3
1.500049162E1,3.206948051E-3,1.068982761E-3,2.443389036E-3
1.501020453E1,3.206948051E-3,2.290677279E-3,2.443389036E-3
1.501991818E1,3.206948051E-3,3.512371797E-3,2.443389036E-3
1.502963094E1,3.206948051E-3,4.734066315E-3,2.443389036E-3
1.503934302E1,3.206948051E-3,3.512371797E-3,3.665083554E-3
