"Time (s)","Gyroscope x (rad/s)","Gyroscope y (rad/s)","Gyroscope z (rad/s)"
6.964398000E-2,4.886778072E-3,-1.832541777E-3,-5.344913341E-3
7.935648000E-2,-0.000000000E0,-3.054236295E-3,-6.566607859E-3
8.906981400E-2,-3.665083554E-3,1.832541777E-3,-5.344913341E-3
9.878387600E-2,-7.330167107E-3,3.054236295E-3,-4.123218823E-3
1.084970530E-1,-7.330167107E-3,-1.832541777E-3,-4.581354442E-4
1.182095530E-1,-4.886778072E-3,-1.527118124E-2,3.206948051E-3
1.279228870E-1,-2.443389036E-3,-2.137965336E-2,6.872031838E-3
1.376369490E-1,-0.000000000E0,-7.941014133E-3,9.315420873E-3
1.473501780E-1,1.221694518E-3,1.038440317E-2,8.093725890E-3
1.570626780E-1,1.221694518E-3,1.771457121E-2,4.428642802E-3
1.667760120E-1,-0.000000000E0,1.404948719E-2,1.985253533E-3
1.764900740E-1,-0.000000000E0,6.719320081E-3,3.206948051E-3
1.862033030E-1,3.665083554E-3,-1.038440317E-2,1.985253533E-3
1.959158030E-1,1.221694518E-3,-2.870982140E-2,4.428642802E-3
2.056290330E-1,-0.000000000E0,-2.382304333E-2,4.428642802E-3
2.153431470E-1,-1.221694518E-3,-5.497625098E-3,4.428642802E-3
2.250563760E-1,-1.221694518E-3,2.015795931E-2,3.206948051E-3
2.347688760E-1,2.443389036E-3,3.726168349E-2,1.985253533E-3
2.444822100E-1,4.886778072E-3,2.626643144E-2,7.635590737E-4
2.541962720E-1,7.330167107E-3,5.497625098E-3,3.206948051E-3
2.639095010E-1,4.886778072E-3,-2.137965336E-2,3.206948051E-3
2.736220010E-1,-1.221694518E-3,-3.848337755E-2,5.650337320E-3
2.833353350E-1,-4.886778072E-3,-3.237490356E-2,3.206948051E-3
2.930493970E-1,-1.221694518E-3,-5.497625098E-3,7.635590737E-4
3.027626260E-1,-0.000000000E0,1.893626526E-2,-2.901524538E-3
3.124751260E-1,1.221694518E-3,2.993151546E-2,-2.901524538E-3
3.221884600E-1,-2.443389036E-3,2.626643144E-2,-1.679830020E-3
3.319025220E-1,-1.221694518E-3,4.275931045E-3,7.635590737E-4
3.416157510E-1,1.221694518E-3,-2.382304333E-2,4.428642802E-3
3.513281990E-1,-0.000000000E0,-4.092676565E-2,5.650337320E-3
3.610415330E-1,-0.000000000E0,-3.603998944E-2,5.650337320E-3
3.707555950E-1,2.443389036E-3,-1.160609815E-2,3.206948051E-3
3.804688240E-1,8.551862091E-3,1.893626526E-2,-4.581354442E-4
3.901813240E-1,1.588202827E-2,3.726168349E-2,-4.123218823E-3
3.998946580E-1,1.954711229E-2,2.626643144E-2,-4.123218823E-3
4.096087200E-1,1.832541823E-2,6.108472589E-4,7.635590737E-4
4.193219490E-1,1.954711229E-2,-1.893626526E-2,3.206948051E-3
4.290344490E-1,1.954711229E-2,-2.626643144E-2,3.206948051E-3
4.387477830E-1,1.832541823E-2,-1.893626526E-2,-1.679830020E-3
4.484618450E-1,1.466033421E-2,-3.054236295E-3,-4.123218823E-3
4.581750740E-1,1.466033421E-2,1.038440317E-2,-9.009997360E-3
4.678875740E-1,2.076880634E-2,7.941014133E-3,-1.023169141E-2
4.776009080E-1,2.932066843E-2,6.108472589E-4,-1.267508045E-2
4.873149700E-1,3.054236248E-2,-1.038440317E-2,-1.389677543E-2
4.970281990E-1,2.443389036E-2,-1.282779220E-2,-1.511846948E-2
5.067406990E-1,1.221694518E-2,-6.719320081E-3,-1.267508045E-2
5.164540330E-1,2.443389036E-3,7.941014133E-3,-1.145338640E-2
5.261680950E-1,-0.000000000E0,1.160609815E-2,-1.267508045E-2
5.358813240E-1,1.221694518E-3,1.038440317E-2,-1.267508045E-2
5.455938240E-1,1.221694518E-3,-6.108472589E-4,-1.389677543E-2
5.553071580E-1,-2.443389036E-3,-9.162709117E-3,-1.389677543E-2
5.650212200E-1,-6.108472589E-3,-2.015795931E-2,-1.145338640E-2
5.747344490E-1,-6.108472589E-3,-2.382304333E-2,-9.009997360E-3
5.844469490E-1,-2.443389036E-3,-2.382304333E-2,-7.788302377E-3
5.941602830E-1,3.665083554E-3,-1.527118124E-2,-4.123218823E-3
6.038743450E-1,8.551862091E-3,-1.038440317E-2,-5.344913341E-3
6.135875740E-1,6.108472589E-3,-1.160609815E-2,-1.679830020E-3
6.233000740E-1,-0.000000000E0,-1.649287529E-2,4.428642802E-3
6.330134080E-1,-3.665083554E-3,-2.137965336E-2,8.093725890E-3
6.427274700E-1,-2.443389036E-3,-5.497625098E-3,9.315420873E-3
6.524406990E-1,1.221694518E-3,1.282779220E-2,4.428642802E-3
6.621531990E-1,3.665083554E-3,2.015795931E-2,7.635590737E-4
6.718665330E-1,1.221694518E-3,2.504473738E-2,-4.581354442E-4
6.815805950E-1,-3.665083554E-3,2.382304333E-2,-4.581354442E-4
6.912938240E-1,-1.099525020E-2,1.038440317E-2,7.635590737E-4
7.010063240E-1,-1.710372418E-2,-1.282779220E-2,5.650337320E-3
7.107196580E-1,-1.588202827E-2,-2.748812735E-2,9.315420873E-3
7.204337720E-1,-7.330167107E-3,-1.404948719E-2,8.093725890E-3
7.301470010E-1,1.221694518E-3,1.038440317E-2,3.206948051E-3
7.398595010E-1,4.886778072E-3,2.015795931E-2,1.985253533E-3
7.495728350E-1,3.665083554E-3,2.137965336E-2,4.428642802E-3
7.592868970E-1,3.665083554E-3,1.893626526E-2,3.206948051E-3
7.690001260E-1,3.665083554E-3,1.038440317E-2,3.206948051E-3
7.787126260E-1,-0.000000000E0,-1.832541777E-3,4.428642802E-3
7.884259600E-1,-6.108472589E-3,-2.015795931E-2,4.428642802E-3
7.981400220E-1,-4.886778072E-3,-2.626643144E-2,4.428642802E-3
8.078533550E-1,-1.221694518E-3,-1.527118124E-2,1.985253533E-3
8.175657510E-1,2.443389036E-3,1.832541777E-3,-4.123218823E-3
8.272791370E-1,2.443389036E-3,1.160609815E-2,-6.566607859E-3
8.369931990E-1,1.221694518E-3,9.162709117E-3,-6.566607859E-3
8.467064280E-1,-0.000000000E0,-7.941014133E-3,-4.123218823E-3
8.564189280E-1,-3.665083554E-3,-2.626643144E-2,-1.679830020E-3
8.661322620E-1,-6.108472589E-3,-2.382304333E-2,-4.581354442E-4
8.758463760E-1,-9.773556143E-3,-7.941014133E-3,-4.581354442E-4
8.855596050E-1,-9.773556143E-3,7.941014133E-3,7.635590737E-4
8.952721050E-1,-4.886778072E-3,2.015795931E-2,1.985253533E-3
9.049854390E-1,3.665083554E-3,2.382304333E-2,4.428642802E-3
9.146995010E-1,9.773556143E-3,2.015795931E-2,4.428642802E-3
9.244127300E-1,9.773556143E-3,1.160609815E-2,7.635590737E-4
9.341252830E-1,4.886778072E-3,-3.054236295E-3,7.635590737E-4
9.438386160E-1,-1.221694518E-3,-1.649287529E-2,-4.581354442E-4
9.535526780E-1,-6.108472589E-3,-1.649287529E-2,-4.581354442E-4
9.632659080E-1,-4.886778072E-3,-7.941014133E-3,7.635590737E-4
9.729784080E-1,-2.443389036E-3,-6.108472589E-4,3.206948051E-3
9.826917930E-1,-0.000000000E0,9.162709117E-3,5.650337320E-3
9.924058550E-1,3.665083554E-3,1.893626526E-2,4.428642802E-3
1.002119085E0,3.665083554E-3,1.038440317E-2,4.428642802E-3
1.011831585E0,-0.000000000E0,-1.832541777E-3,4.428642802E-3
1.021544970E0,-3.665083554E-3,6.108472589E-4,5.650337320E-3
1.031259033E0,-4.886778072E-3,9.162709117E-3,3.206948051E-3
1.040972262E0,-4.886778072E-3,9.162709117E-3,7.635590737E-4
1.050684762E0,-4.886778072E-3,4.275931045E-3,7.635590737E-4
1.060398147E0,-2.443389036E-3,7.941014133E-3,-4.581354442E-4
1.070112210E0,1.221694518E-3,9.162709117E-3,-4.123218823E-3
1.079825439E0,1.221694518E-3,-1.832541777E-3,-4.123218823E-3
1.089537939E0,-4.886778072E-3,-1.527118124E-2,7.635590737E-4
1.099251324E0,-1.343864016E-2,-1.160609815E-2,6.872031838E-3
1.108965387E0,-1.588202827E-2,6.719320081E-3,9.315420873E-3
1.118678616E0,-1.588202827E-2,2.137965336E-2,8.093725890E-3
1.128391168E0,-1.343864016E-2,2.015795931E-2,6.872031838E-3
1.138104501E0,-3.665083554E-3,1.160609815E-2,5.650337320E-3
1.147818564E0,7.330167107E-3,9.162709117E-3,6.872031838E-3
1.157531897E0,1.466033421E-2,-6.108472589E-4,6.872031838E-3
1.167244345E0,1.466033421E-2,-1.404948719E-2,8.093725890E-3
1.176957678E0,9.773556143E-3,-1.649287529E-2,9.315420873E-3
1.186671793E0,2.443389036E-3,-3.054236295E-3,5.650337320E-3
1.196385022E0,-4.886778072E-3,1.404948719E-2,7.635590737E-4
1.206097522E0,-1.099525020E-2,1.893626526E-2,-1.679830020E-3
1.215810908E0,-1.221694518E-2,1.649287529E-2,-4.581354442E-4
1.225524970E0,-1.099525020E-2,1.038440317E-2,7.635590737E-4
1.235238199E0,-1.099525020E-2,4.275931045E-3,1.985253533E-3
1.244950751E0,-8.551862091E-3,-3.054236295E-3,4.428642802E-3
1.254664085E0,-4.886778072E-3,-1.160609815E-2,3.206948051E-3
1.264378199E0,-1.221694518E-3,-1.893626526E-2,3.206948051E-3
1.274091428E0,-0.000000000E0,-1.649287529E-2,-1.679830020E-3
1.283803928E0,1.221694518E-3,1.832541777E-3,-4.123218823E-3
1.293517314E0,3.665083554E-3,2.137965336E-2,-2.901524538E-3
1.303231376E0,3.665083554E-3,2.137965336E-2,-2.901524538E-3
1.312944605E0,4.886778072E-3,-1.832541777E-3,-1.679830020E-3
1.322657158E0,4.886778072E-3,-2.870982140E-2,7.635590737E-4
1.332370491E0,3.665083554E-3,-3.603998944E-2,1.985253533E-3
1.342084605E0,-0.000000000E0,-2.015795931E-2,7.635590737E-4
1.351797835E0,-3.665083554E-3,4.275931045E-3,7.635590737E-4
1.361510335E0,-3.665083554E-3,2.260134928E-2,-1.679830020E-3
1.371223720E0,-1.221694518E-3,2.870982140E-2,-1.679830020E-3
1.380937783E0,-1.221694518E-3,1.893626526E-2,-4.581354442E-4
1.390651116E0,-1.221694518E-3,1.832541777E-3,1.985253533E-3
1.400363564E0,-2.443389036E-3,-1.649287529E-2,4.428642802E-3
1.410076897E0,-1.221694518E-3,-2.504473738E-2,6.872031838E-3
1.419791012E0,3.665083554E-3,-1.771457121E-2,6.872031838E-3
1.429504241E0,8.551862091E-3,6.108472589E-4,3.206948051E-3
1.439216793E0,1.099525020E-2,2.382304333E-2,-2.901524538E-3
1.448930126E0,8.551862091E-3,3.603998944E-2,-6.566607859E-3
1.458644241E0,1.221694518E-3,2.870982140E-2,-5.344913341E-3
1.468357470E0,-9.773556143E-3,7.941014133E-3,-1.679830020E-3
1.478069970E0,-1.466033421E-2,-1.282779220E-2,1.985253533E-3
1.487783355E0,-1.343864016E-2,-2.748812735E-2,4.428642802E-3
1.497497470E0,-1.221694518E-2,-2.504473738E-2,8.093725890E-3
1.507210699E0,-9.773556143E-3,-5.497625098E-3,9.315420873E-3
1.516923199E0,-1.221694518E-3,1.649287529E-2,5.650337320E-3
1.526636585E0,8.551862091E-3,2.504473738E-2,1.985253533E-3
1.536350647E0,8.551862091E-3,1.160609815E-2,-1.679830020E-3
1.546063980E0,3.665083554E-3,6.108472589E-4,-4.581354442E-4
1.555776428E0,-1.221694518E-3,3.054236295E-3,7.635590737E-4
1.565489814E0,-3.665083554E-3,5.497625098E-3,-4.581354442E-4
1.575203876E0,-2.443389036E-3,4.275931045E-3,-4.581354442E-4
1.584917210E0,1.221694518E-3,-5.497625098E-3,7.635590737E-4
1.594629658E0,2.443389036E-3,-1.649287529E-2,1.985253533E-3
1.604343043E0,3.665083554E-3,-1.038440317E-2,3.206948051E-3
1.614057105E0,3.665083554E-3,4.275931045E-3,-4.581354442E-4
1.623770439E0,-0.000000000E0,1.160609815E-2,-1.679830020E-3
1.633482887E0,-4.886778072E-3,1.527118124E-2,-4.123218823E-3
1.643196220E0,-8.551862091E-3,1.282779220E-2,-2.901524538E-3
1.652910335E0,-7.330167107E-3,4.275931045E-3,-2.901524538E-3
1.662623668E0,-3.665083554E-3,-5.497625098E-3,-4.581354442E-4
1.672336116E0,-2.443389036E-3,-1.160609815E-2,1.985253533E-3
1.682049449E0,-4.886778072E-3,-1.404948719E-2,4.428642802E-3
1.691763564E0,-3.665083554E-3,-1.160609815E-2,4.428642802E-3
1.701476897E0,4.886778072E-3,-6.108472589E-4,3.206948051E-3
1.711189345E0,9.773556143E-3,1.527118124E-2,7.635590737E-4
1.720902678E0,6.108472589E-3,2.015795931E-2,-4.581354442E-4
1.730616793E0,1.221694518E-3,1.404948719E-2,3.206948051E-3
1.740330126E0,-1.221694518E-3,4.275931045E-3,5.650337320E-3
1.750042574E0,-0.000000000E0,-3.054236295E-3,6.872031838E-3
1.759755908E0,2.443389036E-3,-4.275931045E-3,9.315420873E-3
1.769470022E0,7.330167107E-3,-6.719320081E-3,1.175880991E-2
1.779183355E0,1.221694518E-2,-9.162709117E-3,9.315420873E-3
1.788895803E0,9.773556143E-3,4.275931045E-3,4.428642802E-3
1.798609137E0,2.443389036E-3,1.893626526E-2,-2.901524538E-3
1.808323251E0,-2.443389036E-3,1.771457121E-2,-4.123218823E-3
1.818036585E0,-3.665083554E-3,3.054236295E-3,-4.123218823E-3
1.827749033E0,-1.221694518E-3,-1.038440317E-2,-1.679830020E-3
1.837462366E0,-0.000000000E0,-1.527118124E-2,-1.679830020E-3
1.847176480E0,-0.000000000E0,-7.941014133E-3,-4.581354442E-4
1.856889814E0,-1.221694518E-3,3.054236295E-3,-1.679830020E-3
1.866602262E0,-3.665083554E-3,1.649287529E-2,-2.901524538E-3
1.876315595E0,-2.443389036E-3,2.015795931E-2,-5.344913341E-3
1.886029710E0,-3.665083554E-3,7.941014133E-3,-2.901524538E-3
1.895743043E0,-6.108472589E-3,-3.054236295E-3,-4.581354442E-4
1.905455491E0,-8.551862091E-3,-1.282779220E-2,1.985253533E-3
1.915168876E0,-6.108472589E-3,-2.015795931E-2,1.985253533E-3
1.924882939E0,-1.221694518E-3,-1.893626526E-2,1.985253533E-3
1.934596272E0,1.221694518E-3,-1.649287529E-2,3.206948051E-3
1.944308720E0,-2.443389036E-3,-5.497625098E-3,5.650337320E-3
1.954022105E0,-8.551862091E-3,1.160609815E-2,6.872031838E-3
1.963736168E0,-9.773556143E-3,2.260134928E-2,6.872031838E-3
1.973449501E0,-7.330167107E-3,1.771457121E-2,5.650337320E-3
1.983161949E0,-7.330167107E-3,6.719320081E-3,1.985253533E-3
1.992875335E0,-8.551862091E-3,6.108472589E-4,-1.679830020E-3
2.002589397E0,-7.330167107E-3,-5.497625098E-3,-2.901524538E-3
2.012302730E0,-8.551862091E-3,-4.275931045E-3,-1.679830020E-3
2.022015178E0,-1.343864016E-2,7.941014133E-3,-4.581354442E-4
2.031728564E0,-2.076880634E-2,1.527118124E-2,3.206948051E-3
2.041442626E0,-1.710372418E-2,1.527118124E-2,5.650337320E-3
2.051155960E0,-2.443389036E-3,1.038440317E-2,5.650337320E-3
2.060868408E0,1.221694518E-2,-3.054236295E-3,1.985253533E-3
2.070581793E0,1.710372418E-2,-9.162709117E-3,-4.581354442E-4
2.080295908E0,1.588202827E-2,-6.719320081E-3,-1.679830020E-3
2.090009137E0,7.330167107E-3,-1.832541777E-3,-1.679830020E-3
2.099721689E0,-3.665083554E-3,6.108472589E-4,-1.679830020E-3
2.109435022E0,-1.343864016E-2,-1.832541777E-3,-1.679830020E-3
2.119149137E0,-1.588202827E-2,-5.497625098E-3,7.635590737E-4
2.128862366E0,-1.221694518E-2,-1.038440317E-2,3.206948051E-3
2.138574918E0,-4.886778072E-3,-2.993151546E-2,6.872031838E-3
2.148288251E0,1.221694518E-3,-4.581354558E-2,1.053711493E-2
2.158002366E0,2.443389036E-3,-3.970507160E-2,1.053711493E-2
2.167715595E0,-2.443389036E-3,-2.015795931E-2,8.093725890E-3
2.177428147E0,-2.443389036E-3,3.054236295E-3,4.428642802E-3
2.187141480E0,-1.221694518E-3,1.649287529E-2,7.635590737E-4
2.196855595E0,1.221694518E-3,1.282779220E-2,7.635590737E-4
2.206568928E0,2.443389036E-3,4.275931045E-3,1.985253533E-3
2.216281376E0,3.665083554E-3,1.832541777E-3,7.635590737E-4
2.225994710E0,1.221694518E-3,-4.275931045E-3,1.985253533E-3
2.235708906E0,-3.665083554E-3,-1.771457121E-2,3.206948051E-3
2.245422240E0,-8.551862091E-3,-2.748812735E-2,1.985253533E-3
2.255134687E0,-7.330167107E-3,-3.115320951E-2,7.635590737E-4
2.264848073E0,1.221694518E-3,-2.626643144E-2,7.635590737E-4
2.274562135E0,7.330167107E-3,-1.527118124E-2,-1.679830020E-3
2.284275469E0,7.330167107E-3,-4.275931045E-3,-1.679830020E-3
2.293987917E0,6.108472589E-3,1.282779220E-2,-1.679830020E-3
2.303701302E0,7.330167107E-3,2.015795931E-2,-4.581354442E-4
2.313415365E0,6.108472589E-3,9.162709117E-3,3.206948051E-3
2.323128698E0,6.108472589E-3,-5.497625098E-3,4.428642802E-3
2.332841146E0,1.099525020E-2,-2.015795931E-2,4.428642802E-3
2.342554531E0,1.954711229E-2,-2.626643144E-2,3.206948051E-3
2.352268594E0,2.321219631E-2,-1.893626526E-2,7.635590737E-4
2.361981927E0,1.954711229E-2,-3.054236295E-3,-2.901524538E-3
2.371694375E0,1.343864016E-2,1.771457121E-2,-4.123218823E-3
2.381407760E0,9.773556143E-3,3.237490356E-2,-4.123218823E-3
2.391121823E0,7.330167107E-3,2.870982140E-2,-4.123218823E-3
2.400835156E0,6.108472589E-3,5.497625098E-3,-2.901524538E-3
2.410547604E0,-0.000000000E0,-1.527118124E-2,7.635590737E-4
2.420260990E0,-4.886778072E-3,-1.649287529E-2,1.985253533E-3
2.429975104E0,-6.108472589E-3,-6.108472589E-4,-4.581354442E-4
2.439688333E0,-1.221694518E-3,1.771457121E-2,-4.123218823E-3
2.449400833E0,4.886778072E-3,2.137965336E-2,-5.344913341E-3
2.459114219E0,4.886778072E-3,1.649287529E-2,-2.901524538E-3
2.468828333E0,3.665083554E-3,9.162709117E-3,-4.581354442E-4
2.478541562E0,-0.000000000E0,3.054236295E-3,1.985253533E-3
2.488254062E0,1.221694518E-3,-6.108472589E-4,3.206948051E-3
2.497967448E0,7.330167107E-3,6.108472589E-4,7.635590737E-4
2.507681562E0,1.466033421E-2,3.054236295E-3,-1.679830020E-3
2.517394792E0,1.221694518E-2,5.497625098E-3,-2.901524538E-3
2.527107344E0,2.443389036E-3,6.719320081E-3,-1.679830020E-3
2.536820677E0,-3.665083554E-3,3.054236295E-3,1.985253533E-3
2.546534792E0,-1.221694518E-3,1.832541777E-3,4.428642802E-3
2.556248021E0,3.665083554E-3,9.162709117E-3,4.428642802E-3
2.565960573E0,6.108472589E-3,1.038440317E-2,1.985253533E-3
2.575673906E0,4.886778072E-3,3.054236295E-3,7.635590737E-4
2.585388021E0,2.443389036E-3,-1.832541777E-3,1.985253533E-3
2.595101250E0,-1.221694518E-3,6.108472589E-4,3.206948051E-3
2.604813802E0,-2.443389036E-3,6.108472589E-4,1.985253533E-3
2.614527135E0,-1.221694518E-3,-4.275931045E-3,1.985253533E-3
2.624241250E0,1.221694518E-3,-5.497625098E-3,3.206948051E-3
2.633954479E0,4.886778072E-3,-9.162709117E-3,3.206948051E-3
2.643667031E0,6.108472589E-3,-7.941014133E-3,7.635590737E-4
2.653380365E0,2.443389036E-3,1.832541777E-3,7.635590737E-4
2.663094479E0,-3.665083554E-3,1.160609815E-2,7.635590737E-4
2.672807708E0,-6.108472589E-3,1.893626526E-2,-4.581354442E-4
2.682520260E0,-7.330167107E-3,2.260134928E-2,7.635590737E-4
2.692233594E0,-6.108472589E-3,1.404948719E-2,4.428642802E-3
2.701947708E0,-1.221694518E-3,-6.719320081E-3,8.093725890E-3
2.711660937E0,2.443389036E-3,-2.382304333E-2,9.315420873E-3
2.721373490E0,4.886778072E-3,-2.260134928E-2,8.093725890E-3
2.731086823E0,2.443389036E-3,-5.497625098E-3,5.650337320E-3
2.740800937E0,-0.000000000E0,1.038440317E-2,1.985253533E-3
2.750514167E0,1.221694518E-3,1.404948719E-2,1.985253533E-3
2.760226719E0,7.330167107E-3,9.162709117E-3,7.635590737E-4
2.769940052E0,9.773556143E-3,1.832541777E-3,7.635590737E-4
2.779654167E0,6.108472589E-3,-1.832541777E-3,3.206948051E-3
2.789367396E0,1.221694518E-3,-9.162709117E-3,4.428642802E-3
2.799079948E0,-2.443389036E-3,-1.282779220E-2,4.428642802E-3
2.808793281E0,-4.886778072E-3,-1.038440317E-2,3.206948051E-3
2.818507396E0,-6.108472589E-3,-4.275931045E-3,-4.581354442E-4
2.828220625E0,-2.443389036E-3,-6.108472589E-4,-2.901524538E-3
2.837933177E0,1.221694518E-3,-1.832541777E-3,-5.344913341E-3
2.847646510E0,2.443389036E-3,-3.054236295E-3,-2.901524538E-3
2.857360625E0,1.221694518E-3,-3.054236295E-3,7.635590737E-4
2.867073854E0,-2.443389036E-3,-6.108472589E-4,3.206948051E-3
2.876786406E0,-2.443389036E-3,-3.054236295E-3,5.650337320E-3
2.886499740E0,-0.000000000E0,-5.497625098E-3,6.872031838E-3
2.896213854E0,2.443389036E-3,-7.941014133E-3,6.872031838E-3
2.905927083E0,1.221694518E-3,-5.497625098E-3,6.872031838E-3
2.915639635E0,2.443389036E-3,-6.108472589E-4,4.428642802E-3
2.925352969E0,6.108472589E-3,1.832541777E-3,3.206948051E-3
2.935067083E0,6.108472589E-3,5.497625098E-3,7.635590737E-4
2.944780312E0,-0.000000000E0,4.275931045E-3,-4.581354442E-4
2.954492865E0,-3.665083554E-3,6.108472589E-4,-4.581354442E-4
2.964206198E0,-1.221694518E-3,1.832541777E-3,1.985253533E-3
2.973920312E0,2.443389036E-3,6.108472589E-4,1.985253533E-3
2.983633542E0,2.443389036E-3,-7.941014133E-3,4.428642802E-3
2.993346042E0,2.443389036E-3,-1.038440317E-2,6.872031838E-3
3.003059427E0,3.665083554E-3,-6.108472589E-4,4.428642802E-3
3.012773542E0,3.665083554E-3,1.160609815E-2,3.206948051E-3
3.022486771E0,2.443389036E-3,1.649287529E-2,1.985253533E-3
3.032199271E0,1.221694518E-3,9.162709117E-3,7.635590737E-4
3.041912656E0,3.665083554E-3,3.054236295E-3,3.206948051E-3
3.051626719E0,6.108472589E-3,5.497625098E-3,4.428642802E-3
3.061340052E0,7.330167107E-3,4.275931045E-3,1.985253533E-3
3.071052500E0,6.108472589E-3,-6.719320081E-3,3.206948051E-3
3.080765885E0,2.443389036E-3,-1.649287529E-2,1.985253533E-3
3.090479948E0,-4.886778072E-3,-1.282779220E-2,3.206948051E-3
3.100193281E0,-9.773556143E-3,6.719320081E-3,3.206948051E-3
3.109905729E0,-6.108472589E-3,2.870982140E-2,-4.581354442E-4
3.119619115E0,-1.221694518E-3,3.115320951E-2,-4.581354442E-4
3.129333177E0,6.108472589E-3,1.404948719E-2,7.635590737E-4
3.139046510E0,1.099525020E-2,-1.160609815E-2,1.985253533E-3
3.148758958E0,8.551862091E-3,-3.481829539E-2,4.428642802E-3
3.158472344E0,-0.000000000E0,-3.726168349E-2,4.428642802E-3
3.168186406E0,-6.108472589E-3,-1.282779220E-2,3.206948051E-3
3.177899740E0,-3.665083554E-3,6.719320081E-3,7.635590737E-4
3.187612187E0,3.665083554E-3,1.527118124E-2,-4.581354442E-4
3.197325521E0,9.773556143E-3,2.015795931E-2,-1.679830020E-3
3.207039635E0,7.330167107E-3,1.282779220E-2,7.635590737E-4
3.216752865E0,-1.221694518E-3,-5.497625098E-3,4.428642802E-3
3.226465417E0,-6.108472589E-3,-1.771457121E-2,8.093725890E-3
3.236178750E0,-3.665083554E-3,-1.038440317E-2,6.872031838E-3
3.245892865E0,1.221694518E-3,6.108472589E-4,4.428642802E-3
3.255606094E0,3.665083554E-3,-6.108472589E-4,4.428642802E-3
3.265318646E0,2.443389036E-3,-4.275931045E-3,5.650337320E-3
3.275031979E0,-1.221694518E-3,-4.275931045E-3,5.650337320E-3
3.284746094E0,-3.665083554E-3,4.275931045E-3,4.428642802E-3
3.294459323E0,-2.443389036E-3,1.282779220E-2,1.985253533E-3
3.304171823E0,-0.000000000E0,9.162709117E-3,1.985253533E-3
3.313885208E0,-0.000000000E0,-6.108472589E-4,7.635590737E-4
3.323599271E0,-1.221694518E-3,-1.038440317E-2,7.635590737E-4
3.333312604E0,-1.221694518E-3,-1.527118124E-2,3.206948051E-3
3.343025052E0,-2.443389036E-3,-2.015795931E-2,6.872031838E-3
3.352738385E0,-6.108472589E-3,-2.015795931E-2,6.872031838E-3
3.362452500E0,-6.108472589E-3,-1.771457121E-2,5.650337320E-3
3.372165833E0,-4.886778072E-3,-4.275931045E-3,8.093725890E-3
3.381878281E0,-2.443389036E-3,7.941014133E-3,5.650337320E-3
3.391591615E0,-1.221694518E-3,1.893626526E-2,4.428642802E-3
3.401305729E0,2.443389036E-3,2.137965336E-2,1.985253533E-3
3.411018958E0,4.886778072E-3,3.054236295E-3,-4.581354442E-4
3.420731510E0,2.443389036E-3,-2.626643144E-2,3.206948051E-3
3.430444844E0,-3.665083554E-3,-3.603998944E-2,5.650337320E-3
3.440158958E0,-6.108472589E-3,-1.771457121E-2,4.428642802E-3
3.449872187E0,-4.886778072E-3,3.054236295E-3,-1.679830020E-3
3.459584687E0,-0.000000000E0,1.282779220E-2,-5.344913341E-3
3.469298073E0,7.330167107E-3,2.626643144E-2,-9.009997360E-3
3.479012135E0,1.221694518E-2,3.603998944E-2,-1.145338640E-2
3.488725469E0,9.773556143E-3,1.771457121E-2,-6.566607859E-3
3.498437917E0,-1.221694518E-3,-2.137965336E-2,7.635590737E-4
3.508151302E0,-9.773556143E-3,-4.214845970E-2,6.872031838E-3
3.517865365E0,-8.551862091E-3,-2.993151546E-2,6.872031838E-3
3.527578698E0,-3.665083554E-3,-1.832541777E-3,4.428642802E-3
3.537291146E0,-2.443389036E-3,1.404948719E-2,-4.581354442E-4
3.547004479E0,-1.221694518E-3,1.038440317E-2,-4.581354442E-4
3.556718594E0,4.886778072E-3,1.160609815E-2,-4.581354442E-4
3.566431823E0,1.343864016E-2,2.260134928E-2,-2.901524538E-3
3.576144375E0,1.588202827E-2,2.137965336E-2,-2.901524538E-3
3.585857708E0,1.099525020E-2,6.108472589E-4,-1.679830020E-3
3.595571823E0,2.443389036E-3,-1.160609815E-2,7.635590737E-4
3.605285052E0,-4.886778072E-3,-7.941014133E-3,7.635590737E-4
3.614997552E0,-6.108472589E-3,-5.497625098E-3,7.635590737E-4
3.624710937E0,-6.108472589E-3,-7.941014133E-3,-4.581354442E-4
3.634425000E0,-4.886778072E-3,-3.054236295E-3,-4.581354442E-4
3.644138333E0,-2.443389036E-3,3.054236295E-3,-4.581354442E-4
3.653850781E0,-1.221694518E-3,1.832541777E-3,7.635590737E-4
3.663564115E0,-0.000000000E0,1.832541777E-3,1.985253533E-3
3.673278229E0,3.665083554E-3,7.941014133E-3,7.635590737E-4
3.682991458E0,2.443389036E-3,5.497625098E-3,-1.679830020E-3
3.692704010E0,-0.000000000E0,-6.108472589E-4,-1.679830020E-3
3.702417344E0,-3.665083554E-3,-7.941014133E-3,-2.901524538E-3
3.712131458E0,-6.108472589E-3,-1.771457121E-2,-1.679830020E-3
3.721844687E0,-3.665083554E-3,-1.893626526E-2,-4.581354442E-4
3.731557187E0,2.443389036E-3,-6.719320081E-3,7.635590737E-4
3.741270573E0,2.443389036E-3,4.275931045E-3,-4.581354442E-4
3.750984635E0,-2.443389036E-3,1.160609815E-2,-4.581354442E-4
3.760697969E0,-8.551862091E-3,1.771457121E-2,-4.581354442E-4
3.770410417E0,-4.886778072E-3,1.771457121E-2,-4.581354442E-4
3.780123750E0,2.443389036E-3,4.275931045E-3,-4.581354442E-4
3.789837865E0,3.665083554E-3,-1.771457121E-2,7.635590737E-4
3.799551094E0,-0.000000000E0,-2.870982140E-2,1.985253533E-3
3.809263594E0,-2.443389036E-3,-2.137965336E-2,3.206948051E-3
3.818976979E0,-2.443389036E-3,-1.282779220E-2,1.985253533E-3
3.828691042E0,-1.221694518E-3,-3.054236295E-3,7.635590737E-4
3.838404375E0,-1.221694518E-3,1.404948719E-2,-1.679830020E-3
3.848116823E0,-1.221694518E-3,2.993151546E-2,-4.123218823E-3
3.857830208E0,-4.886778072E-3,2.504473738E-2,-2.901524538E-3
3.867544271E0,-7.330167107E-3,-6.108472589E-4,-4.581354442E-4
3.877257500E0,-7.330167107E-3,-1.649287529E-2,3.206948051E-3
3.886970052E0,-0.000000000E0,-9.162709117E-3,1.985253533E-3
3.896683385E0,6.108472589E-3,-1.832541777E-3,-4.581354442E-4
3.906397448E0,3.665083554E-3,-1.038440317E-2,-1.679830020E-3
3.916110781E0,1.221694518E-3,-2.015795931E-2,-4.581354442E-4
3.925823229E0,-0.000000000E0,-1.649287529E-2,7.635590737E-4
3.935536615E0,2.443389036E-3,6.108472589E-4,-1.679830020E-3
3.945250677E0,6.108472589E-3,1.282779220E-2,-4.123218823E-3
3.954963906E0,3.665083554E-3,1.160609815E-2,-2.901524538E-3
3.964676458E0,-0.000000000E0,3.054236295E-3,-4.581354442E-4
3.974389792E0,-1.221694518E-3,-7.941014133E-3,7.635590737E-4
3.984103906E0,-2.443389036E-3,-1.282779220E-2,7.635590737E-4
3.993817135E0,-3.665083554E-3,-1.160609815E-2,-4.581354442E-4
4.003529635E0,-6.108472589E-3,-1.160609815E-2,-4.581354442E-4
4.013243021E0,-7.330167107E-3,-7.941014133E-3,7.635590737E-4
4.022957083E0,-3.665083554E-3,6.719320081E-3,-4.581354442E-4
4.032670417E0,1.221694518E-3,2.382304333E-2,-2.901524538E-3
4.042382865E0,-0.000000000E0,1.038440317E-2,-1.679830020E-3
4.052096198E0,-2.443389036E-3,-2.015795931E-2,3.206948051E-3
4.061810312E0,-4.886778072E-3,-2.626643144E-2,4.428642802E-3
4.071523542E0,-7.330167107E-3,-1.282779220E-2,4.428642802E-3
4.081236042E0,-8.551862091E-3,6.719320081E-3,3.206948051E-3
4.090949427E0,-6.108472589E-3,2.748812735E-2,-4.581354442E-4
4.100663490E0,-1.221694518E-3,3.237490356E-2,-1.679830020E-3
4.110376823E0,1.221694518E-3,2.748812735E-2,-4.581354442E-4
4.120089271E0,-0.000000000E0,1.282779220E-2,-1.679830020E-3
4.129802604E0,-3.665083554E-3,-1.282779220E-2,7.635590737E-4
4.139516719E0,-6.108472589E-3,-2.870982140E-2,4.428642802E-3
4.149229948E0,-8.551862091E-3,-2.382304333E-2,5.650337320E-3
4.158942448E0,-4.886778072E-3,-6.719320081E-3,1.985253533E-3
4.168655833E0,2.443389036E-3,1.404948719E-2,-4.123218823E-3
4.178369896E0,9.773556143E-3,2.993151546E-2,-6.566607859E-3
4.188083229E0,1.466033421E-2,2.870982140E-2,-1.023169141E-2
4.197795677E0,1.221694518E-2,9.162709117E-3,-6.566607859E-3
4.207509010E0,6.108472589E-3,-1.404948719E-2,-1.679830020E-3
4.217223125E0,-4.886778072E-3,-2.748812735E-2,1.985253533E-3
4.226936354E0,-8.551862091E-3,-1.893626526E-2,5.650337320E-3
4.236648854E0,-2.443389036E-3,7.941014133E-3,3.206948051E-3
4.246362240E0,2.443389036E-3,2.137965336E-2,-1.679830020E-3
4.256076302E0,2.443389036E-3,1.404948719E-2,-1.679830020E-3
4.265789531E0,-2.443389036E-3,9.162709117E-3,-1.679830020E-3
4.275502083E0,-6.108472589E-3,-6.108472589E-4,-1.679830020E-3
4.285215417E0,-4.886778072E-3,-1.893626526E-2,-1.679830020E-3
4.294929531E0,-2.443389036E-3,-2.993151546E-2,-1.679830020E-3
4.304642760E0,-1.221694518E-3,-1.771457121E-2,-4.581354442E-4
4.314355260E0,-1.221694518E-3,7.941014133E-3,-1.679830020E-3
4.324068646E0,-2.443389036E-3,2.626643144E-2,-2.901524538E-3
4.333782708E0,-4.886778072E-3,2.626643144E-2,-4.581354442E-4
4.343496042E0,-3.665083554E-3,2.015795931E-2,7.635590737E-4
4.353208490E0,4.886778072E-3,5.497625098E-3,7.635590737E-4
4.362921823E0,1.588202827E-2,-1.771457121E-2,-4.581354442E-4
4.372635937E0,1.588202827E-2,-3.481829539E-2,1.985253533E-3
4.382349167E0,7.330167107E-3,-3.359659761E-2,1.985253533E-3
4.392061667E0,1.221694518E-3,-6.719320081E-3,7.635590737E-4
4.401775052E0,2.443389036E-3,2.504473738E-2,-1.679830020E-3
4.411489115E0,7.330167107E-3,2.748812735E-2,-6.566607859E-3
4.421202448E0,9.773556143E-3,6.719320081E-3,-7.788302377E-3
4.430914896E0,9.773556143E-3,-2.015795931E-2,-5.344913341E-3
4.440628229E0,7.330167107E-3,-3.237490356E-2,-2.901524538E-3
4.450342344E0,3.665083554E-3,-2.993151546E-2,-4.581354442E-4
4.460055573E0,-1.221694518E-3,-1.649287529E-2,-1.679830020E-3
4.469768073E0,-0.000000000E0,6.108472589E-4,-5.344913341E-3
4.479481458E0,-2.443389036E-3,3.054236295E-3,-9.009997360E-3
4.489195521E0,-3.665083554E-3,-5.497625098E-3,-7.788302377E-3
4.498908854E0,-3.665083554E-3,-5.497625098E-3,-5.344913341E-3
4.508621302E0,-1.221694518E-3,6.719320081E-3,-2.901524538E-3
4.518334635E0,2.443389036E-3,6.719320081E-3,-4.581354442E-4
4.528048750E0,3.665083554E-3,-1.160609815E-2,1.985253533E-3
4.537761979E0,1.221694518E-3,-2.382304333E-2,1.985253533E-3
4.547474479E0,-2.443389036E-3,-1.893626526E-2,1.985253533E-3
4.557187865E0,-7.330167107E-3,-1.282779220E-2,-1.679830020E-3
4.566901927E0,-1.099525020E-2,-1.160609815E-2,-1.679830020E-3
4.576615260E0,-8.551862091E-3,-6.719320081E-3,-1.679830020E-3
4.586327708E0,-1.221694518E-3,1.160609815E-2,7.635590737E-4
4.596041042E0,7.330167107E-3,2.870982140E-2,-4.581354442E-4
4.605755156E0,1.343864016E-2,3.726168349E-2,7.635590737E-4
4.615468385E0,1.588202827E-2,2.748812735E-2,1.985253533E-3
4.625180885E0,1.099525020E-2,5.497625098E-3,1.985253533E-3
4.634894271E0,7.330167107E-3,-1.282779220E-2,4.428642802E-3
4.644608333E0,-1.221694518E-3,-1.282779220E-2,4.428642802E-3
4.654321667E0,-8.551862091E-3,-1.832541777E-3,1.985253533E-3
4.664034115E0,-1.099525020E-2,9.162709117E-3,7.635590737E-4
4.673747448E0,-3.665083554E-3,1.649287529E-2,-4.581354442E-4
4.683461562E0,3.665083554E-3,2.626643144E-2,-1.679830020E-3
4.693174792E0,2.443389036E-3,3.115320951E-2,-4.123218823E-3
4.702887344E0,1.221694518E-3,2.870982140E-2,-2.901524538E-3
4.712600677E0,1.221694518E-3,9.162709117E-3,-1.679830020E-3
4.722314740E0,2.443389036E-3,-1.893626526E-2,-1.679830020E-3
4.732028073E0,2.443389036E-3,-2.626643144E-2,-1.679830020E-3
4.741740521E0,-2.443389036E-3,-1.527118124E-2,-2.901524538E-3
4.751453906E0,-7.330167107E-3,-7.941014133E-3,-4.123218823E-3
4.761167969E0,-6.108472589E-3,-1.832541777E-3,-2.901524538E-3
4.770881198E0,-2.443389036E-3,9.162709117E-3,-1.679830020E-3
4.780593750E0,1.221694518E-3,1.649287529E-2,-2.901524538E-3
4.790307083E0,-0.000000000E0,1.282779220E-2,-4.581354442E-4
4.800021198E0,1.221694518E-3,6.719320081E-3,1.985253533E-3
4.809734427E0,2.443389036E-3,-4.275931045E-3,3.206948051E-3
4.819446927E0,-0.000000000E0,-1.527118124E-2,7.635590737E-4
4.829160312E0,-3.665083554E-3,-1.893626526E-2,-4.581354442E-4
4.838874375E0,-6.108472589E-3,-1.649287529E-2,-1.679830020E-3
4.848587708E0,-1.221694518E-3,4.275931045E-3,-1.679830020E-3
4.858300156E0,4.886778072E-3,2.260134928E-2,-1.679830020E-3
4.868013490E0,6.108472589E-3,1.649287529E-2,-1.679830020E-3
4.877727604E0,1.221694518E-3,4.275931045E-3,-4.581354442E-4
4.887440833E0,-3.665083554E-3,1.832541777E-3,1.985253533E-3
4.897153333E0,-8.551862091E-3,-1.832541777E-3,7.635590737E-4
4.906866719E0,-1.221694518E-2,-1.282779220E-2,7.635590737E-4
4.916580781E0,-1.099525020E-2,-2.260134928E-2,7.635590737E-4
4.926294115E0,-3.665083554E-3,-1.038440317E-2,-4.581354442E-4
4.936006562E0,6.108472589E-3,1.282779220E-2,-2.901524538E-3
4.945719896E0,1.588202827E-2,1.771457121E-2,-6.566607859E-3
4.955434010E0,1.588202827E-2,9.162709117E-3,-2.901524538E-3
4.965147240E0,7.330167107E-3,-4.275931045E-3,-4.581354442E-4
4.974859792E0,-3.665083554E-3,-1.404948719E-2,1.985253533E-3
4.984573125E0,-1.099525020E-2,-1.404948719E-2,3.206948051E-3
4.994287187E0,-7.330167107E-3,-5.497625098E-3,1.985253533E-3
5.004000521E0,-0.000000000E0,3.054236295E-3,-2.901524538E-3
5.013712969E0,4.886778072E-3,9.162709117E-3,-4.123218823E-3
5.023426302E0,4.886778072E-3,1.038440317E-2,-5.344913341E-3
5.033140417E0,1.221694518E-3,9.162709117E-3,-2.901524538E-3
5.042853646E0,-4.886778072E-3,3.054236295E-3,-4.581354442E-4
5.052566198E0,-7.330167107E-3,-5.497625098E-3,3.206948051E-3
5.062279531E0,-6.108472589E-3,-1.527118124E-2,5.650337320E-3
5.071993646E0,-1.221694518E-3,-1.282779220E-2,5.650337320E-3
5.081706875E0,1.221694518E-3,-1.832541777E-3,5.650337320E-3
5.091419375E0,6.108472589E-3,9.162709117E-3,3.206948051E-3
5.101132760E0,7.330167107E-3,9.162709117E-3,-4.581354442E-4
5.110846823E0,3.665083554E-3,1.832541777E-3,-1.679830020E-3
5.120560052E0,-1.221694518E-3,1.832541777E-3,-2.901524538E-3
5.130272604E0,-4.886778072E-3,5.497625098E-3,-4.123218823E-3
5.139985937E0,-4.886778072E-3,4.275931045E-3,-2.901524538E-3
5.149700052E0,-3.665083554E-3,-4.275931045E-3,7.635590737E-4
5.159413281E0,-3.665083554E-3,-1.404948719E-2,5.650337320E-3
5.169125781E0,-0.000000000E0,-9.162709117E-3,5.650337320E-3
5.178839167E0,7.330167107E-3,1.160609815E-2,1.985253533E-3
5.188553229E0,9.773556143E-3,2.504473738E-2,-1.679830020E-3
5.198266562E0,6.108472589E-3,2.626643144E-2,-1.679830020E-3
5.207979010E0,-0.000000000E0,1.771457121E-2,-1.679830020E-3
5.217692344E0,-1.221694518E-3,7.941014133E-3,-4.581354442E-4
5.227406458E0,2.443389036E-3,3.054236295E-3,7.635590737E-4
5.237119687E0,1.221694518E-3,-7.941014133E-3,7.635590737E-4
5.246832187E0,-4.886778072E-3,-2.015795931E-2,3.206948051E-3
5.256545573E0,-6.108472589E-3,-1.160609815E-2,1.985253533E-3
5.266259635E0,-3.665083554E-3,3.054236295E-3,-1.679830020E-3
5.275972969E0,-1.221694518E-3,1.832541777E-3,-1.679830020E-3
5.285685417E0,-2.443389036E-3,-5.497625098E-3,-1.679830020E-3
5.295398750E0,-6.108472589E-3,7.941014133E-3,-4.581354442E-4
5.305112865E0,-1.099525020E-2,2.626643144E-2,7.635590737E-4
5.314826094E0,-9.773556143E-3,2.504473738E-2,7.635590737E-4
5.324538594E0,1.221694518E-3,9.162709117E-3,7.635590737E-4
5.334251979E0,1.099525020E-2,-1.160609815E-2,4.428642802E-3
5.343966042E0,1.343864016E-2,-2.382304333E-2,3.206948051E-3
5.353679375E0,7.330167107E-3,-2.015795931E-2,1.985253533E-3
5.363391823E0,1.221694518E-3,-3.054236295E-3,-4.581354442E-4
5.373105156E0,-1.221694518E-3,1.527118124E-2,-4.123218823E-3
5.382819271E0,-4.886778072E-3,2.260134928E-2,-6.566607859E-3
5.392532500E0,-9.773556143E-3,1.282779220E-2,-5.344913341E-3
5.402245052E0,-9.773556143E-3,5.497625098E-3,-4.581354442E-4
5.411958385E0,-1.221694518E-3,7.941014133E-3,1.985253533E-3
5.421672448E0,6.108472589E-3,1.832541777E-3,1.985253533E-3
5.431385781E0,4.886778072E-3,-9.162709117E-3,4.428642802E-3
5.441098229E0,-3.665083554E-3,-9.162709117E-3,6.872031838E-3
5.450811562E0,-1.099525020E-2,6.108472589E-4,8.093725890E-3
5.460525677E0,-1.099525020E-2,6.719320081E-3,5.650337320E-3
5.470238906E0,-1.221694518E-3,6.108472589E-4,3.206948051E-3
5.479951458E0,8.551862091E-3,-4.275931045E-3,1.985253533E-3
5.489664792E0,7.330167107E-3,-4.275931045E-3,-4.581354442E-4
5.499378854E0,-0.000000000E0,-1.832541777E-3,-1.679830020E-3
5.509092187E0,-6.108472589E-3,4.275931045E-3,7.635590737E-4
5.518804635E0,-3.665083554E-3,1.160609815E-2,-2.901524538E-3
5.528517969E0,-0.000000000E0,9.162709117E-3,-5.344913341E-3
5.538232083E0,1.221694518E-3,-3.054236295E-3,-4.123218823E-3
5.547945312E0,-1.221694518E-3,-1.282779220E-2,-4.581354442E-4
5.557657865E0,-2.443389036E-3,-1.160609815E-2,1.985253533E-3
5.567371198E0,-2.443389036E-3,-1.832541777E-3,1.985253533E-3
5.577085260E0,-2.443389036E-3,4.275931045E-3,7.635590737E-4
5.586798594E0,-3.665083554E-3,3.054236295E-3,-4.581354442E-4
5.596511042E0,-6.108472589E-3,-5.497625098E-3,7.635590737E-4
5.606224427E0,-4.886778072E-3,-1.038440317E-2,1.985253533E-3
5.615938490E0,1.221694518E-3,-6.108472589E-4,1.985253533E-3
5.625651719E0,7.330167107E-3,4.275931045E-3,-4.581354442E-4
5.635364271E0,9.773556143E-3,-1.832541777E-3,1.985253533E-3
5.645077604E0,8.551862091E-3,-7.941014133E-3,1.985253533E-3
5.654791667E0,6.108472589E-3,-7.941014133E-3,3.206948051E-3
5.664505000E0,1.221694518E-3,3.054236295E-3,1.985253533E-3
5.674217448E0,-4.886778072E-3,1.893626526E-2,-4.581354442E-4
5.683930781E0,-6.108472589E-3,2.015795931E-2,-4.581354442E-4
5.693644896E0,-2.443389036E-3,6.719320081E-3,-1.679830020E-3
5.703358125E0,2.443389036E-3,-6.108472589E-4,7.635590737E-4
5.713070677E0,1.221694518E-3,-7.941014133E-3,1.985253533E-3
5.722784010E0,-2.443389036E-3,-1.160609815E-2,4.428642802E-3
5.732498073E0,-1.221694518E-3,-4.275931045E-3,4.428642802E-3
5.742211406E0,4.886778072E-3,7.941014133E-3,7.635590737E-4
5.751923854E0,7.330167107E-3,1.893626526E-2,-1.679830020E-3
5.761637187E0,2.443389036E-3,2.015795931E-2,-1.679830020E-3
5.771351302E0,-6.108472589E-3,6.719320081E-3,1.985253533E-3
5.781064531E0,-1.099525020E-2,-1.404948719E-2,5.650337320E-3
5.790777031E0,-6.108472589E-3,-1.771457121E-2,6.872031838E-3
5.800490417E0,2.443389036E-3,-6.108472589E-4,4.428642802E-3
5.810204479E0,9.773556143E-3,1.893626526E-2,7.635590737E-4
5.819917812E0,9.773556143E-3,1.527118124E-2,-1.679830020E-3
5.829630260E0,6.108472589E-3,-1.832541777E-3,-2.901524538E-3
5.839343594E0,1.221694518E-3,-1.282779220E-2,-1.679830020E-3
5.849057708E0,1.221694518E-3,-1.527118124E-2,-4.581354442E-4
5.858770937E0,3.665083554E-3,-6.719320081E-3,-1.679830020E-3
5.868483437E0,7.330167107E-3,9.162709117E-3,-1.679830020E-3
5.878196823E0,6.108472589E-3,2.015795931E-2,-4.581354442E-4
5.887910885E0,2.443389036E-3,1.160609815E-2,1.985253533E-3
5.897624219E0,-2.443389036E-3,-1.404948719E-2,5.650337320E-3
5.907336667E0,-7.330167107E-3,-2.748812735E-2,8.093725890E-3
5.917050000E0,-9.773556143E-3,-1.404948719E-2,5.650337320E-3
5.926764115E0,-6.108472589E-3,1.038440317E-2,-4.581354442E-4
5.936477344E0,-2.443389036E-3,2.015795931E-2,-2.901524538E-3
5.946189844E0,-3.665083554E-3,7.941014133E-3,-4.581354442E-4
5.955903177E0,-6.108472589E-3,-7.941014133E-3,3.206948051E-3
5.965617292E0,-9.773556143E-3,-1.038440317E-2,5.650337320E-3
5.975330521E0,-1.221694518E-2,6.108472589E-4,6.872031838E-3
5.985043073E0,-1.099525020E-2,9.162709117E-3,9.315420873E-3
5.994756406E0,-3.665083554E-3,5.497625098E-3,1.053711493E-2
6.004470469E0,4.886778072E-3,1.832541777E-3,9.315420873E-3
6.014183802E0,7.330167107E-3,9.162709117E-3,8.093725890E-3
6.023896250E0,6.108472589E-3,1.771457121E-2,5.650337320E-3
6.033609583E0,3.665083554E-3,1.282779220E-2,5.650337320E-3
6.043323698E0,2.443389036E-3,6.108472589E-4,5.650337320E-3
6.053036927E0,2.443389036E-3,-7.941014133E-3,4.428642802E-3
6.062749427E0,-0.000000000E0,-1.404948719E-2,3.206948051E-3
6.072462812E0,-1.221694518E-3,-2.137965336E-2,3.206948051E-3
6.082176875E0,1.221694518E-3,-2.137965336E-2,1.985253533E-3
6.091890208E0,6.108472589E-3,3.054236295E-3,-1.679830020E-3
6.101602656E0,1.343864016E-2,3.359659761E-2,-9.009997360E-3
6.111315990E0,8.551862091E-3,3.359659761E-2,-7.788302377E-3
6.121030104E0,-2.443389036E-3,1.527118124E-2,-2.901524538E-3
6.130743333E0,-9.773556143E-3,-6.108472589E-4,3.206948051E-3
6.140455833E0,-9.773556143E-3,-2.015795931E-2,6.872031838E-3
6.150169167E0,-6.108472589E-3,-3.970507160E-2,9.315420873E-3
6.159883281E0,1.221694518E-3,-4.581354558E-2,1.053711493E-2
6.169596510E0,4.886778072E-3,-3.603998944E-2,9.315420873E-3
6.179309062E0,4.886778072E-3,-1.404948719E-2,4.428642802E-3
6.189022396E0,3.665083554E-3,1.649287529E-2,-4.581354442E-4
6.198736458E0,1.221694518E-3,4.092676565E-2,-2.901524538E-3
6.208449792E0,-1.221694518E-3,3.970507160E-2,-2.901524538E-3
6.218162240E0,-7.330167107E-3,1.527118124E-2,7.635590737E-4
6.227875573E0,-9.773556143E-3,6.108472589E-4,5.650337320E-3
6.237589687E0,-9.773556143E-3,-4.275931045E-3,9.315420873E-3
6.247302917E0,-8.551862091E-3,-6.719320081E-3,1.053711493E-2
6.257015417E0,-4.886778072E-3,-1.160609815E-2,1.420219894E-2
6.266728802E0,-0.000000000E0,-1.160609815E-2,1.664558798E-2
6.276442865E0,9.773556143E-3,-1.832541777E-3,1.420219894E-2
6.286156094E0,1.466033421E-2,1.649287529E-2,1.053711493E-2
6.295868646E0,1.710372418E-2,3.359659761E-2,8.093725890E-3
6.305581979E0,1.099525020E-2,3.359659761E-2,5.650337320E-3
6.315296042E0,-0.000000000E0,2.504473738E-2,5.650337320E-3
6.325009375E0,-6.108472589E-3,1.771457121E-2,3.206948051E-3
6.334721823E0,-4.886778072E-3,1.038440317E-2,7.635590737E-4
6.344435156E0,-1.221694518E-3,-1.832541777E-3,-4.581354442E-4
6.354149271E0,-0.000000000E0,-1.649287529E-2,1.985253533E-3
6.363862500E0,-2.443389036E-3,-1.282779220E-2,4.428642802E-3
6.373575000E0,-0.000000000E0,-6.108472589E-4,3.206948051E-3
6.383288385E0,2.443389036E-3,5.497625098E-3,1.985253533E-3
6.393002448E0,4.886778072E-3,5.497625098E-3,7.635590737E-4
6.402715677E0,4.886778072E-3,-6.108472589E-4,-4.581354442E-4
6.412428229E0,7.330167107E-3,-6.719320081E-3,7.635590737E-4
6.422141562E0,7.330167107E-3,-6.719320081E-3,1.985253533E-3
6.431855625E0,3.665083554E-3,-6.108472589E-4,3.206948051E-3
6.441568958E0,-1.221694518E-3,4.275931045E-3,3.206948051E-3
6.451281406E0,-6.108472589E-3,1.832541777E-3,3.206948051E-3
6.460994740E0,-7.330167107E-3,6.108472589E-4,1.985253533E-3
6.470708854E0,-3.665083554E-3,1.832541777E-3,-1.679830020E-3
6.480422083E0,1.221694518E-3,-3.054236295E-3,-4.123218823E-3
6.490134583E0,3.665083554E-3,-1.038440317E-2,-4.581354442E-4
6.499847969E0,3.665083554E-3,-2.137965336E-2,1.985253533E-3
6.509562031E0,2.443389036E-3,-2.626643144E-2,4.428642802E-3
6.519275260E0,2.443389036E-3,-2.015795931E-2,5.650337320E-3
6.528987812E0,6.108472589E-3,-7.941014133E-3,5.650337320E-3
6.538701146E0,1.099525020E-2,-6.108472589E-4,3.206948051E-3
6.548415208E0,1.588202827E-2,-7.941014133E-3,-4.581354442E-4
6.558128542E0,1.832541823E-2,-2.626643144E-2,-5.344913341E-3
6.567840990E0,1.710372418E-2,-4.214845970E-2,-6.566607859E-3
6.577554323E0,1.221694518E-2,-4.581354558E-2,-5.344913341E-3
6.587268437E0,6.108472589E-3,-3.970507160E-2,-5.344913341E-3
6.596981667E0,-0.000000000E0,-2.626643144E-2,-9.009997360E-3
6.606694167E0,-3.665083554E-3,-5.497625098E-3,-1.023169141E-2
6.616407500E0,-4.886778072E-3,1.649287529E-2,-1.511846948E-2
6.626121615E0,-4.886778072E-3,2.870982140E-2,-1.511846948E-2
6.635834844E0,-4.886778072E-3,2.260134928E-2,-1.267508045E-2
6.645547344E0,-3.665083554E-3,-5.497625098E-3,-7.788302377E-3
6.655260729E0,-2.443389036E-3,-2.870982140E-2,-1.679830020E-3
6.664974792E0,-2.443389036E-3,-2.748812735E-2,3.206948051E-3
6.674688125E0,-4.886778072E-3,-5.497625098E-3,4.428642802E-3
6.684400573E0,-3.665083554E-3,7.941014133E-3,3.206948051E-3
6.694113906E0,-0.000000000E0,1.832541777E-3,5.650337320E-3
6.703827969E0,2.443389036E-3,-3.054236295E-3,5.650337320E-3
6.713541302E0,3.665083554E-3,9.162709117E-3,4.428642802E-3
6.723253750E0,1.221694518E-3,2.137965336E-2,1.985253533E-3
6.732967083E0,-1.221694518E-3,1.649287529E-2,1.985253533E-3
6.742681198E0,-1.221694518E-3,-6.108472589E-4,6.872031838E-3
6.752394427E0,-0.000000000E0,-1.404948719E-2,8.093725890E-3
6.762106927E0,-1.221694518E-3,-3.054236295E-3,8.093725890E-3
6.771820312E0,-3.665083554E-3,1.771457121E-2,6.872031838E-3
6.781534375E0,-3.665083554E-3,2.504473738E-2,3.206948051E-3
6.791247604E0,-2.443389036E-3,1.771457121E-2,-4.581354442E-4
6.800960104E0,-0.000000000E0,3.054236295E-3,-2.901524538E-3
6.810673490E0,-1.221694518E-3,-1.404948719E-2,-2.901524538E-3
6.820387552E0,-1.221694518E-3,-1.282779220E-2,-4.581354442E-4
6.830100885E0,-1.221694518E-3,1.832541777E-3,7.635590737E-4
6.839813333E0,-1.221694518E-3,1.404948719E-2,1.985253533E-3
6.849526667E0,4.886778072E-3,1.893626526E-2,3.206948051E-3
6.859240729E0,1.466033421E-2,2.504473738E-2,7.635590737E-4
6.868954062E0,1.588202827E-2,2.015795931E-2,-1.679830020E-3
6.878666510E0,6.108472589E-3,-6.108472589E-4,-2.901524538E-3
6.888379844E0,-4.886778072E-3,-1.527118124E-2,-4.581354442E-4
6.898093958E0,-1.099525020E-2,-1.893626526E-2,-4.581354442E-4
6.907807187E0,-9.773556143E-3,-1.527118124E-2,-2.901524538E-3
6.917519687E0,-6.108472589E-3,-3.054236295E-3,-4.123218823E-3
6.927233021E0,-1.221694518E-3,1.038440317E-2,-2.901524538E-3
6.936947135E0,1.221694518E-3,1.404948719E-2,-2.901524538E-3
6.946660365E0,1.221694518E-3,5.497625098E-3,-2.901524538E-3
6.956372865E0,2.443389036E-3,-1.282779220E-2,-1.679830020E-3
6.966086250E0,-0.000000000E0,-2.015795931E-2,7.635590737E-4
6.975800312E0,-3.665083554E-3,-7.941014133E-3,-4.581354442E-4
6.985513646E0,-6.108472589E-3,5.497625098E-3,-4.581354442E-4
6.995226094E0,-6.108472589E-3,7.941014133E-3,7.635590737E-4
7.004939427E0,-6.108472589E-3,-6.108472589E-4,7.635590737E-4
7.014653490E0,-8.551862091E-3,-1.038440317E-2,1.985253533E-3
7.024366823E0,-4.886778072E-3,-9.162709117E-3,1.985253533E-3
7.034079271E0,3.665083554E-3,6.108472589E-4,7.635590737E-4
7.043792604E0,1.221694518E-2,3.054236295E-3,-4.581354442E-4
7.053506719E0,1.466033421E-2,-4.275931045E-3,-1.679830020E-3
7.063219948E0,8.551862091E-3,-1.038440317E-2,-4.581354442E-4
7.072932448E0,-0.000000000E0,6.108472589E-4,-4.581354442E-4
7.082645781E0,-6.108472589E-3,1.893626526E-2,7.635590737E-4
7.092359896E0,-7.330167107E-3,2.626643144E-2,7.635590737E-4
7.102073125E0,-1.221694518E-3,1.038440317E-2,-4.581354442E-4
7.111785625E0,7.330167107E-3,-1.160609815E-2,7.635590737E-4
7.121499010E0,7.330167107E-3,-1.771457121E-2,-1.679830020E-3
7.131213073E0,-1.221694518E-3,-1.404948719E-2,-2.901524538E-3
7.140926302E0,-1.099525020E-2,-1.160609815E-2,-1.679830020E-3
7.150638854E0,-1.710372418E-2,-1.282779220E-2,-1.679830020E-3
7.160352187E0,-1.588202827E-2,-9.162709117E-3,-1.679830020E-3
7.170066250E0,-1.221694518E-2,-1.832541777E-3,-2.901524538E-3
7.179779583E0,-1.221694518E-2,6.719320081E-3,-2.901524538E-3
7.189492031E0,-1.466033421E-2,1.404948719E-2,7.635590737E-4
7.199205365E0,-1.221694518E-2,7.941014133E-3,1.985253533E-3
7.208919427E0,-4.886778072E-3,-1.649287529E-2,1.985253533E-3
7.218632760E0,4.886778072E-3,-3.603998944E-2,1.985253533E-3
7.228345208E0,1.343864016E-2,-3.481829539E-2,-4.581354442E-4
7.238058542E0,1.466033421E-2,-2.015795931E-2,-4.123218823E-3
7.247772656E0,7.330167107E-3,-5.497625098E-3,-4.123218823E-3
7.257485885E0,2.443389036E-3,4.275931045E-3,-4.123218823E-3
7.267198385E0,3.665083554E-3,1.832541777E-3,-2.901524538E-3
7.276911719E0,4.886778072E-3,-1.404948719E-2,-1.679830020E-3
7.286625833E0,-0.000000000E0,-2.260134928E-2,-4.581354442E-4
7.296339062E0,-6.108472589E-3,-1.893626526E-2,-4.581354442E-4
7.306051562E0,-4.886778072E-3,-6.719320081E-3,-4.123218823E-3
7.315764896E0,-2.443389036E-3,4.275931045E-3,-7.788302377E-3
7.325479010E0,-3.665083554E-3,-1.038440317E-2,-9.009997360E-3
7.335192240E0,-7.330167107E-3,-3.237490356E-2,-9.009997360E-3
7.344904740E0,-2.443389036E-3,-2.382304333E-2,-1.145338640E-2
7.354618125E0,3.665083554E-3,-6.108472589E-4,-1.023169141E-2
7.364332187E0,6.108472589E-3,1.527118124E-2,-5.344913341E-3
7.374045417E0,2.443389036E-3,2.260134928E-2,-4.581354442E-4
7.383757969E0,-1.221694518E-3,2.504473738E-2,6.872031838E-3
7.393471302E0,1.221694518E-3,1.893626526E-2,1.053711493E-2
7.403185365E0,8.551862091E-3,1.160609815E-2,1.175880991E-2
7.412898698E0,8.551862091E-3,-1.832541777E-3,1.175880991E-2
7.422611146E0,2.443389036E-3,-1.649287529E-2,1.298050396E-2
7.432324479E0,-2.443389036E-3,-6.719320081E-3,1.175880991E-2
7.442038542E0,-0.000000000E0,1.771457121E-2,8.093725890E-3
7.451751875E0,4.886778072E-3,3.237490356E-2,3.206948051E-3
7.461464323E0,3.665083554E-3,2.626643144E-2,-4.581354442E-4
7.471177656E0,1.221694518E-3,1.404948719E-2,-1.679830020E-3
7.480891719E0,-3.665083554E-3,5.497625098E-3,-2.901524538E-3
7.490605052E0,-7.330167107E-3,-3.054236295E-3,-1.679830020E-3
7.500317500E0,-2.443389036E-3,-1.282779220E-2,-4.123218823E-3
7.510030833E0,7.330167107E-3,-1.282779220E-2,-6.566607859E-3
7.519744948E0,1.221694518E-2,-1.832541777E-3,-1.023169141E-2
7.529458177E0,1.221694518E-2,6.719320081E-3,-1.267508045E-2
7.539170677E0,1.221694518E-3,6.719320081E-3,-9.009997360E-3
7.548884010E0,-7.330167107E-3,-6.108472589E-4,-4.123218823E-3
7.558598125E0,-1.099525020E-2,-1.649287529E-2,1.985253533E-3
7.568311354E0,-1.343864016E-2,-2.015795931E-2,5.650337320E-3
7.578023854E0,-1.466033421E-2,-6.719320081E-3,6.872031838E-3
7.587737187E0,-1.099525020E-2,1.160609815E-2,5.650337320E-3
7.597451302E0,-0.000000000E0,2.015795931E-2,1.985253533E-3
7.607164531E0,8.551862091E-3,7.941014133E-3,7.635590737E-4
7.616877031E0,8.551862091E-3,-1.832541777E-3,-4.581354442E-4
7.626590417E0,1.221694518E-3,-6.108472589E-4,7.635590737E-4
7.636304479E0,-4.886778072E-3,6.108472589E-4,4.428642802E-3
7.646017708E0,-6.108472589E-3,-1.832541777E-3,5.650337320E-3
7.655730208E0,-2.443389036E-3,-5.497625098E-3,5.650337320E-3
7.665443594E0,-1.221694518E-3,-4.275931045E-3,3.206948051E-3
7.675157656E0,-3.665083554E-3,1.832541777E-3,1.985253533E-3
7.684870885E0,-2.443389036E-3,9.162709117E-3,1.985253533E-3
7.694583437E0,1.221694518E-3,1.282779220E-2,-4.581354442E-4
7.704296771E0,4.886778072E-3,5.497625098E-3,-1.679830020E-3
7.714010833E0,4.886778072E-3,-4.275931045E-3,-1.679830020E-3
7.723724167E0,3.665083554E-3,-1.160609815E-2,-4.581354442E-4
7.733436615E0,2.443389036E-3,-1.649287529E-2,7.635590737E-4
7.743149948E0,3.665083554E-3,-3.054236295E-3,7.635590737E-4
7.752864010E0,1.221694518E-3,1.160609815E-2,-4.581354442E-4
7.762577344E0,-2.443389036E-3,6.719320081E-3,-1.679830020E-3
7.772289792E0,-2.443389036E-3,3.054236295E-3,-4.123218823E-3
7.782003125E0,-4.886778072E-3,9.162709117E-3,-2.901524538E-3
7.791717187E0,-9.773556143E-3,9.162709117E-3,-5.344913341E-3
7.801430521E0,-1.343864016E-2,-5.497625098E-3,-2.901524538E-3
7.811142969E0,-8.551862091E-3,-1.527118124E-2,1.985253533E-3
7.820856302E0,1.221694518E-3,-1.038440317E-2,4.428642802E-3
7.830570417E0,8.551862091E-3,-6.108472589E-4,4.428642802E-3
7.840283646E0,1.221694518E-2,3.054236295E-3,3.206948051E-3
7.849996146E0,1.099525020E-2,-6.719320081E-3,4.428642802E-3
7.859709479E0,8.551862091E-3,-1.160609815E-2,4.428642802E-3
7.869423594E0,4.886778072E-3,5.497625098E-3,3.206948051E-3
7.879136823E0,1.221694518E-3,2.504473738E-2,-1.679830020E-3
7.888849323E0,-1.221694518E-3,1.893626526E-2,-4.123218823E-3
7.898562656E0,-0.000000000E0,-9.162709117E-3,-4.123218823E-3
7.908276771E0,6.108472589E-3,-2.382304333E-2,-2.901524538E-3
7.917990000E0,9.773556143E-3,-1.893626526E-2,-1.679830020E-3
7.927702500E0,6.108472589E-3,-7.941014133E-3,-1.679830020E-3
7.937415833E0,-1.221694518E-3,-6.108472589E-4,7.635590737E-4
7.947129948E0,-6.108472589E-3,1.771457121E-2,1.985253533E-3
7.956843177E0,-4.886778072E-3,3.359659761E-2,3.206948051E-3
7.966555677E0,-3.665083554E-3,2.382304333E-2,4.428642802E-3
7.976269010E0,-6.108472589E-3,1.832541777E-3,5.650337320E-3
7.985983125E0,-8.551862091E-3,-6.719320081E-3,5.650337320E-3
7.995696354E0,-4.886778072E-3,-7.941014133E-3,4.428642802E-3
8.005408854E0,2.443389036E-3,-7.941014133E-3,1.985253533E-3
8.015122187E0,8.551862091E-3,-4.275931045E-3,-4.581354442E-4
8.024836302E0,7.330167107E-3,-6.108472589E-4,-1.679830020E-3
8.034549531E0,1.221694518E-3,4.275931045E-3,-1.679830020E-3
8.044262031E0,-2.443389036E-3,6.719320081E-3,-1.679830020E-3
8.053975365E0,-0.000000000E0,9.162709117E-3,-4.581354442E-4
8.063689479E0,7.330167107E-3,9.162709117E-3,-4.581354442E-4
8.073402708E0,1.221694518E-2,4.275931045E-3,-4.581354442E-4
8.083115208E0,1.099525020E-2,-4.275931045E-3,-4.581354442E-4
8.092828594E0,4.886778072E-3,-6.719320081E-3,-1.679830020E-3
8.102542656E0,-3.665083554E-3,-3.054236295E-3,-4.581354442E-4
8.112255885E0,-9.773556143E-3,-6.108472589E-4,-4.581354442E-4
8.121968385E0,-1.099525020E-2,-3.054236295E-3,1.985253533E-3
8.131681771E0,-6.108472589E-3,-7.941014133E-3,7.635590737E-4
8.141395833E0,-0.000000000E0,6.108472589E-4,-4.581354442E-4
8.151109062E0,3.665083554E-3,1.038440317E-2,-4.581354442E-4
8.160821562E0,3.665083554E-3,5.497625098E-3,-4.581354442E-4
8.170534948E0,1.221694518E-3,-6.719320081E-3,3.206948051E-3
8.180249010E0,2.443389036E-3,-9.162709117E-3,3.206948051E-3
8.189962240E0,-0.000000000E0,3.054236295E-3,1.985253533E-3
8.199674740E0,-3.665083554E-3,1.527118124E-2,-1.679830020E-3
8.209388125E0,-4.886778072E-3,1.160609815E-2,-4.581354442E-4
8.219102187E0,-3.665083554E-3,-1.832541777E-3,3.206948051E-3
8.228815417E0,6.108472589E-3,-9.162709117E-3,4.428642802E-3
8.238527917E0,1.343864016E-2,-1.160609815E-2,1.985253533E-3
8.248241302E0,8.551862091E-3,-6.719320081E-3,7.635590737E-4
8.257955365E0,-3.665083554E-3,1.832541777E-3,-4.581354442E-4
8.267668594E0,-1.343864016E-2,1.038440317E-2,-4.581354442E-4
8.277381094E0,-1.466033421E-2,9.162709117E-3,-4.581354442E-4
8.287094479E0,-1.221694518E-2,-5.497625098E-3,-1.679830020E-3
8.296808542E0,-9.773556143E-3,-1.649287529E-2,-1.679830020E-3
8.306521771E0,-1.221694518E-3,-1.893626526E-2,-1.679830020E-3
8.316234271E0,9.773556143E-3,-1.282779220E-2,-2.901524538E-3
8.325947656E0,1.221694518E-2,-5.497625098E-3,-4.581354442E-4
8.335661719E0,7.330167107E-3,5.497625098E-3,1.985253533E-3
8.345374948E0,1.221694518E-3,1.771457121E-2,4.428642802E-3
8.355087500E0,-6.108472589E-3,1.893626526E-2,4.428642802E-3
8.364800833E0,-1.099525020E-2,2.015795931E-2,6.872031838E-3
8.374514896E0,-1.099525020E-2,1.893626526E-2,6.872031838E-3
8.384228125E0,-7.330167107E-3,5.497625098E-3,6.872031838E-3
8.393940677E0,-2.443389036E-3,-1.404948719E-2,8.093725890E-3
8.403654010E0,3.665083554E-3,-2.137965336E-2,8.093725890E-3
8.413368073E0,9.773556143E-3,-9.162709117E-3,5.650337320E-3
8.423081406E0,1.343864016E-2,1.527118124E-2,3.206948051E-3
8.432793854E0,1.588202827E-2,2.993151546E-2,-2.901524538E-3
8.442507187E0,1.221694518E-2,3.237490356E-2,-5.344913341E-3
8.452221250E0,8.551862091E-3,2.137965336E-2,-5.344913341E-3
8.461934583E0,8.551862091E-3,-6.108472589E-4,-1.679830020E-3
8.471647031E0,9.773556143E-3,-9.162709117E-3,4.428642802E-3
8.481360365E0,9.773556143E-3,1.832541777E-3,5.650337320E-3
8.491074427E0,1.221694518E-3,1.649287529E-2,5.650337320E-3
8.500787760E0,-4.886778072E-3,2.015795931E-2,5.650337320E-3
8.510500208E0,-2.443389036E-3,1.649287529E-2,8.093725890E-3
8.520213542E0,-0.000000000E0,1.893626526E-2,6.872031838E-3
8.529927656E0,-0.000000000E0,2.015795931E-2,1.985253533E-3
8.539640885E0,-1.221694518E-3,1.404948719E-2,3.206948051E-3
8.549353385E0,-1.221694518E-3,5.497625098E-3,4.428642802E-3
8.559066719E0,-1.221694518E-3,-4.275931045E-3,5.650337320E-3
8.568780833E0,-2.443389036E-3,-1.038440317E-2,4.428642802E-3
8.578494062E0,-6.108472589E-3,-9.162709117E-3,1.985253533E-3
8.588206562E0,-1.099525020E-2,-9.162709117E-3,-4.581354442E-4
8.597919896E0,-8.551862091E-3,-6.108472589E-4,-1.679830020E-3
8.607634010E0,2.443389036E-3,2.504473738E-2,-6.566607859E-3
8.617347240E0,1.343864016E-2,4.337015375E-2,-1.267508045E-2
8.627059740E0,1.221694518E-2,3.237490356E-2,-1.389677543E-2
8.636773073E0,4.886778072E-3,-1.832541777E-3,-9.009997360E-3
8.646487187E0,-0.000000000E0,-3.726168349E-2,-1.679830020E-3
8.656200417E0,-3.665083554E-3,-5.070032179E-2,5.650337320E-3
8.665912917E0,-3.665083554E-3,-3.481829539E-2,9.315420873E-3
8.675626250E0,-3.665083554E-3,-3.054236295E-3,8.093725890E-3
8.685340365E0,-3.665083554E-3,1.893626526E-2,4.428642802E-3
8.695053594E0,3.665083554E-3,2.748812735E-2,7.635590737E-4
8.704766094E0,1.099525020E-2,2.504473738E-2,-4.123218823E-3
8.714479427E0,1.221694518E-2,1.649287529E-2,-4.123218823E-3
8.724193542E0,4.886778072E-3,3.054236295E-3,-2.901524538E-3
8.733906771E0,-8.551862091E-3,-7.941014133E-3,-4.581354442E-4
8.743619271E0,-1.710372418E-2,-1.038440317E-2,1.985253533E-3
8.753332656E0,-1.710372418E-2,-5.497625098E-3,3.206948051E-3
8.763046719E0,-1.099525020E-2,-3.054236295E-3,4.428642802E-3
8.772759948E0,-0.000000000E0,-5.497625098E-3,4.428642802E-3
8.782472500E0,8.551862091E-3,-4.275931045E-3,1.985253533E-3
8.792185833E0,1.221694518E-2,-3.054236295E-3,7.635590737E-4
8.801899896E0,1.221694518E-2,-4.275931045E-3,1.985253533E-3
8.811613125E0,7.330167107E-3,3.054236295E-3,3.206948051E-3
8.821325677E0,-1.221694518E-3,1.038440317E-2,-4.581354442E-4
8.831039010E0,-1.221694518E-2,6.719320081E-3,1.985253533E-3
8.840753073E0,-1.710372418E-2,3.054236295E-3,1.985253533E-3
8.850466302E0,-1.588202827E-2,3.054236295E-3,1.985253533E-3
8.860178854E0,-1.221694518E-2,5.497625098E-3,1.985253533E-3
8.869892187E0,-1.099525020E-2,7.941014133E-3,3.206948051E-3
8.879606250E0,-8.551862091E-3,1.832541777E-3,5.650337320E-3
8.889319583E0,-0.000000000E0,-1.038440317E-2,6.872031838E-3
8.899032031E0,1.099525020E-2,-1.038440317E-2,5.650337320E-3
8.908745365E0,1.832541823E-2,-5.497625098E-3,4.428642802E-3
8.918459427E0,1.710372418E-2,-5.497625098E-3,3.206948051E-3
8.928172760E0,8.551862091E-3,-4.275931045E-3,5.650337320E-3
8.937885208E0,-1.221694518E-3,6.719320081E-3,5.650337320E-3
8.947598542E0,-6.108472589E-3,2.137965336E-2,4.428642802E-3
8.957312656E0,-2.443389036E-3,3.359659761E-2,7.635590737E-4
8.967025885E0,-0.000000000E0,2.993151546E-2,-1.679830020E-3
8.976738385E0,-2.443389036E-3,5.497625098E-3,-4.581354442E-4
8.986451719E0,-7.330167107E-3,-2.137965336E-2,3.206948051E-3
8.996165833E0,-7.330167107E-3,-3.359659761E-2,5.650337320E-3
9.005879062E0,-3.665083554E-3,-3.115320951E-2,4.428642802E-3
9.015591562E0,-1.221694518E-3,-1.527118124E-2,1.985253533E-3
9.025304896E0,2.443389036E-3,6.108472589E-4,7.635590737E-4
9.035019010E0,2.443389036E-3,5.497625098E-3,-1.679830020E-3
9.044732240E0,2.443389036E-3,-3.054236295E-3,-2.901524538E-3
9.054444740E0,3.665083554E-3,-4.275931045E-3,-2.901524538E-3
9.064158125E0,7.330167107E-3,1.160609815E-2,-2.901524538E-3
9.073872187E0,8.551862091E-3,1.771457121E-2,-1.679830020E-3
9.083585417E0,2.443389036E-3,7.941014133E-3,3.206948051E-3
9.093297917E0,-4.886778072E-3,-5.497625098E-3,5.650337320E-3
9.103011302E0,-4.886778072E-3,-1.649287529E-2,5.650337320E-3
9.112725365E0,1.221694518E-3,-2.748812735E-2,4.428642802E-3
9.122438594E0,6.108472589E-3,-2.137965336E-2,3.206948051E-3
9.132151094E0,6.108472589E-3,-1.832541777E-3,-4.581354442E-4
9.141864479E0,-0.000000000E0,4.275931045E-3,-1.679830020E-3
9.151578542E0,-3.665083554E-3,6.108472589E-4,-4.581354442E-4
9.161291771E0,-1.221694518E-3,1.038440317E-2,7.635590737E-4
9.171004323E0,2.443389036E-3,2.870982140E-2,7.635590737E-4
9.180717656E0,-0.000000000E0,2.870982140E-2,7.635590737E-4
9.190431719E0,-4.886778072E-3,4.275931045E-3,3.206948051E-3
9.200145052E0,-6.108472589E-3,-1.527118124E-2,5.650337320E-3
9.209857500E0,-3.665083554E-3,-9.162709117E-3,5.650337320E-3
9.219570833E0,1.221694518E-3,6.719320081E-3,5.650337320E-3
9.229284896E0,3.665083554E-3,1.527118124E-2,6.872031838E-3
9.238998229E0,7.330167107E-3,1.649287529E-2,6.872031838E-3
9.248710677E0,1.099525020E-2,5.497625098E-3,6.872031838E-3
9.258424010E0,9.773556143E-3,-7.941014133E-3,6.872031838E-3
9.268138125E0,6.108472589E-3,-1.404948719E-2,6.872031838E-3
9.277851354E0,2.443389036E-3,-7.941014133E-3,4.428642802E-3
9.287563854E0,1.221694518E-3,7.941014133E-3,1.985253533E-3
9.297277187E0,-0.000000000E0,2.015795931E-2,-1.679830020E-3
9.306991302E0,-0.000000000E0,1.771457121E-2,-2.901524538E-3
9.316704531E0,-0.000000000E0,6.108472589E-4,-4.581354442E-4
9.326417031E0,2.443389036E-3,-6.719320081E-3,3.206948051E-3
9.336130365E0,4.886778072E-3,3.054236295E-3,4.428642802E-3
9.345844479E0,8.551862091E-3,4.275931045E-3,3.206948051E-3
9.355557708E0,7.330167107E-3,-9.162709117E-3,4.428642802E-3
9.365270208E0,1.221694518E-3,-1.404948719E-2,1.985253533E-3
9.374983542E0,-7.330167107E-3,-1.404948719E-2,1.985253533E-3
9.384697656E0,-1.466033421E-2,-1.771457121E-2,7.635590737E-4
9.394410885E0,-1.466033421E-2,-7.941014133E-3,-1.679830020E-3
9.404123385E0,-6.108472589E-3,4.275931045E-3,-5.344913341E-3
9.413836771E0,-1.221694518E-3,4.275931045E-3,-5.344913341E-3
9.423550833E0,1.221694518E-3,6.108472589E-4,-1.679830020E-3
9.433264062E0,4.886778072E-3,6.108472589E-4,7.635590737E-4
9.442976615E0,1.343864016E-2,5.497625098E-3,7.635590737E-4
9.452689948E0,1.588202827E-2,5.497625098E-3,1.985253533E-3
9.462404010E0,9.773556143E-3,-3.054236295E-3,3.206948051E-3
9.472117344E0,2.443389036E-3,-1.404948719E-2,4.428642802E-3
9.481829792E0,4.886778072E-3,-9.162709117E-3,4.428642802E-3
9.491543125E0,8.551862091E-3,4.275931045E-3,3.206948051E-3
9.501257187E0,9.773556143E-3,7.941014133E-3,1.985253533E-3
9.510970521E0,4.886778072E-3,-1.832541777E-3,1.985253533E-3
9.520682969E0,1.221694518E-3,-7.941014133E-3,3.206948051E-3
9.530396302E0,1.221694518E-3,-1.832541777E-3,3.206948051E-3
9.540110417E0,2.443389036E-3,9.162709117E-3,-4.581354442E-4
9.549823646E0,2.443389036E-3,7.941014133E-3,-2.901524538E-3
9.559536146E0,1.221694518E-3,-6.719320081E-3,-1.679830020E-3
9.569249479E0,3.665083554E-3,-1.038440317E-2,7.635590737E-4
9.578963594E0,1.099525020E-2,1.832541777E-3,-1.679830020E-3
9.588676823E0,8.551862091E-3,9.162709117E-3,-4.123218823E-3
9.598389323E0,-1.221694518E-3,7.941014133E-3,-4.123218823E-3
9.608102708E0,-7.330167107E-3,1.832541777E-3,-2.901524538E-3
9.617816771E0,-3.665083554E-3,-6.719320081E-3,-2.901524538E-3
9.627530000E0,1.221694518E-3,-1.160609815E-2,-2.901524538E-3
9.637242552E0,1.221694518E-3,-7.941014133E-3,-2.901524538E-3
9.646955885E0,-3.665083554E-3,-6.719320081E-3,-1.679830020E-3
9.656669948E0,-8.551862091E-3,-1.832541777E-3,4.428642802E-3
9.666383281E0,-2.443389036E-3,6.719320081E-3,3.206948051E-3
9.676095729E0,1.099525020E-2,4.275931045E-3,-1.679830020E-3
9.685809062E0,1.954711229E-2,-6.719320081E-3,-5.344913341E-3
9.695523177E0,1.588202827E-2,-1.038440317E-2,-5.344913341E-3
9.705236406E0,4.886778072E-3,4.275931045E-3,-4.581354442E-4
9.714948906E0,-2.443389036E-3,2.504473738E-2,-1.679830020E-3
9.724662240E0,1.221694518E-3,2.504473738E-2,-2.901524538E-3
9.734376354E0,6.108472589E-3,6.719320081E-3,-4.581354442E-4
9.744089583E0,8.551862091E-3,-2.015795931E-2,7.635590737E-4
9.753802083E0,7.330167107E-3,-3.848337755E-2,-4.581354442E-4
9.763515469E0,3.665083554E-3,-2.504473738E-2,-1.679830020E-3
9.773229531E0,1.221694518E-3,1.160609815E-2,-6.566607859E-3
9.782942760E0,2.443389036E-3,3.237490356E-2,-6.566607859E-3
9.792655312E0,2.443389036E-3,2.504473738E-2,-4.123218823E-3
9.802368646E0,3.665083554E-3,9.162709117E-3,-4.581354442E-4
9.812082708E0,3.665083554E-3,-1.832541777E-3,3.206948051E-3
9.821796042E0,3.665083554E-3,-1.404948719E-2,4.428642802E-3
9.831508490E0,3.665083554E-3,-1.893626526E-2,3.206948051E-3
9.841221823E0,3.665083554E-3,-9.162709117E-3,1.985253533E-3
9.850935937E0,-0.000000000E0,1.527118124E-2,-1.679830020E-3
9.860649167E0,-2.443389036E-3,3.115320951E-2,-5.344913341E-3
9.870361667E0,2.443389036E-3,2.015795931E-2,-4.123218823E-3
9.880075000E0,1.099525020E-2,-1.038440317E-2,-1.679830020E-3
9.889789115E0,8.551862091E-3,-3.237490356E-2,1.985253533E-3
9.899502344E0,-3.665083554E-3,-2.382304333E-2,1.985253533E-3
9.909214844E0,-1.343864016E-2,1.832541777E-3,7.635590737E-4
9.918928229E0,-1.099525020E-2,2.382304333E-2,-1.679830020E-3
9.928642292E0,-2.443389036E-3,2.993151546E-2,-4.123218823E-3
9.938355521E0,2.443389036E-3,1.160609815E-2,-2.901524538E-3
9.948068073E0,-0.000000000E0,-1.771457121E-2,7.635590737E-4
9.957781406E0,-7.330167107E-3,-3.481829539E-2,6.872031838E-3
9.967495469E0,-1.099525020E-2,-2.870982140E-2,6.872031838E-3
9.977208802E0,-8.551862091E-3,-5.497625098E-3,4.428642802E-3
9.986921250E0,-2.443389036E-3,1.649287529E-2,-4.581354442E-4
9.996634583E0,2.443389036E-3,2.015795931E-2,-4.123218823E-3
1.000634870E1,3.665083554E-3,1.038440317E-2,-2.901524538E-3
1.001606193E1,2.443389036E-3,-4.275931045E-3,7.635590737E-4
1.002577443E1,-1.221694518E-3,-1.527118124E-2,5.650337320E-3
1.003548776E1,-0.000000000E0,-1.282779220E-2,6.872031838E-3
1.004520188E1,2.443389036E-3,5.497625098E-3,4.428642802E-3
1.005491510E1,4.886778072E-3,2.626643144E-2,7.635590737E-4
1.006462760E1,3.665083554E-3,2.626643144E-2,-1.679830020E-3
1.007434099E1,-1.221694518E-3,-6.108472589E-4,-1.679830020E-3
1.008405505E1,-9.773556143E-3,-2.993151546E-2,4.428642802E-3
1.009376828E1,-1.221694518E-2,-3.237490356E-2,6.872031838E-3
1.010348083E1,-6.108472589E-3,-9.162709117E-3,5.650337320E-3
1.011319417E1,1.221694518E-3,1.649287529E-2,7.635590737E-4
1.012290823E1,3.665083554E-3,2.626643144E-2,-2.901524538E-3
1.013262156E1,2.443389036E-3,2.626643144E-2,-2.901524538E-3
1.014233401E1,-2.443389036E-3,2.137965336E-2,-1.679830020E-3
1.015204734E1,-2.443389036E-3,1.282779220E-2,-2.901524538E-3
1.016176146E1,-0.000000000E0,-3.054236295E-3,-1.679830020E-3
1.017147469E1,3.665083554E-3,-2.504473738E-2,7.635590737E-4
1.018118719E1,3.665083554E-3,-2.870982140E-2,1.985253533E-3
1.019090052E1,-1.221694518E-3,-1.038440317E-2,-4.581354442E-4
1.020061464E1,-4.886778072E-3,1.038440317E-2,-2.901524538E-3
1.021032786E1,-8.551862091E-3,2.015795931E-2,-4.123218823E-3
1.022004037E1,-8.551862091E-3,1.893626526E-2,-4.123218823E-3
1.022975375E1,-2.443389036E-3,1.282779220E-2,-1.679830020E-3
1.023946781E1,4.886778072E-3,-3.054236295E-3,-4.581354442E-4
1.024918115E1,1.099525020E-2,-2.504473738E-2,7.635590737E-4
1.025889359E1,1.588202827E-2,-3.237490356E-2,7.635590737E-4
1.026860693E1,1.466033421E-2,-1.038440317E-2,-1.679830020E-3
1.027832104E1,8.551862091E-3,2.993151546E-2,-4.123218823E-3
1.028803427E1,1.221694518E-3,4.947862774E-2,-7.788302377E-3
1.029774677E1,-0.000000000E0,3.848337755E-2,-6.566607859E-3
1.030746010E1,-0.000000000E0,1.038440317E-2,-2.901524538E-3
1.031717422E1,-1.221694518E-3,-1.893626526E-2,-1.679830020E-3
1.032688745E1,-2.443389036E-3,-3.237490356E-2,7.635590737E-4
1.033659995E1,-1.221694518E-3,-2.504473738E-2,1.985253533E-3
1.034631328E1,1.221694518E-3,-9.162709117E-3,-4.581354442E-4
1.035602740E1,3.665083554E-3,3.054236295E-3,-1.679830020E-3
1.036574062E1,2.443389036E-3,1.038440317E-2,-4.581354442E-4
1.037545312E1,1.221694518E-3,1.038440317E-2,-2.901524538E-3
1.038516651E1,3.665083554E-3,1.282779220E-2,-4.581354442E-4
1.039488057E1,2.443389036E-3,1.038440317E-2,-4.581354442E-4
1.040459391E1,1.221694518E-3,3.054236295E-3,-4.581354442E-4
1.041430635E1,2.443389036E-3,-3.054236295E-3,-4.581354442E-4
1.042401969E1,1.221694518E-3,-7.941014133E-3,-4.581354442E-4
1.043373375E1,-4.886778072E-3,-1.038440317E-2,7.635590737E-4
1.044344708E1,-1.099525020E-2,-7.941014133E-3,3.206948051E-3
1.045315953E1,-1.221694518E-2,-9.162709117E-3,1.985253533E-3
1.046287287E1,-8.551862091E-3,-7.941014133E-3,4.428642802E-3
1.047258698E1,-6.108472589E-3,6.719320081E-3,4.428642802E-3
1.048230021E1,-4.886778072E-3,2.260134928E-2,3.206948051E-3
1.049201271E1,-3.665083554E-3,1.527118124E-2,7.635590737E-4
1.050172609E1,-2.443389036E-3,-1.527118124E-2,3.206948051E-3
1.051144016E1,-2.443389036E-3,-3.237490356E-2,6.872031838E-3
1.052115338E1,-3.665083554E-3,-1.038440317E-2,6.872031838E-3
1.053086594E1,-4.886778072E-3,1.893626526E-2,4.428642802E-3
1.054057927E1,2.443389036E-3,2.993151546E-2,1.985253533E-3
1.055029333E1,1.466033421E-2,1.893626526E-2,1.985253533E-3
1.056000667E1,2.565558441E-2,-5.497625098E-3,1.985253533E-3
1.056971912E1,2.809897438E-2,-3.115320951E-2,3.206948051E-3
1.057943245E1,2.076880634E-2,-3.603998944E-2,4.428642802E-3
1.058914656E1,7.330167107E-3,-1.160609815E-2,3.206948051E-3
1.059885979E1,-6.108472589E-3,2.015795931E-2,7.635590737E-4
1.060857229E1,-1.710372418E-2,4.092676565E-2,-4.581354442E-4
1.061828562E1,-1.832541823E-2,4.459185153E-2,-4.581354442E-4
1.062799974E1,-1.099525020E-2,2.382304333E-2,1.985253533E-3
1.063771297E1,-3.665083554E-3,-3.054236295E-3,5.650337320E-3
1.064742547E1,2.443389036E-3,-3.237490356E-2,9.315420873E-3
1.065713885E1,4.886778072E-3,-5.558710173E-2,1.664558798E-2
1.066685292E1,4.886778072E-3,-5.436540768E-2,1.664558798E-2
1.067656625E1,1.221694518E-3,-2.382304333E-2,1.175880991E-2
1.068627870E1,-1.221694518E-3,1.771457121E-2,7.635590737E-4
1.069599203E1,-1.221694518E-3,4.214845970E-2,-9.009997360E-3
1.070570609E1,1.221694518E-3,4.459185153E-2,-1.267508045E-2
1.071541943E1,1.221694518E-3,2.626643144E-2,-1.389677543E-2
1.072513188E1,1.221694518E-3,-9.162709117E-3,-1.023169141E-2
1.073484521E1,2.443389036E-3,-3.726168349E-2,-7.788302377E-3
1.074455932E1,1.221694518E-3,-4.459185153E-2,-5.344913341E-3
1.075427255E1,-2.443389036E-3,-3.481829539E-2,-5.344913341E-3
1.076398505E1,-4.886778072E-3,-1.404948719E-2,-5.344913341E-3
1.077369839E1,-6.108472589E-3,4.275931045E-3,-2.901524538E-3
1.078341250E1,-4.886778072E-3,1.527118124E-2,1.985253533E-3
1.079312573E1,-1.221694518E-3,2.137965336E-2,4.428642802E-3
1.080283823E1,-0.000000000E0,7.941014133E-3,6.872031838E-3
1.081255162E1,-1.221694518E-3,-1.404948719E-2,1.053711493E-2
1.082226568E1,-0.000000000E0,-2.626643144E-2,1.053711493E-2
1.083197901E1,4.886778072E-3,-2.504473738E-2,8.093725890E-3
1.084169146E1,7.330167107E-3,-9.162709117E-3,4.428642802E-3
1.085140479E1,7.330167107E-3,1.160609815E-2,-4.581354442E-4
1.086111885E1,4.886778072E-3,2.137965336E-2,-2.901524538E-3
1.087083219E1,1.221694518E-3,1.893626526E-2,-4.581354442E-4
1.088054464E1,-0.000000000E0,5.497625098E-3,7.635590737E-4
1.089025797E1,-0.000000000E0,-3.054236295E-3,1.985253533E-3
1.089997208E1,1.221694518E-3,-5.497625098E-3,7.635590737E-4
1.090968531E1,-0.000000000E0,-1.527118124E-2,3.206948051E-3
1.091939781E1,-1.221694518E-3,-1.649287529E-2,4.428642802E-3
1.092911120E1,1.221694518E-3,1.832541777E-3,4.428642802E-3
1.093882526E1,4.886778072E-3,2.137965336E-2,1.985253533E-3
1.094853849E1,7.330167107E-3,2.870982140E-2,7.635590737E-4
1.095825099E1,8.551862091E-3,2.137965336E-2,-4.581354442E-4
1.096796438E1,7.330167107E-3,6.108472589E-4,7.635590737E-4
1.097767844E1,-1.221694518E-3,-2.015795931E-2,3.206948051E-3
1.098739167E1,-1.221694518E-2,-2.015795931E-2,6.872031838E-3
1.099710422E1,-1.466033421E-2,1.832541777E-3,5.650337320E-3
1.100681755E1,-9.773556143E-3,1.771457121E-2,3.206948051E-3
1.101653162E1,-3.665083554E-3,1.282779220E-2,3.206948051E-3
1.102624495E1,2.443389036E-3,-3.054236295E-3,3.206948051E-3
1.103595740E1,8.551862091E-3,-1.404948719E-2,3.206948051E-3
1.104567073E1,1.466033421E-2,-1.160609815E-2,1.985253533E-3
1.105538484E1,1.221694518E-2,-5.497625098E-3,-4.581354442E-4
1.106509807E1,2.443389036E-3,-6.719320081E-3,7.635590737E-4
1.107481057E1,-7.330167107E-3,-1.160609815E-2,4.428642802E-3
1.108452396E1,-1.466033421E-2,-1.160609815E-2,4.428642802E-3
1.109423802E1,-1.343864016E-2,1.832541777E-3,4.428642802E-3
1.110395125E1,-6.108472589E-3,1.893626526E-2,-4.581354442E-4
1.111366375E1,-1.221694518E-3,2.382304333E-2,-4.581354442E-4
1.112337714E1,4.886778072E-3,1.038440317E-2,-4.581354442E-4
1.113309120E1,8.551862091E-3,-1.404948719E-2,7.635590737E-4
1.114280443E1,8.551862091E-3,-3.115320951E-2,1.985253533E-3
1.115251698E1,3.665083554E-3,-2.870982140E-2,5.650337320E-3
1.116223031E1,-3.665083554E-3,-1.527118124E-2,4.428642802E-3
1.117194438E1,-8.551862091E-3,-1.832541777E-3,4.428642802E-3
1.118165771E1,-4.886778072E-3,1.038440317E-2,3.206948051E-3
1.119137016E1,-1.221694518E-3,2.137965336E-2,1.985253533E-3
1.120108349E1,2.443389036E-3,2.504473738E-2,4.428642802E-3
1.121079760E1,2.443389036E-3,1.282779220E-2,5.650337320E-3
1.122051083E1,-1.221694518E-3,-5.497625098E-3,5.650337320E-3
1.123022333E1,-2.443389036E-3,-1.527118124E-2,8.093725890E-3
1.123993672E1,1.221694518E-3,-1.771457121E-2,6.872031838E-3
1.124965078E1,4.886778072E-3,-1.282779220E-2,5.650337320E-3
1.125936401E1,8.551862091E-3,-6.719320081E-3,4.428642802E-3
1.126907651E1,1.221694518E-2,-4.275931045E-3,3.206948051E-3
1.127878990E1,1.466033421E-2,7.941014133E-3,7.635590737E-4
1.128850396E1,1.343864016E-2,1.893626526E-2,-4.581354442E-4
1.129821719E1,9.773556143E-3,1.160609815E-2,-4.581354442E-4
1.130792974E1,6.108472589E-3,6.108472589E-4,7.635590737E-4
1.131764307E1,4.886778072E-3,6.108472589E-4,-4.581354442E-4
1.132735714E1,6.108472589E-3,1.832541777E-3,-2.901524538E-3
1.133707047E1,3.665083554E-3,-6.719320081E-3,-4.581354442E-4
1.134678292E1,-1.221694518E-3,-1.527118124E-2,3.206948051E-3
1.135649625E1,-4.886778072E-3,-1.649287529E-2,4.428642802E-3
1.136621036E1,-8.551862091E-3,-6.108472589E-4,5.650337320E-3
1.137592359E1,-8.551862091E-3,1.527118124E-2,5.650337320E-3
1.138563609E1,-4.886778072E-3,9.162709117E-3,4.428642802E-3
1.139534943E1,-0.000000000E0,-5.497625098E-3,3.206948051E-3
1.140506354E1,4.886778072E-3,-9.162709117E-3,1.985253533E-3
1.141477677E1,4.886778072E-3,-4.275931045E-3,1.985253533E-3
1.142448927E1,-0.000000000E0,-6.108472589E-4,7.635590737E-4
1.143420266E1,-3.665083554E-3,3.054236295E-3,1.985253533E-3
1.144391672E1,-0.000000000E0,5.497625098E-3,1.985253533E-3
1.145362995E1,7.330167107E-3,9.162709117E-3,1.985253533E-3
1.146334245E1,1.099525020E-2,9.162709117E-3,1.985253533E-3
1.147305583E1,8.551862091E-3,6.108472589E-4,3.206948051E-3
1.148276990E1,-0.000000000E0,-9.162709117E-3,6.872031838E-3
1.149248313E1,-1.099525020E-2,-2.993151546E-2,8.093725890E-3
1.150219568E1,-1.710372418E-2,-6.413896382E-2,1.053711493E-2
1.151190901E1,-1.588202827E-2,-8.490777016E-2,1.542389300E-2
1.152162307E1,-1.343864016E-2,-6.780404598E-2,1.420219894E-2
1.153133641E1,-9.773556143E-3,-3.237490356E-2,6.872031838E-3
1.154104885E1,2.443389036E-3,6.108472589E-4,-1.679830020E-3
1.155076219E1,1.343864016E-2,1.527118124E-2,-6.566607859E-3
1.156047630E1,1.099525020E-2,4.275931045E-3,-6.566607859E-3
1.157018953E1,3.665083554E-3,-7.941014133E-3,-2.901524538E-3
1.157990203E1,-4.886778072E-3,-1.404948719E-2,7.635590737E-4
1.158961536E1,-8.551862091E-3,-1.649287529E-2,1.985253533E-3
1.159932948E1,-6.108472589E-3,-3.054236295E-3,5.650337320E-3
1.160904271E1,2.443389036E-3,1.527118124E-2,3.206948051E-3
1.161875521E1,1.221694518E-2,1.649287529E-2,7.635590737E-4
1.162846854E1,1.710372418E-2,4.275931045E-3,3.206948051E-3
1.163818266E1,1.466033421E-2,-1.832541777E-3,5.650337320E-3
1.164789588E1,9.773556143E-3,5.497625098E-3,6.872031838E-3
1.165760839E1,4.886778072E-3,1.649287529E-2,5.650337320E-3
1.166732177E1,-1.221694518E-3,1.404948719E-2,5.650337320E-3
1.167703583E1,-6.108472589E-3,6.719320081E-3,4.428642802E-3
1.168674917E1,-9.773556143E-3,4.275931045E-3,7.635590737E-4
1.169646162E1,-9.773556143E-3,4.275931045E-3,7.635590737E-4
1.170617495E1,-3.665083554E-3,-1.832541777E-3,-4.581354442E-4
1.171588901E1,2.443389036E-3,-1.038440317E-2,-4.581354442E-4
1.172560234E1,6.108472589E-3,-6.719320081E-3,-4.581354442E-4
1.173531479E1,8.551862091E-3,4.275931045E-3,-2.901524538E-3
1.174502813E1,8.551862091E-3,7.941014133E-3,-4.123218823E-3
1.175474219E1,7.330167107E-3,6.719320081E-3,-1.679830020E-3
1.176445552E1,6.108472589E-3,3.054236295E-3,7.635590737E-4
1.177416797E1,2.443389036E-3,-5.497625098E-3,3.206948051E-3
1.178388130E1,-1.221694518E-3,-1.160609815E-2,5.650337320E-3
1.179359542E1,-1.221694518E-3,-3.054236295E-3,3.206948051E-3
1.180330865E1,-0.000000000E0,9.162709117E-3,7.635590737E-4
1.181302115E1,2.443389036E-3,4.275931045E-3,-2.901524538E-3
1.182273453E1,-0.000000000E0,-1.404948719E-2,-2.901524538E-3
1.183244859E1,-7.330167107E-3,-2.137965336E-2,7.635590737E-4
1.184216182E1,-9.773556143E-3,-6.108472589E-4,3.206948051E-3
1.185187432E1,-2.443389036E-3,2.260134928E-2,7.635590737E-4
1.186158771E1,2.443389036E-3,2.137965336E-2,7.635590737E-4
1.187130177E1,3.665083554E-3,1.038440317E-2,7.635590737E-4
1.188101500E1,3.665083554E-3,7.941014133E-3,7.635590737E-4
1.189072755E1,3.665083554E-3,3.054236295E-3,7.635590737E-4
1.190044088E1,4.886778072E-3,1.832541777E-3,7.635590737E-4
1.191015495E1,2.443389036E-3,3.054236295E-3,1.985253533E-3
1.191986828E1,-3.665083554E-3,5.497625098E-3,1.985253533E-3
1.192958073E1,-7.330167107E-3,7.941014133E-3,3.206948051E-3
1.193929406E1,-1.221694518E-3,7.941014133E-3,3.206948051E-3
1.194900818E1,1.343864016E-2,-4.275931045E-3,7.635590737E-4
1.195872141E1,1.954711229E-2,-9.162709117E-3,-4.581354442E-4
1.196843391E1,7.330167107E-3,-5.497625098E-3,-1.679830020E-3
1.197814724E1,-8.551862091E-3,6.108472589E-4,-4.581354442E-4
1.198786135E1,-1.466033421E-2,1.038440317E-2,7.635590737E-4
1.199757458E1,-7.330167107E-3,2.137965336E-2,-2.901524538E-3
1.200728708E1,3.665083554E-3,2.382304333E-2,-5.344913341E-3
1.201700042E1,7.330167107E-3,2.137965336E-2,-7.788302377E-3
1.202671453E1,2.443389036E-3,1.282779220E-2,-4.123218823E-3
1.203642776E1,-2.443389036E-3,-1.038440317E-2,7.635590737E-4
1.204614026E1,-3.665083554E-3,-2.748812735E-2,5.650337320E-3
1.205585365E1,-1.221694518E-3,-2.504473738E-2,6.872031838E-3
1.206556771E1,1.221694518E-3,-9.162709117E-3,3.206948051E-3
1.207528094E1,3.665083554E-3,5.497625098E-3,-4.581354442E-4
1.208499349E1,3.665083554E-3,7.941014133E-3,-2.901524538E-3
1.209470682E1,-1.221694518E-3,5.497625098E-3,-4.581354442E-4
1.210442089E1,-4.886778072E-3,4.275931045E-3,-4.581354442E-4
1.211413412E1,-3.665083554E-3,7.941014133E-3,-4.581354442E-4
1.212384667E1,1.221694518E-3,1.527118124E-2,-4.581354442E-4
1.213356000E1,6.108472589E-3,2.260134928E-2,-1.679830020E-3
1.214327406E1,3.665083554E-3,1.527118124E-2,-4.581354442E-4
1.215298740E1,-4.886778072E-3,-1.038440317E-2,1.985253533E-3
1.216269984E1,-1.099525020E-2,-3.481829539E-2,5.650337320E-3
1.217241318E1,-6.108472589E-3,-3.726168349E-2,5.650337320E-3
1.218212729E1,4.886778072E-3,-1.282779220E-2,7.635590737E-4
1.219184052E1,1.832541823E-2,1.038440317E-2,-4.123218823E-3
1.220155302E1,2.687728032E-2,1.893626526E-2,-6.566607859E-3
1.221126635E1,2.687728032E-2,9.162709117E-3,-9.009997360E-3
1.222098047E1,1.588202827E-2,-1.527118124E-2,-9.009997360E-3
1.223069370E1,-3.665083554E-3,-2.870982140E-2,-6.566607859E-3
1.224040620E1,-1.954711229E-2,-1.282779220E-2,-5.344913341E-3
1.225011958E1,-2.565558441E-2,1.404948719E-2,-9.009997360E-3
1.225983365E1,-2.076880634E-2,2.382304333E-2,-1.145338640E-2
1.226954688E1,-9.773556143E-3,1.160609815E-2,-1.267508045E-2
1.227925938E1,-1.221694518E-3,-5.497625098E-3,-1.145338640E-2
1.228897276E1,-1.221694518E-3,-1.404948719E-2,-7.788302377E-3
1.229868682E1,-3.665083554E-3,-2.382304333E-2,-5.344913341E-3
1.230840016E1,-4.886778072E-3,-3.481829539E-2,7.635590737E-4
1.231811260E1,-1.221694518E-3,-2.260134928E-2,3.206948051E-3
1.232782594E1,4.886778072E-3,3.054236295E-3,-4.581354442E-4
1.233754000E1,8.551862091E-3,1.771457121E-2,-1.679830020E-3
1.234725333E1,7.330167107E-3,1.771457121E-2,7.635590737E-4
1.235696578E1,4.886778072E-3,4.275931045E-3,3.206948051E-3
1.236667912E1,1.221694518E-3,-1.771457121E-2,4.428642802E-3
1.237639318E1,-4.886778072E-3,-2.260134928E-2,6.872031838E-3
1.238610651E1,-7.330167107E-3,-9.162709117E-3,4.428642802E-3
1.239581896E1,-7.330167107E-3,1.038440317E-2,1.985253533E-3
1.240553229E1,-6.108472589E-3,2.870982140E-2,7.635590737E-4
1.241524641E1,-7.330167107E-3,3.115320951E-2,1.985253533E-3
1.242495964E1,-1.343864016E-2,2.382304333E-2,1.985253533E-3
1.243467214E1,-1.710372418E-2,1.160609815E-2,4.428642802E-3
1.244438547E1,-2.199050039E-2,-6.108472589E-4,8.093725890E-3
1.245409958E1,-2.321219631E-2,-4.275931045E-3,1.053711493E-2
1.246381281E1,-1.832541823E-2,7.941014133E-3,1.175880991E-2
1.247352531E1,-6.108472589E-3,1.527118124E-2,9.315420873E-3
1.248323865E1,9.773556143E-3,-3.054236295E-3,5.650337320E-3
1.249295276E1,1.954711229E-2,-2.015795931E-2,3.206948051E-3
1.250266599E1,2.321219631E-2,-1.038440317E-2,-4.581354442E-4
1.251237849E1,1.954711229E-2,1.038440317E-2,-5.344913341E-3
1.252209188E1,9.773556143E-3,2.504473738E-2,-7.788302377E-3
1.253180594E1,-2.443389036E-3,2.382304333E-2,-7.788302377E-3
1.254151917E1,-4.886778072E-3,5.497625098E-3,-6.566607859E-3
1.255123172E1,-4.886778072E-3,-1.282779220E-2,-5.344913341E-3
1.256094505E1,-7.330167107E-3,-2.015795931E-2,-4.123218823E-3
1.257065912E1,-8.551862091E-3,-1.527118124E-2,-4.123218823E-3
1.258037245E1,-3.665083554E-3,3.054236295E-3,-4.123218823E-3
1.259008490E1,6.108472589E-3,1.160609815E-2,-5.344913341E-3
1.259979823E1,8.551862091E-3,5.497625098E-3,-6.566607859E-3
1.260951229E1,7.330167107E-3,-3.054236295E-3,-4.123218823E-3
1.261922562E1,1.221694518E-3,-1.038440317E-2,7.635590737E-4
1.262893807E1,-3.665083554E-3,-6.719320081E-3,5.650337320E-3
1.263865141E1,-2.443389036E-3,3.054236295E-3,8.093725890E-3
1.264836547E1,1.221694518E-3,4.275931045E-3,6.872031838E-3
1.265807880E1,2.443389036E-3,1.832541777E-3,3.206948051E-3
1.266779125E1,1.221694518E-3,-6.108472589E-4,-1.679830020E-3
1.267750458E1,-2.443389036E-3,-5.497625098E-3,-1.679830020E-3
1.268721870E1,-7.330167107E-3,-9.162709117E-3,7.635590737E-4
1.269693193E1,-6.108472589E-3,-7.941014133E-3,3.206948051E-3
1.270664443E1,1.221694518E-3,6.108472589E-4,3.206948051E-3
1.271635776E1,7.330167107E-3,4.275931045E-3,7.635590737E-4
1.272607188E1,9.773556143E-3,9.162709117E-3,-4.581354442E-4
1.273578510E1,7.330167107E-3,1.527118124E-2,-1.679830020E-3
1.274549760E1,1.221694518E-3,9.162709117E-3,-4.581354442E-4
1.275521099E1,-2.443389036E-3,-1.832541777E-3,-4.581354442E-4
1.276492505E1,-6.108472589E-3,-6.719320081E-3,-4.581354442E-4
1.277463828E1,-1.099525020E-2,-3.054236295E-3,-4.581354442E-4
1.278435078E1,-1.466033421E-2,-6.108472589E-4,1.985253533E-3
1.279406417E1,-1.343864016E-2,-4.275931045E-3,3.206948051E-3
1.280377823E1,-7.330167107E-3,-9.162709117E-3,4.428642802E-3
1.281349146E1,2.443389036E-3,-1.832541777E-3,7.635590737E-4
1.282320396E1,1.221694518E-2,1.527118124E-2,-5.344913341E-3
1.283291734E1,1.343864016E-2,1.160609815E-2,-6.566607859E-3
1.284263141E1,7.330167107E-3,-1.160609815E-2,-2.901524538E-3
1.285234464E1,1.221694518E-3,-2.504473738E-2,7.635590737E-4
1.286205719E1,-1.221694518E-3,-2.748812735E-2,1.985253533E-3
1.287177052E1,-1.221694518E-3,-9.162709117E-3,3.206948051E-3
1.288148458E1,-2.443389036E-3,1.282779220E-2,7.635590737E-4
1.289119792E1,-3.665083554E-3,2.015795931E-2,-4.581354442E-4
1.290091037E1,-2.443389036E-3,1.404948719E-2,-4.581354442E-4
1.291062370E1,1.221694518E-3,9.162709117E-3,-4.581354442E-4
1.292033781E1,2.443389036E-3,4.275931045E-3,-1.679830020E-3
1.293005104E1,1.221694518E-3,6.108472589E-4,-4.123218823E-3
1.293976354E1,2.443389036E-3,-6.108472589E-4,-4.123218823E-3
1.294947688E1,3.665083554E-3,-9.162709117E-3,-1.679830020E-3
1.295919099E1,1.221694518E-3,-1.649287529E-2,3.206948051E-3
1.296890422E1,-3.665083554E-3,-1.282779220E-2,5.650337320E-3
1.297861672E1,-8.551862091E-3,-1.832541777E-3,5.650337320E-3
1.298833005E1,-6.108472589E-3,9.162709117E-3,4.428642802E-3
1.299804417E1,-0.000000000E0,1.160609815E-2,3.206948051E-3
1.300775740E1,6.108472589E-3,9.162709117E-3,7.635590737E-4
1.301746990E1,7.330167107E-3,1.038440317E-2,-2.901524538E-3
1.302718323E1,7.330167107E-3,1.527118124E-2,-4.123218823E-3
1.303689734E1,4.886778072E-3,1.527118124E-2,-4.123218823E-3
1.304661057E1,6.108472589E-3,-3.054236295E-3,-1.679830020E-3
1.305632307E1,1.221694518E-3,-1.527118124E-2,1.985253533E-3
1.306603646E1,-6.108472589E-3,-1.649287529E-2,4.428642802E-3
1.307575052E1,-9.773556143E-3,-1.527118124E-2,4.428642802E-3
1.308546375E1,-3.665083554E-3,-1.038440317E-2,3.206948051E-3
1.309517625E1,4.886778072E-3,3.054236295E-3,-4.581354442E-4
1.310488964E1,1.221694518E-2,2.015795931E-2,-5.344913341E-3
1.311460370E1,1.343864016E-2,2.504473738E-2,-9.009997360E-3
1.312431693E1,7.330167107E-3,1.160609815E-2,-9.009997360E-3
1.313402948E1,-7.330167107E-3,-4.275931045E-3,-4.123218823E-3
1.314374281E1,-1.588202827E-2,-1.527118124E-2,-4.581354442E-4
1.315345688E1,-1.466033421E-2,-1.160609815E-2,7.635590737E-4
1.316317021E1,-8.551862091E-3,-3.054236295E-3,7.635590737E-4
1.317288266E1,-3.665083554E-3,-6.719320081E-3,7.635590737E-4
1.318259599E1,-1.221694518E-3,-7.941014133E-3,7.635590737E-4
1.319231005E1,1.221694518E-3,6.719320081E-3,7.635590737E-4
1.320202338E1,1.221694518E-3,1.893626526E-2,-1.679830020E-3
1.321173583E1,-0.000000000E0,1.527118124E-2,-2.901524538E-3
1.322144917E1,-0.000000000E0,9.162709117E-3,1.985253533E-3
1.323116328E1,3.665083554E-3,5.497625098E-3,4.428642802E-3
1.324087651E1,3.665083554E-3,3.054236295E-3,5.650337320E-3
1.325058901E1,2.443389036E-3,-6.719320081E-3,8.093725890E-3
1.326030234E1,4.886778072E-3,-1.404948719E-2,5.650337320E-3
1.327001646E1,8.551862091E-3,-6.719320081E-3,3.206948051E-3
1.327972969E1,7.330167107E-3,9.162709117E-3,-1.679830020E-3
1.328944219E1,-0.000000000E0,1.527118124E-2,-4.123218823E-3
1.329915552E1,-9.773556143E-3,3.054236295E-3,-2.901524538E-3
1.330886964E1,-1.710372418E-2,-1.038440317E-2,-4.581354442E-4
1.331858287E1,-2.076880634E-2,-1.649287529E-2,7.635590737E-4
1.332829536E1,-1.710372418E-2,-9.162709117E-3,1.985253533E-3
1.333800875E1,-8.551862091E-3,9.162709117E-3,1.985253533E-3
1.334772281E1,-1.221694518E-3,1.160609815E-2,-4.581354442E-4
1.335743604E1,6.108472589E-3,1.832541777E-3,-2.901524538E-3
1.336714854E1,1.343864016E-2,-3.054236295E-3,-4.123218823E-3
1.337686193E1,1.710372418E-2,6.108472589E-4,-2.901524538E-3
1.338657599E1,1.221694518E-2,6.719320081E-3,-1.679830020E-3
1.339628922E1,1.221694518E-3,9.162709117E-3,7.635590737E-4
1.340600172E1,-6.108472589E-3,3.054236295E-3,4.428642802E-3
1.341571510E1,-4.886778072E-3,-1.160609815E-2,8.093725890E-3
1.342542917E1,-0.000000000E0,-2.137965336E-2,1.053711493E-2
1.343514250E1,7.330167107E-3,-1.404948719E-2,6.872031838E-3
1.344485495E1,9.773556143E-3,3.054236295E-3,1.985253533E-3
1.345456828E1,6.108472589E-3,7.941014133E-3,-4.581354442E-4
1.346428234E1,-0.000000000E0,3.054236295E-3,-4.581354442E-4
1.347399568E1,-1.221694518E-3,6.108472589E-4,-2.901524538E-3
1.348370813E1,-1.221694518E-3,9.162709117E-3,-5.344913341E-3
1.349342146E1,-2.443389036E-3,1.282779220E-2,-6.566607859E-3
1.350313552E1,-0.000000000E0,5.497625098E-3,-5.344913341E-3
1.351284885E1,1.221694518E-3,-1.038440317E-2,-1.679830020E-3
1.352256130E1,-1.221694518E-3,-2.626643144E-2,7.635590737E-4
1.353227464E1,-4.886778072E-3,-3.237490356E-2,-4.581354442E-4
1.354198875E1,-3.665083554E-3,-2.015795931E-2,-1.679830020E-3
1.355170198E1,-0.000000000E0,5.497625098E-3,-1.679830020E-3
1.356141448E1,2.443389036E-3,2.870982140E-2,-2.901524538E-3
1.357112781E1,1.221694518E-3,3.481829539E-2,-2.901524538E-3
1.358084193E1,-4.886778072E-3,2.015795931E-2,7.635590737E-4
1.359055516E1,-1.099525020E-2,-1.832541777E-3,3.206948051E-3
1.360026766E1,-1.343864016E-2,-1.038440317E-2,3.206948051E-3
1.360998099E1,-1.221694518E-2,-9.162709117E-3,4.428642802E-3
1.361969510E1,-1.221694518E-2,-1.038440317E-2,3.206948051E-3
1.362940833E1,-8.551862091E-3,-7.941014133E-3,3.206948051E-3
1.363912083E1,-2.443389036E-3,-6.108472589E-4,4.428642802E-3
1.364883422E1,1.221694518E-3,1.282779220E-2,4.428642802E-3
1.365854828E1,4.886778072E-3,2.382304333E-2,1.985253533E-3
1.366826151E1,4.886778072E-3,2.504473738E-2,7.635590737E-4
1.367797401E1,4.886778072E-3,7.941014133E-3,1.985253533E-3
1.368768740E1,3.665083554E-3,-1.282779220E-2,4.428642802E-3
1.369740146E1,1.221694518E-3,-1.649287529E-2,3.206948051E-3
1.370711469E1,-2.443389036E-3,-6.719320081E-3,7.635590737E-4
1.371682719E1,1.221694518E-3,4.275931045E-3,-2.901524538E-3
1.372654057E1,4.886778072E-3,5.497625098E-3,-6.566607859E-3
1.373625464E1,2.443389036E-3,6.108472589E-4,-5.344913341E-3
1.374596786E1,-1.221694518E-3,4.275931045E-3,-5.344913341E-3
1.375568042E1,-1.221694518E-3,1.160609815E-2,-6.566607859E-3
1.376539375E1,-0.000000000E0,1.038440317E-2,-5.344913341E-3
1.377510781E1,-4.886778072E-3,1.832541777E-3,-2.901524538E-3
1.378482115E1,-1.221694518E-2,-1.038440317E-2,3.206948051E-3
1.379453359E1,-1.343864016E-2,-2.137965336E-2,9.315420873E-3
1.380424693E1,-6.108472589E-3,-1.771457121E-2,9.315420873E-3
1.381396099E1,2.443389036E-3,-4.275931045E-3,5.650337320E-3
1.382367432E1,8.551862091E-3,1.527118124E-2,7.635590737E-4
1.383338677E1,8.551862091E-3,1.893626526E-2,-1.679830020E-3
1.384310010E1,2.443389036E-3,1.832541777E-3,-1.679830020E-3
1.385281422E1,-4.886778072E-3,-1.893626526E-2,3.206948051E-3
1.386252745E1,-6.108472589E-3,-1.893626526E-2,6.872031838E-3
1.387223995E1,-8.551862091E-3,-6.719320081E-3,6.872031838E-3
1.388195328E1,-8.551862091E-3,-6.108472589E-4,6.872031838E-3
1.389166740E1,-7.330167107E-3,-7.941014133E-3,6.872031838E-3
1.390138063E1,-2.443389036E-3,-2.015795931E-2,4.428642802E-3
1.391109312E1,6.108472589E-3,-2.260134928E-2,-1.679830020E-3
1.392080646E1,6.108472589E-3,-1.771457121E-2,-6.566607859E-3
1.393052057E1,-0.000000000E0,-1.404948719E-2,-6.566607859E-3
1.394023380E1,-7.330167107E-3,-6.719320081E-3,-5.344913341E-3
1.394994630E1,-4.886778072E-3,1.160609815E-2,-1.679830020E-3
1.395965969E1,-1.221694518E-3,2.260134928E-2,7.635590737E-4
1.396937375E1,-1.221694518E-3,1.649287529E-2,5.650337320E-3
1.397908698E1,-4.886778072E-3,-3.054236295E-3,9.315420873E-3
1.398879948E1,-4.886778072E-3,-2.015795931E-2,9.315420873E-3
1.399851286E1,-1.221694518E-3,-1.282779220E-2,8.093725890E-3
1.400822693E1,2.443389036E-3,3.054236295E-3,3.206948051E-3
1.401794016E1,7.330167107E-3,1.832541777E-3,1.985253533E-3
1.402765271E1,6.108472589E-3,-6.719320081E-3,3.206948051E-3
1.403736604E1,-0.000000000E0,-7.941014133E-3,5.650337320E-3
1.404708010E1,-3.665083554E-3,-5.497625098E-3,5.650337320E-3
1.405679344E1,-4.886778072E-3,-4.275931045E-3,4.428642802E-3
1.406650589E1,-1.221694518E-3,-3.054236295E-3,4.428642802E-3
1.407621922E1,1.221694518E-3,3.054236295E-3,1.985253533E-3
1.408593328E1,2.443389036E-3,9.162709117E-3,-1.679830020E-3
1.409564662E1,-0.000000000E0,1.404948719E-2,-2.901524538E-3
1.410535906E1,-1.221694518E-3,1.893626526E-2,-2.901524538E-3
1.411507240E1,-1.221694518E-3,1.893626526E-2,-4.581354442E-4
1.412478651E1,-0.000000000E0,1.038440317E-2,1.985253533E-3
1.413449974E1,-0.000000000E0,-4.275931045E-3,5.650337320E-3
1.414421224E1,1.221694518E-3,-1.893626526E-2,6.872031838E-3
1.415392557E1,2.443389036E-3,-3.115320951E-2,8.093725890E-3
1.416363969E1,8.551862091E-3,-2.993151546E-2,6.872031838E-3
1.417335292E1,1.221694518E-2,-7.941014133E-3,3.206948051E-3
1.418306542E1,9.773556143E-3,1.771457121E-2,-1.679830020E-3
1.419277875E1,3.665083554E-3,2.870982140E-2,-5.344913341E-3
1.420249287E1,3.665083554E-3,2.870982140E-2,-4.123218823E-3
1.421220609E1,4.886778072E-3,2.137965336E-2,-2.901524538E-3
1.422191859E1,-2.443389036E-3,3.054236295E-3,-1.679830020E-3
1.423163198E1,-1.588202827E-2,-1.404948719E-2,1.985253533E-3
1.424134604E1,-2.199050039E-2,-1.771457121E-2,5.650337320E-3
1.425105927E1,-1.588202827E-2,-1.282779220E-2,4.428642802E-3
1.426077182E1,-3.665083554E-3,-9.162709117E-3,1.985253533E-3
1.427048516E1,4.886778072E-3,-4.275931045E-3,7.635590737E-4
1.428019922E1,9.773556143E-3,9.162709117E-3,7.635590737E-4
1.428991255E1,1.343864016E-2,1.527118124E-2,3.206948051E-3
1.429962500E1,1.099525020E-2,3.054236295E-3,4.428642802E-3
1.430933833E1,7.330167107E-3,-1.038440317E-2,4.428642802E-3
1.431905245E1,3.665083554E-3,-1.404948719E-2,3.206948051E-3
1.432876568E1,2.443389036E-3,-5.497625098E-3,3.206948051E-3
1.433847818E1,3.665083554E-3,9.162709117E-3,3.206948051E-3
1.434819151E1,4.886778072E-3,1.404948719E-2,7.635590737E-4
1.435790562E1,-1.221694518E-3,4.275931045E-3,3.206948051E-3
1.436761885E1,-9.773556143E-3,-1.832541777E-3,4.428642802E-3
1.437733135E1,-1.099525020E-2,3.054236295E-3,3.206948051E-3
1.438704474E1,-3.665083554E-3,5.497625098E-3,7.635590737E-4
1.439675880E1,3.665083554E-3,-6.108472589E-4,-1.679830020E-3
1.440647203E1,6.108472589E-3,-5.497625098E-3,-4.581354442E-4
1.441618458E1,4.886778072E-3,-6.719320081E-3,7.635590737E-4
1.442589792E1,-0.000000000E0,-7.941014133E-3,4.428642802E-3
1.443561198E1,-4.886778072E-3,-5.497625098E-3,8.093725890E-3
1.444532531E1,-7.330167107E-3,3.054236295E-3,8.093725890E-3
1.445503776E1,-7.330167107E-3,1.282779220E-2,3.206948051E-3
1.446475109E1,-8.551862091E-3,1.649287529E-2,1.985253533E-3
1.447446521E1,-9.773556143E-3,1.649287529E-2,1.985253533E-3
1.448417844E1,-1.221694518E-2,7.941014133E-3,3.206948051E-3
1.449389094E1,-1.221694518E-2,-4.275931045E-3,5.650337320E-3
1.450360432E1,-4.886778072E-3,-1.527118124E-2,6.872031838E-3
1.451331839E1,7.330167107E-3,-2.015795931E-2,8.093725890E-3
1.452303162E1,1.466033421E-2,-1.771457121E-2,6.872031838E-3
1.453274417E1,1.466033421E-2,-1.404948719E-2,4.428642802E-3
1.454245750E1,1.099525020E-2,-6.719320081E-3,1.985253533E-3
1.455217162E1,1.221694518E-2,7.941014133E-3,-4.581354442E-4
1.456188484E1,1.343864016E-2,2.260134928E-2,-2.901524538E-3
1.457159734E1,1.343864016E-2,2.137965336E-2,-4.123218823E-3
1.458131068E1,7.330167107E-3,3.054236295E-3,-2.901524538E-3
1.459102479E1,-3.665083554E-3,-1.404948719E-2,3.206948051E-3
1.460073802E1,-1.221694518E-2,-2.137965336E-2,6.872031838E-3
1.461045057E1,-1.343864016E-2,-2.015795931E-2,5.650337320E-3
1.462016391E1,-1.099525020E-2,-1.527118124E-2,3.206948051E-3
1.462987797E1,-9.773556143E-3,-4.275931045E-3,-1.679830020E-3
1.463959130E1,-8.551862091E-3,2.015795931E-2,-4.123218823E-3
1.464930375E1,-4.886778072E-3,4.337015375E-2,-4.123218823E-3
1.465901708E1,2.443389036E-3,3.481829539E-2,-2.901524538E-3
1.466873120E1,8.551862091E-3,4.275931045E-3,7.635590737E-4
1.467844443E1,9.773556143E-3,-2.260134928E-2,5.650337320E-3
1.468815693E1,9.773556143E-3,-2.870982140E-2,8.093725890E-3
1.469787031E1,8.551862091E-3,-1.649287529E-2,9.315420873E-3
1.470758438E1,2.443389036E-3,6.108472589E-4,6.872031838E-3
1.471729771E1,-3.665083554E-3,2.137965336E-2,5.650337320E-3
1.472701016E1,-8.551862091E-3,3.726168349E-2,4.428642802E-3
1.473672349E1,-9.773556143E-3,4.092676565E-2,3.206948051E-3
1.474643760E1,-1.221694518E-2,2.993151546E-2,7.635590737E-4
1.475615083E1,-1.466033421E-2,1.771457121E-2,-4.581354442E-4
1.476586333E1,-1.588202827E-2,-6.108472589E-4,-4.581354442E-4
1.477557667E1,-9.773556143E-3,-2.015795931E-2,-2.901524538E-3
1.478529078E1,2.443389036E-3,-2.504473738E-2,-5.344913341E-3
1.479500401E1,1.588202827E-2,-5.497625098E-3,-6.566607859E-3
1.480471656E1,2.321219631E-2,2.137965336E-2,-9.009997360E-3
1.481442990E1,2.199050039E-2,3.237490356E-2,-5.344913341E-3
1.482414401E1,1.099525020E-2,1.649287529E-2,-4.581354442E-4
1.483385724E1,-1.221694518E-3,4.275931045E-3,4.428642802E-3
1.484356974E1,-9.773556143E-3,4.275931045E-3,8.093725890E-3
1.485328312E1,-1.466033421E-2,1.832541777E-3,5.650337320E-3
1.486299719E1,-1.099525020E-2,-1.832541777E-3,1.985253533E-3
1.487271042E1,-2.443389036E-3,-5.497625098E-3,-4.581354442E-4
1.488242297E1,4.886778072E-3,-7.941014133E-3,-4.123218823E-3
1.489213630E1,7.330167107E-3,-1.160609815E-2,-5.344913341E-3
1.490185042E1,6.108472589E-3,-2.015795931E-2,-4.123218823E-3
1.491156365E1,3.665083554E-3,-2.382304333E-2,7.635590737E-4
1.492127615E1,-0.000000000E0,-1.649287529E-2,3.206948051E-3
1.493098953E1,2.443389036E-3,1.832541777E-3,3.206948051E-3
1.494070359E1,4.886778072E-3,2.137965336E-2,3.206948051E-3
1.495041682E1,6.108472589E-3,2.748812735E-2,-4.581354442E-4
1.496012938E1,2.443389036E-3,1.771457121E-2,-4.581354442E-4
1.496984271E1,-4.886778072E-3,1.832541777E-3,7.635590737E-4
1.497955682E1,-8.551862091E-3,-1.160609815E-2,-4.581354442E-4
1.498927005E1,-9.773556143E-3,-1.527118124E-2,-2.901524538E-3
1.499898255E1,-8.551862091E-3,-9.162709117E-3,-7.788302377E-3
1.500869589E1,-8.551862091E-3,6.108472589E-4,-1.145338640E-2
1.501841000E1,-7.330167107E-3,5.497625098E-3,-1.267508045E-2
1.502812323E1,-0.000000000E0,4.275931045E-3,-1.389677543E-2
1.503783578E1,4.886778072E-3,-3.054236295E-3,-1.389677543E-2
1.504754912E1,6.108472589E-3,-4.275931045E-3,-1.389677543E-2
1.505726323E1,3.665083554E-3,-5.497625098E-3,-1.267508045E-2
1.506697646E1,-3.665083554E-3,-9.162709117E-3,-7.788302377E-3
1.507668896E1,-8.551862091E-3,-4.275931045E-3,-2.901524538E-3
1.508640234E1,-7.330167107E-3,1.038440317E-2,7.635590737E-4
1.509611641E1,-3.665083554E-3,1.649287529E-2,7.635590737E-4
1.510582974E1,-3.665083554E-3,4.275931045E-3,7.635590737E-4
1.511554219E1,-6.108472589E-3,-1.160609815E-2,4.428642802E-3
1.512525552E1,-8.551862091E-3,-1.282779220E-2,8.093725890E-3
1.513496964E1,-7.330167107E-3,6.108472589E-4,8.093725890E-3
1.514468287E1,-3.665083554E-3,2.137965336E-2,8.093725890E-3
1.515439537E1,-0.000000000E0,3.237490356E-2,8.093725890E-3
1.516410875E1,3.665083554E-3,2.504473738E-2,8.093725890E-3
1.517382281E1,7.330167107E-3,4.275931045E-3,9.315420873E-3
1.518353615E1,7.330167107E-3,-2.137965336E-2,8.093725890E-3
1.519324859E1,6.108472589E-3,-2.748812735E-2,6.872031838E-3
1.520296193E1,8.551862091E-3,-4.275931045E-3,7.635590737E-4
1.521267604E1,7.330167107E-3,2.137965336E-2,-7.788302377E-3
1.522238927E1,1.221694518E-3,2.870982140E-2,-1.389677543E-2
1.523210182E1,-6.108472589E-3,2.137965336E-2,-1.267508045E-2
1.524181516E1,-9.773556143E-3,1.649287529E-2,-9.009997360E-3
1.525152922E1,-9.773556143E-3,2.137965336E-2,-5.344913341E-3
1.526124255E1,-8.551862091E-3,2.382304333E-2,-4.581354442E-4
1.527095500E1,-8.551862091E-3,1.160609815E-2,3.206948051E-3
1.528066838E1,-6.108472589E-3,-6.719320081E-3,6.872031838E-3
1.529038245E1,2.443389036E-3,-1.893626526E-2,5.650337320E-3
1.530009568E1,1.099525020E-2,-2.260134928E-2,1.985253533E-3
1.530980823E1,1.221694518E-2,-1.771457121E-2,-4.123218823E-3
1.531952156E1,4.886778072E-3,-9.162709117E-3,-6.566607859E-3
1.532923568E1,-3.665083554E-3,-9.162709117E-3,-6.566607859E-3
1.533894891E1,-7.330167107E-3,-1.832541777E-3,-2.901524538E-3
1.534866141E1,-4.886778072E-3,1.771457121E-2,-2.901524538E-3
1.535837479E1,1.221694518E-3,2.993151546E-2,-2.901524538E-3
1.536808885E1,6.108472589E-3,2.382304333E-2,7.635590737E-4
1.537780219E1,9.773556143E-3,3.054236295E-3,5.650337320E-3
1.538751464E1,1.099525020E-2,-1.649287529E-2,8.093725890E-3
1.539722797E1,9.773556143E-3,-1.649287529E-2,8.093725890E-3
1.540694208E1,4.886778072E-3,-5.497625098E-3,4.428642802E-3
1.541665531E1,2.443389036E-3,-3.054236295E-3,-4.581354442E-4
1.542636781E1,2.443389036E-3,-7.941014133E-3,-2.901524538E-3
1.543608120E1,-0.000000000E0,-1.649287529E-2,-2.901524538E-3
1.544579526E1,-6.108472589E-3,-2.015795931E-2,-4.123218823E-3
1.545550859E1,-1.099525020E-2,-5.497625098E-3,-4.123218823E-3
1.546522104E1,-1.099525020E-2,2.748812735E-2,-6.566607859E-3
1.547493443E1,-7.330167107E-3,5.070032179E-2,-9.009997360E-3
1.548464849E1,-3.665083554E-3,4.581354558E-2,-1.023169141E-2
1.549436172E1,-2.443389036E-3,2.626643144E-2,-6.566607859E-3
1.550407427E1,-1.221694518E-3,3.054236295E-3,-1.679830020E-3
1.551378760E1,-3.665083554E-3,-1.527118124E-2,4.428642802E-3
1.552350172E1,-7.330167107E-3,-2.260134928E-2,1.053711493E-2
1.553321495E1,-9.773556143E-3,-2.382304333E-2,1.420219894E-2
1.554292745E1,-6.108472589E-3,-2.748812735E-2,1.420219894E-2
1.555264083E1,6.108472589E-3,-2.626643144E-2,1.053711493E-2
1.556235490E1,1.588202827E-2,-1.160609815E-2,5.650337320E-3
1.557206823E1,1.588202827E-2,4.275931045E-3,7.635590737E-4
1.558178068E1,9.773556143E-3,1.649287529E-2,-4.581354442E-4
1.559149401E1,4.886778072E-3,2.504473738E-2,7.635590737E-4
1.560120813E1,2.443389036E-3,2.626643144E-2,-4.581354442E-4
1.561092135E1,-0.000000000E0,1.160609815E-2,-4.581354442E-4
1.562063391E1,-4.886778072E-3,-9.162709117E-3,-4.581354442E-4
1.563034724E1,-8.551862091E-3,-2.015795931E-2,-4.581354442E-4
1.564006130E1,-4.886778072E-3,-1.404948719E-2,-1.679830020E-3
1.564977464E1,2.443389036E-3,6.108472589E-4,-2.901524538E-3
1.565948708E1,3.665083554E-3,9.162709117E-3,-4.123218823E-3
1.566920042E1,-1.221694518E-3,3.054236295E-3,-2.901524538E-3
1.567891453E1,-3.665083554E-3,-1.282779220E-2,-1.679830020E-3
1.568862786E1,-4.886778072E-3,-2.015795931E-2,7.635590737E-4
1.569834031E1,-6.108472589E-3,-1.771457121E-2,-1.679830020E-3
1.570805365E1,-2.443389036E-3,-7.941014133E-3,-4.123218823E-3
1.571776776E1,2.443389036E-3,1.771457121E-2,-2.901524538E-3
1.572748099E1,3.665083554E-3,3.481829539E-2,-4.581354442E-4
1.573719349E1,-1.221694518E-3,3.603998944E-2,3.206948051E-3
1.574690688E1,-9.773556143E-3,2.260134928E-2,6.872031838E-3
1.575662094E1,-1.588202827E-2,6.719320081E-3,1.298050396E-2
1.576633427E1,-1.832541823E-2,-1.832541777E-3,1.542389300E-2
1.577604672E1,-1.710372418E-2,5.497625098E-3,1.542389300E-2
1.578576005E1,-1.343864016E-2,2.015795931E-2,1.053711493E-2
1.579547417E1,-8.551862091E-3,2.748812735E-2,5.650337320E-3
1.580518740E1,2.443389036E-3,1.893626526E-2,6.872031838E-3
1.581489995E1,1.954711229E-2,3.054236295E-3,6.872031838E-3
1.582461328E1,2.809897438E-2,-5.497625098E-3,4.428642802E-3
1.583432740E1,2.809897438E-2,-3.054236295E-3,4.428642802E-3
1.584404063E1,1.832541823E-2,5.497625098E-3,4.428642802E-3
1.585375312E1,7.330167107E-3,1.282779220E-2,4.428642802E-3
1.586346651E1,-0.000000000E0,1.893626526E-2,7.635590737E-4
1.587318057E1,-0.000000000E0,2.504473738E-2,-7.788302377E-3
