"Time (s)","Acceleration x (m/s^2)","Acceleration y (m/s^2)","Acceleration z (m/s^2)"
5.231324300E-2,-9.101698995E-1,-9.487542152E0,1.923231244E0
6.202990900E-2,-5.940182209E-1,-1.019641590E1,1.772184253E0
7.173990900E-2,-4.121637046E-1,-1.075424194E1,1.571187139E0
8.145287800E-2,-3.451646566E-1,-1.103180981E1,1.204786181E0
9.116506600E-2,-5.222335458E-1,-1.107488060E1,8.650053740E-1
1.008780340E-1,-8.551349640E-1,-1.086670494E1,5.129613280E-1
1.105918360E-1,-1.259821177E0,-1.058405304E1,2.832503915E-1
1.203047010E-1,-1.800599098E0,-1.026819992E1,1.800599098E-1
1.300168890E-1,-2.145464659E0,-1.002383327E1,-1.615155302E-2
1.397298570E-1,-2.035394669E0,-1.005015373E1,1.824527234E-1
1.494436590E-1,-1.858325839E0,-9.966405869E0,5.943173170E-1
1.591565760E-1,-1.764706731E0,-9.830014229E0,6.469594240E-1
1.688687640E-1,-1.733600020E0,-9.736694336E0,5.871388316E-1
1.785817320E-1,-1.630708575E0,-9.660123825E0,7.597211599E-1
1.882955340E-1,-1.532602906E0,-9.604789734E0,7.573283911E-1
1.980084510E-1,-1.666600943E0,-9.638588905E0,6.062814593E-1
2.077206390E-1,-1.738385677E0,-9.691230774E0,7.426723242E-1
2.174336070E-1,-1.721635938E0,-9.640981674E0,9.607182741E-1
2.271474090E-1,-1.795813441E0,-9.657731056E0,8.003991842E-1
2.368603260E-1,-1.894218206E0,-9.556933403E0,9.104689956E-1
2.465725140E-1,-1.841576099E0,-9.475577354E0,3.693920076E-1
2.562854300E-1,-1.695314884E0,-9.454042435E0,-3.391826153E-1
2.659992840E-1,-1.733600020E0,-9.525827408E0,-3.200400174E-1
2.757121490E-1,-1.573280931E0,-9.676874161E0,-1.597209126E-1
2.854243360E-1,-1.199701428E0,-1.006211853E1,-2.386840582E-1
2.951373050E-1,-1.137488008E0,-1.013629627E1,1.752742529E-1
3.048511070E-1,-1.080060363E0,-1.014108181E1,8.506484628E-1
3.145640240E-1,-1.149452209E0,-9.710372925E0,8.961120844E-1
3.242762110E-1,-1.642672777E0,-8.929715157E0,4.363910258E-1
3.339891800E-1,-2.334497690E0,-8.338388443E0,5.057829022E-1
3.437029820E-1,-2.962015390E0,-7.804490089E0,4.483551383E-1
3.534158990E-1,-2.825325251E0,-7.311269760E0,-6.960122585E-1
3.631280860E-1,-2.049751759E0,-7.115057945E0,-2.414956331E0
3.728410550E-1,-1.048953652E0,-6.978667259E0,-3.619144201E0
3.825548570E-1,-7.426723242E-1,-7.182057381E0,-4.433301926E0
3.922677740E-1,-9.628120065E-1,-7.864310741E0,-3.839582920E0
4.019799610E-1,-1.432104349E0,-8.702396393E0,-1.995913148E0
4.116928780E-1,-1.942074656E0,-9.075976372E0,-1.103091240E0
4.214067320E-1,-1.867897153E0,-9.212367058E0,-9.257232547E-1
4.311196490E-1,-1.350748420E0,-8.786145210E0,-7.582256794E-1
4.408317840E-1,-1.245165110E0,-8.106285095E0,-3.296113312E-1
4.505447530E-1,-1.274178028E0,-7.363911629E0,-4.351946115E-1
4.602585550E-1,-1.597209096E0,-6.399304867E0,-1.715952992E0
4.699714720E-1,-2.126322031E0,-5.719444275E0,-3.042174816E0
4.796836590E-1,-2.293819666E0,-5.851049423E0,-3.590430260E0
4.893966280E-1,-2.583650351E0,-6.557231426E0,-3.892225027E0
4.991104300E-1,-3.110370398E0,-7.198806763E0,-4.646263599E0
5.088233470E-1,-3.478864908E0,-7.703991413E0,-5.828916073E0
5.185355340E-1,-2.765504837E0,-8.491529465E0,-6.090032578E0
5.282485030E-1,-1.616351724E0,-9.320044518E0,-4.332803726E0
5.379623050E-1,-1.657029629E0,-9.387042999E0,-2.407777786E0
5.476752220E-1,-2.037787676E0,-8.781359673E0,-1.675274968E0
5.573874090E-1,-1.918146491E0,-8.213961601E0,-1.653739572E0
5.671003780E-1,-1.362712502E0,-7.854739666E0,-2.053340912E0
5.768141800E-1,-5.676971674E-1,-7.816454411E0,-4.119543076E0
5.865270970E-1,4.737788737E-1,-7.934001446E0,-7.433004379E0
5.962392320E-1,1.184746265E0,-7.909774303E0,-8.433802605E0
6.059522010E-1,1.505384564E0,-7.998608112E0,-6.913462639E0
6.156660550E-1,1.251745343E0,-8.051250458E0,-5.675775528E0
6.253789720E-1,8.757730722E-1,-7.835597038E0,-5.735595703E0
6.350911070E-1,1.504487246E-1,-7.373782158E0,-6.532704830E0
6.448040760E-1,-6.394818425E-1,-6.976274490E0,-6.600003242E0
6.545178780E-1,-1.070489049E0,-6.926024914E0,-6.585646152E0
6.642307950E-1,-1.329213023E0,-7.014559746E0,-7.634001732E0
6.739429820E-1,-1.484746456E0,-6.554838657E0,-8.579764366E0
6.836559510E-1,-1.697707653E0,-6.102295876E0,-7.605287552E0
6.933697530E-1,-1.901396751E0,-5.939583778E0,-6.702894211E0
7.030826700E-1,-2.312962294E0,-5.918048382E0,-7.289434910E0
7.127948570E-1,-2.413759947E0,-5.671288967E0,-8.708976746E0
7.225078260E-1,-1.697707653E0,-5.635396481E0,-8.716156006E0
7.322216280E-1,-8.455637097E-1,-5.745765209E0,-7.516753197E0
7.419345450E-1,-1.274178028E-1,-5.769693375E0,-7.782655716E0
7.516467320E-1,4.761717021E-1,-5.369792938E0,-1.027238750E1
7.613597010E-1,7.728816867E-1,-4.443172455E0,-1.175444221E1
7.710735030E-1,1.045962572E0,-3.753740549E0,-1.006421185E1
7.807864200E-1,6.460621357E-1,-3.344268799E0,-8.479266167E0
7.904986070E-1,1.084247708E0,-3.145664454E0,-8.093722343E0
8.002115760E-1,1.227817178E0,-2.939881802E0,-8.874381065E0
8.099253780E-1,2.054836452E-1,-2.463410854E0,-9.697811127E0
8.196382950E-1,-4.336991012E-1,-2.738585472E0,-9.807881355E0
8.293504820E-1,-7.187440991E-1,-3.246163130E0,-9.285946846E0
8.390634510E-1,-7.618148923E-1,-4.199104786E0,-8.720941544E0
8.487772530E-1,-1.199402362E-1,-4.333102703E0,-1.072253704E1
8.584901700E-1,-2.350948304E-1,-3.696312666E0,-1.215912819E1
8.682023570E-1,-8.910273314E-1,-2.599801779E0,-1.096421242E1
8.779153260E-1,-1.444068432E0,-1.579861164E0,-1.019820976E1
8.876291280E-1,-1.142273664E0,-1.124925733E0,-9.750452995E0
8.973420970E-1,-1.056132078E0,-9.550353289E-1,-9.889236450E0
9.070542320E-1,-3.954139352E-1,-1.860120535E0,-9.786345482E0
9.167672010E-1,1.791625917E-1,-2.544766903E0,-9.470493317E0
9.264810550E-1,-1.412961721E0,-2.410768747E0,-9.456135750E0
9.361939720E-1,-1.515853167E0,-2.348555326E0,-1.053350449E1
9.459061590E-1,-1.829612017E0,-1.891227245E0,-1.064836025E1
9.556191280E-1,-3.038585663E0,-7.133602500E-1,-1.135214901E1
9.653329300E-1,-2.916252613E0,-6.894320250E-1,-1.161565876E1
9.750458470E-1,-3.005086184E0,-1.038784146E0,-1.143589783E1
9.847580340E-1,-3.007478952E0,-1.900798440E0,-1.167069340E1
9.944710030E-1,-1.810469389E0,-3.023630619E0,-1.156511021E1
1.004184805E0,-1.080060363E0,-3.631706476E0,-1.165155029E1
1.013897722E0,-7.402794957E-1,-3.444767237E0,-1.152682495E1
1.023609909E0,-9.843474030E-1,-2.793620348E0,-1.157707405E1
1.033322878E0,-1.525424480E0,-1.845763564E0,-1.171137142E1
1.043036680E0,-1.690529227E0,-1.333400369E0,-1.200090313E1
1.052749649E0,-1.283749342E0,-1.615753531E0,-1.298255825E1
1.062461784E0,-1.317248821E0,-2.003689766E0,-1.264965725E1
1.072174805E0,-1.185344458E0,-2.276471615E0,-1.284616756E1
1.081888607E0,-5.413761139E-1,-2.630908489E0,-1.251565838E1
1.091601524E0,-6.370890141E-1,-2.652443886E0,-1.193151093E1
1.101313711E0,-1.218844056E0,-2.413161755E0,-1.255633640E1
1.111026680E0,-1.802991867E0,-2.314756870E0,-1.192672539E1
1.120740482E0,-2.040180445E0,-2.252543449E0,-1.228834057E1
1.130453451E0,-2.248355865E0,-1.840977907E0,-1.146461105E1
1.140165586E0,-1.827219248E0,-1.539183140E0,-1.149571800E1
1.149878607E0,-1.520638824E0,-1.352542996E0,-1.178076363E1
1.159592409E0,-1.499103427E0,-1.603789330E0,-1.097139072E1
1.169305326E0,-1.523031592E0,-1.955833435E0,-1.068425179E1
1.179017514E0,-1.839183331E0,-2.202294111E0,-1.118943691E1
1.188730482E0,-1.896611094E0,-2.453839540E0,-1.166830063E1
1.198444336E0,-1.834397674E0,-2.664407969E0,-1.121097183E1
1.208157201E0,-1.805384636E0,-2.745764017E0,-1.110329533E1
1.217869441E0,-1.793420553E0,-2.760120869E0,-1.064357376E1
1.227582409E0,-1.599601984E0,-2.858226538E0,-1.078714371E1
1.237296211E0,-1.338784218E0,-2.822334290E0,-1.163958645E1
1.247009128E0,-1.218844056E0,-2.755335331E0,-1.122772217E1
1.256721316E0,-9.652048349E-1,-2.884846687E0,-1.089242744E1
1.266434284E0,-7.331010103E-1,-2.935096025E0,-1.049043369E1
1.276148139E0,-9.077770710E-1,-3.061915636E0,-9.762416840E0
1.285861055E0,-8.240283132E-1,-3.042773008E0,-1.011206818E1
1.295573243E0,-3.451646566E-1,-3.349054337E0,-1.017428207E1
1.305286211E0,-6.969095767E-2,-3.918845177E0,-9.923035622E0
1.315000066E0,-2.135594189E-1,-4.414458752E0,-1.010010433E1
1.324712982E0,-7.163512707E-1,-4.512564182E0,-9.750452995E0
1.334425170E0,-7.043871880E-1,-4.555634975E0,-9.183054924E0
1.344138139E0,-1.001097202E0,-4.733003139E0,-9.484849930E0
1.353851941E0,-1.427318692E0,-4.562813759E0,-9.908379555E0
1.363564857E0,-1.604387641E0,-4.733003139E0,-9.740881920E0
1.373277045E0,-1.554138303E0,-4.957928658E0,-9.535099030E0
1.382990066E0,-1.276570916E0,-5.099104881E0,-9.355637550E0
1.392703868E0,-9.269196987E-1,-5.278865814E0,-8.591729164E0
1.402416784E0,-5.892325640E-1,-5.420042515E0,-7.885547161E0
1.412128972E0,-3.523431420E-1,-5.934798241E0,-7.868797302E0
1.421841993E0,-2.255235314E-1,-6.437590122E0,-7.004390240E0
1.431555795E0,-4.336991012E-1,-6.774978161E0,-7.126723289E0
1.441268711E0,-9.269196987E-1,-7.069594383E0,-7.375576496E0
1.450980899E0,-2.004287958E0,-7.215556622E0,-7.143472672E0
1.460693868E0,-2.487937450E0,-7.170093060E0,-6.717251301E0
1.470407722E0,-2.322533369E0,-7.086344242E0,-6.180960178E0
1.480120639E0,-1.906182289E0,-6.705586433E0,-6.121139526E0
1.489832826E0,-1.441675663E0,-6.626623154E0,-6.027819157E0
1.499545795E0,-1.060917735E0,-6.700800896E0,-5.836094379E0
1.509259649E0,-6.777670383E-1,-6.691229343E0,-5.400301456E0
1.518972566E0,-5.581258535E-1,-6.660122871E0,-4.421338081E0
1.528684753E0,-8.192426562E-1,-6.538088799E0,-3.659822226E0
1.538397722E0,-1.147059321E0,-6.337091446E0,-3.736392498E0
1.548111576E0,-1.259821177E0,-5.908477306E0,-3.985545158E0
1.557824493E0,-1.242772222E0,-5.690730572E0,-4.109972000E0
1.567536680E0,-1.503889084E0,-6.023332596E0,-3.856332779E0
1.577249649E0,-1.580459356E0,-6.454339981E0,-3.733999729E0
1.586963503E0,-1.475175142E0,-7.112665176E0,-3.425325632E0
1.596676420E0,-1.470389485E0,-7.881060600E0,-3.106781006E0
1.606388607E0,-1.640279889E0,-8.352746010E0,-2.630609512E0
1.616101576E0,-1.668993831E0,-8.723932266E0,-1.756630898E0
1.625815430E0,-9.532406926E-1,-8.953642845E0,-1.648953915E0
1.635528347E0,-3.858426586E-2,-8.989535332E0,-2.240280151E0
1.645240534E0,6.652047038E-1,-8.774181366E0,-2.529811859E0
1.654953503E0,3.418745399E-1,-8.948857307E0,-1.998306036E0
1.664667357E0,-6.203392744E-1,-9.272188187E0,-1.050449133E0
1.674380274E0,-1.918146491E0,-9.595218658E0,-8.228318691E-1
1.684092461E0,-2.909074068E0,-9.499505997E0,-1.344766378E0
1.693805482E0,-2.705684185E0,-9.439684868E0,-2.826820850E0
1.703519284E0,-1.728814363E0,-9.119047165E0,-3.238685369E0
1.713232201E0,-5.700899959E-1,-8.932107925E0,-3.087638617E0
1.722944389E0,-2.638086975E-1,-8.422137260E0,-3.334398270E0
1.732657409E0,-5.820540786E-1,-7.725526810E0,-3.724428415E0
1.742371211E0,-1.170987606E0,-6.935596466E0,-3.892225027E0
1.752084128E0,-1.846361756E0,-6.516553402E0,-3.813261986E0
1.761796316E0,-2.918645382E0,-6.356234074E0,-3.099602699E0
1.771509336E0,-4.149453640E0,-6.042475224E0,-1.826022744E0
1.781223139E0,-5.087738991E0,-5.941977024E0,-9.041878581E-1
1.790936055E0,-5.645565987E0,-6.080760479E0,-3.678964674E-1
1.800648295E0,-5.664708614E0,-6.236293793E0,-8.228318691E-1
1.810361264E0,-4.980062008E0,-6.839883327E0,-1.081555843E0
1.820075066E0,-3.737588882E0,-7.627421379E0,-8.276175261E-1
1.829788034E0,-2.367997169E0,-8.630612373E0,-1.262213886E-1
1.839500222E0,-1.300499082E0,-9.834799767E0,8.458628058E-1
1.849213191E0,-3.164508045E-1,-1.087866879E1,1.386939883E0
1.858926993E0,8.039883971E-1,-1.182413292E1,1.252642632E0
1.868639961E0,1.632503271E0,-1.246122169E1,1.269392371E0
1.878352149E0,1.962712765E0,-1.292782211E1,1.331904888E0
1.888065118E0,1.261316657E0,-1.299751377E1,1.276570916E0
1.897778972E0,-2.135594189E-1,-1.255693531E1,7.908278704E-1
1.907491889E0,-1.264606714E0,-1.215464211E1,4.292125702E-1
1.917204076E0,-1.678565025E0,-1.187946701E1,5.344967842E-1
1.926917045E0,-2.018645048E0,-1.131924725E1,7.740781307E-1
1.936630899E0,-1.949253201E0,-1.087627602E1,8.195417523E-1
1.946343816E0,-1.743171334E0,-1.041655540E1,6.876373887E-1
1.956056003E0,-1.298106313E0,-9.954441071E0,6.421737671E-1
1.965769024E0,-7.905287743E-1,-9.432506561E0,6.493522525E-1
1.975482826E0,-6.825526357E-1,-8.934500694E0,6.924230456E-1
1.985195743E0,-1.048953652E0,-8.362317085E0,6.900302172E-1
1.994907982E0,-1.721635938E0,-7.804490089E0,4.100699723E-1
2.004620951E0,-2.341675997E0,-7.615457058E0,3.409772366E-2
2.014334753E0,-2.609971285E0,-7.857132435E0,-2.093719877E-2
2.024047722E0,-2.447259426E0,-8.257032394E0,6.281159073E-2
2.033759909E0,-1.884646893E0,-8.745467186E0,1.971087605E-1
2.043472878E0,-1.113559842E0,-9.384650230E0,7.019943595E-1
2.053186680E0,-5.509474277E-1,-9.999904633E0,1.185643673E0
2.062899649E0,-1.920240223E-1,-1.050748253E1,1.413260818E0
2.072611836E0,-1.031904742E-1,-1.087388325E1,1.659721613E0
2.082324805E0,-4.169493318E-1,-1.088584709E1,1.798505306E0
2.092038659E0,-8.096713424E-1,-1.066540909E1,1.633400559E0
2.101751576E0,-1.202094316E0,-1.038544846E1,1.389332652E0
2.111463764E0,-1.436890006E0,-1.012672424E1,1.178465128E0
2.121176732E0,-1.798206210E0,-9.813264847E0,9.966106415E-1
2.130890586E0,-2.152642965E0,-9.684052467E0,7.740781307E-1
2.140603503E0,-2.162214279E0,-9.739087105E0,9.032905698E-1
2.150315691E0,-2.030609131E0,-9.743872643E0,1.204786181E0
2.160028711E0,-1.951645970E0,-9.808479309E0,8.338986635E-1
2.169742514E0,-1.934896231E0,-9.719944954E0,1.226321608E-1
2.179455482E0,-1.956431627E0,-9.523433685E0,-5.572285652E-1
2.189167670E0,-1.903789520E0,-9.430113792E0,-1.074377418E0
2.198880639E0,-1.865504384E0,-9.461220741E0,-1.191625714E0
2.208594441E0,-1.951645970E0,-9.604789734E0,-9.619147182E-1
2.218307409E0,-2.061715841E0,-9.813264847E0,-6.577271223E-1
2.228019597E0,-2.047358990E0,-1.000708294E1,-6.601199508E-1
2.237732566E0,-1.889432549E0,-1.023230743E1,-4.280161560E-1
2.247446420E0,-1.283749342E0,-1.061276627E1,2.545365095E-1
2.257159336E0,-8.216354847E-1,-1.078295612E1,8.482556343E-1
2.266871524E0,-6.083751321E-1,-1.057448101E1,1.008574724E0
2.276584493E0,-4.241278172E-1,-1.019880867E1,5.368895531E-1
2.286298347E0,-4.480560422E-1,-9.540184021E0,-8.898309469E-1
2.296011264E0,-8.096713424E-1,-8.800502777E0,-2.290529490E0
2.305723451E0,-1.573280931E0,-8.283353806E0,-3.303291559E0
2.315436472E0,-2.315355062E0,-7.977072716E0,-3.377469063E0
2.325150274E0,-2.665006161E0,-8.063214302E0,-2.254637241E0
2.334863243E0,-2.626721144E0,-8.288139343E0,-1.138983607E0
2.344575430E0,-2.430509567E0,-8.489136696E0,-3.969094455E-1
2.354288399E0,-1.841576099E0,-8.431708336E0,-1.615155302E-2
2.364002201E0,-1.192523003E0,-8.376673698E0,-2.003988922E-1
2.373715170E0,-6.849454641E-1,-8.209176064E0,-6.625127792E-1
2.383427357E0,-3.954139352E-1,-8.015357971E0,-5.859424472E-1
2.393140326E0,-4.480560422E-1,-7.452745438E0,-7.438687682E-1
2.402854180E0,-9.436694384E-1,-6.988238335E0,-1.490728498E0
2.412567097E0,-1.458425403E0,-6.964310169E0,-1.818844318E0
2.422279284E0,-1.841576099E0,-6.818347931E0,-1.426122308E0
2.431992253E0,-2.401795626E0,-6.887740135E0,-2.556132793E0
2.441706107E0,-2.866003275E0,-6.830312252E0,-4.038187504E0
2.451419024E0,-2.753540754E0,-6.839883327E0,-4.651049137E0
2.461131211E0,-2.406581402E0,-7.203592777E0,-4.974379063E0
2.470844232E0,-1.759921074E0,-7.634599686E0,-5.302196026E0
2.480558034E0,-1.163809061E0,-7.849953651E0,-4.619942188E0
2.490271003E0,-8.120641708E-1,-8.044071198E0,-3.087638617E0
2.499983191E0,-7.211369276E-1,-8.168498039E0,-1.064806104E0
2.509696159E0,-8.120641708E-1,-8.436494827E0,-2.267199457E-1
2.519409961E0,-1.235593796E0,-8.477172852E0,-1.878664851E0
2.529122930E0,-1.920539260E0,-8.233104706E0,-4.801796913E0
2.538835118E0,-2.514258385E0,-7.996214867E0,-7.191329479E0
2.548548086E0,-2.586043119E0,-7.969893932E0,-8.498408318E0
2.558261941E0,-2.380260229E0,-8.053643227E0,-7.899903774E0
2.567974857E0,-1.973181367E0,-8.230711937E0,-6.434599400E0
2.577687045E0,-1.350748420E0,-8.230711937E0,-4.876273632E0
2.587400014E0,-1.441675574E-1,-8.137392044E0,-3.561716557E0
2.597113868E0,5.982056856E-1,-8.247461319E0,-3.537788391E0
2.606826784E0,7.800601721E-1,-8.187641144E0,-3.937688828E0
2.616538972E0,9.978070259E-1,-8.161319733E0,-5.541777134E0
2.626251993E0,1.656431437E0,-8.158926964E0,-7.179365158E0
2.635965795E0,2.108675003E0,-8.331210136E0,-7.265506744E0
2.645678764E0,2.252543449E0,-8.417351723E0,-6.671787739E0
2.655390951E0,1.469492197E0,-8.146963120E0,-6.135496140E0
2.665103920E0,2.054836452E-1,-7.534101009E0,-5.635097504E0
2.674817722E0,-8.623134494E-1,-6.521338940E0,-6.427420616E0
2.684530691E0,-1.434497118E0,-5.558825970E0,-7.835297585E0
2.694242878E0,-2.023430586E0,-5.096712112E0,-8.239983559E0
2.703955847E0,-2.614757061E0,-4.752145767E0,-7.852047443E0
2.713669701E0,-3.117548704E0,-4.637290478E0,-7.636394501E0
2.723382618E0,-3.064906597E0,-4.656432629E0,-7.966903210E0
2.733094805E0,-2.300997972E0,-4.476672173E0,-8.785547256E0
2.742807774E0,-1.168594718E0,-4.536492825E0,-9.604491234E0
2.752521628E0,-5.485545993E-1,-4.783252239E0,-9.439386368E0
2.762234545E0,-5.389832854E-1,-5.058426857E0,-8.857631683E0
2.771946732E0,-6.538388133E-1,-5.044070244E0,-9.415457726E0
2.781659753E0,-3.882354796E-1,-4.998606682E0,-8.929415703E0
2.791373555E0,3.801597059E-1,-5.587540150E0,-8.553443909E0
2.801086472E0,8.494520187E-1,-5.762515068E0,-8.924630165E0
2.810798659E0,1.105783105E0,-5.391328335E0,-8.472087860E0
2.820511680E0,9.188438654E-1,-4.536492825E0,-8.115258217E0
2.830225482E0,4.112663865E-1,-3.715455294E0,-8.084151268E0
2.839938451E0,-1.513460279E-1,-3.155235767E0,-8.946166039E0
2.849650639E0,-8.503493667E-1,-2.685943365E0,-9.338588715E0
2.859363607E0,-1.410568953E0,-2.717050076E0,-9.525527954E0
2.869077461E0,-2.085644007E0,-3.052344322E0,-9.978070259E0
2.878790378E0,-1.783849239E0,-2.839084148E0,-1.029392338E1
2.888502566E0,-9.675976634E-1,-3.093022346E0,-1.001156998E1
2.898215534E0,-6.131607890E-1,-2.662015200E0,-1.001396275E1
2.907929389E0,-4.025924206E-1,-2.918346405E0,-1.077278709E1
2.917642305E0,-2.925225794E-1,-2.968595505E0,-1.080867863E1
2.927354493E0,4.516452923E-2,-3.918845177E0,-1.051675415E1
2.937067461E0,-1.944168359E-1,-3.957130432E0,-9.810274124E0
2.946781316E0,-1.752742529E-1,-3.906881094E0,-1.001156998E1
2.956494232E0,-2.925225794E-1,-3.547957659E0,-9.879665375E0
2.966206420E0,-1.226022482E0,-3.018844843E0,-1.098096180E1
2.975919389E0,-2.040180445E0,-2.669193745E0,-1.126840019E1
2.985633243E0,-2.243570328E0,-2.401197433E0,-1.095703411E1
2.995346159E0,-2.341675997E0,-1.694716692E0,-1.097617626E1
3.005058399E0,-1.860718727E0,-1.821835399E0,-1.100967598E1
3.014771368E0,-1.613958836E0,-1.785943031E0,-1.117747307E1
3.024485170E0,-1.147059321E0,-1.872084618E0,-1.139282703E1
3.034198139E0,-6.514459848E-1,-2.185544491E0,-1.218784237E1
3.043910326E0,-5.054838061E-1,-2.489732027E0,-1.184536934E1
3.053623295E0,-3.523431420E-1,-2.662015200E0,-1.219502068E1
3.063337097E0,-1.003489971E0,-2.319542408E0,-1.097617626E1
3.073050066E0,-1.400997639E0,-2.161616087E0,-1.148375416E1
3.082762253E0,-1.987538338E0,-1.756929994E0,-1.189322567E1
3.092475222E0,-2.190928221E0,-1.510469317E0,-1.196261787E1
3.102189024E0,-1.956431627E0,-1.608574986E0,-1.209183025E1
3.111901993E0,-1.367498159E0,-1.946262121E0,-1.172812080E1
3.121614180E0,-9.388837814E-1,-2.295614243E0,-1.147896862E1
3.131327149E0,-9.843474030E-1,-2.599801779E0,-1.236251831E1
3.141041003E0,-9.891330600E-1,-2.963809967E0,-1.182144070E1
3.150753920E0,-1.103988528E0,-2.887239695E0,-1.171854973E1
3.160466107E0,-1.226022482E0,-2.580659151E0,-1.179512024E1
3.170179076E0,-1.326820135E0,-2.240579367E0,-1.177836990E1
3.179892930E0,-1.405783296E0,-1.946262121E0,-1.146700478E1
3.189605847E0,-1.432104349E0,-1.967797518E0,-1.106979561E1
3.199318034E0,-1.345962763E0,-2.041975021E0,-1.119422245E1
3.209031055E0,-1.103988528E0,-2.135295153E0,-1.116311550E1
3.218744857E0,-1.264606714E0,-2.144866467E0,-1.077278709E1
3.228457774E0,-1.429711580E0,-2.173580170E0,-1.023410225E1
3.238169961E0,-1.771885157E0,-2.245364904E0,-1.042792130E1
3.247882982E0,-2.100000858E0,-2.441875458E0,-1.087328529E1
3.257596784E0,-2.353640079E0,-2.721835852E0,-1.079192924E1
3.267309701E0,-2.401795626E0,-2.982952595E0,-1.048564816E1
3.277021941E0,-2.279462576E0,-3.262912750E0,-1.002831936E1
3.286734909E0,-2.006680965E0,-3.550350666E0,-9.894022942E0
3.296448711E0,-1.654636860E0,-3.406482220E0,-1.029631615E1
3.306161680E0,-1.604387641E0,-3.478565931E0,-1.069143105E1
3.315873868E0,-1.206879973E0,-3.660420418E0,-1.072253704E1
3.325586836E0,-1.080060363E0,-3.799204111E0,-1.006660461E1
3.335300691E0,-7.331010103E-1,-3.971487284E0,-9.472886086E0
3.345013607E0,-4.265206456E-1,-3.952344894E0,-9.384351730E0
3.354725795E0,-3.379862010E-2,-4.089034557E0,-9.652347565E0
3.364438764E0,-2.662015259E-1,-4.091427803E0,-9.771988869E0
3.374152618E0,-9.843474030E-1,-4.249353886E0,-9.314660072E0
3.383865534E0,-1.731207132E0,-4.728217602E0,-8.860024452E0
3.393577722E0,-2.088036776E0,-5.168796062E0,-8.720941544E0
3.403290691E0,-1.802991867E0,-5.750551224E0,-8.620442390E0
3.413004545E0,-1.472782373E0,-6.097510338E0,-8.895915985E0
3.422717461E0,-1.022632599E0,-6.487839699E0,-9.453742981E0
3.432429649E0,-9.412766099E-1,-6.662515640E0,-9.278767586E0
3.442142670E0,-9.723833203E-1,-6.810870647E0,-7.835297585E0
3.451856472E0,-1.125523925E0,-7.040880680E0,-6.655037880E0
3.461569441E0,-1.089631557E0,-7.581957817E0,-5.891129494E0
3.471281628E0,-8.670991063E-1,-7.943572998E0,-6.001498222E0
3.480994597E0,-8.623134494E-1,-8.233104706E0,-6.221638203E0
3.490708451E0,-5.629115105E-1,-8.218747139E0,-6.291029930E0
3.500421368E0,-4.432703853E-1,-7.981858253E0,-6.188138485E0
3.510133555E0,-4.408775866E-1,-7.658527851E0,-6.037390709E0
3.519846524E0,-9.197412133E-1,-7.148557663E0,-6.070889950E0
3.529560378E0,-1.250249863E0,-6.655336857E0,-5.860022545E0
3.539273295E0,-1.434497118E0,-6.526124477E0,-5.058127880E0
3.548985482E0,-1.487139225E0,-6.411269188E0,-4.691727161E0
3.558698503E0,-1.170987606E0,-6.420840263E0,-4.363910198E0
3.568412305E0,-7.187440991E-1,-6.626623154E0,-4.014258862E0
3.578125274E0,-4.743770957E-1,-6.918846607E0,-3.791726589E0
3.587837461E0,-4.073780477E-1,-7.258627415E0,-3.504288673E0
3.597550430E0,-4.360919297E-1,-7.529315472E0,-3.564109325E0
3.607264284E0,-7.809575200E-1,-7.759026527E0,-4.009473324E0
3.616977201E0,-8.766704202E-1,-7.818847179E0,-4.011866093E0
3.626689389E0,-6.442674994E-1,-7.541279793E0,-3.832404613E0
3.636402409E0,-1.051346421E0,-7.981858253E0,-3.573680639E0
3.646116211E0,-1.456032634E0,-8.302495956E0,-3.085245609E0
3.655829128E0,-1.743171334E0,-8.506185532E0,-2.874677420E0
3.665541368E0,-1.906182289E0,-8.587541580E0,-2.831606388E0
3.675254336E0,-1.396211982E0,-8.481958389E0,-3.243471146E0
3.684968191E0,-7.139584422E-1,-8.414958954E0,-2.944069147E0
3.694681107E0,-3.882354796E-1,-8.352746010E0,-2.831606388E0
3.704393295E0,-7.929216027E-1,-8.046463966E0,-3.094816923E0
3.714106264E0,-1.537388563E0,-7.397710323E0,-3.166601658E0
3.723820118E0,-2.100000858E0,-7.203592777E0,-3.281756163E0
3.733533034E0,-2.102393866E0,-7.658527851E0,-3.279363394E0
3.743245274E0,-1.697707653E0,-8.621041298E0,-3.140280724E0
3.752958243E0,-1.190130115E0,-9.217152596E0,-2.568096876E0
3.762672097E0,-5.892325640E-1,-9.530612946E0,-1.948056698E0
3.772385014E0,-6.275177598E-1,-9.303294182E0,-2.213959217E0
3.782097201E0,-1.163809061E0,-8.795717239E0,-2.556132793E0
3.791810222E0,-1.628315806E0,-8.307282448E0,-2.216351986E0
3.801524024E0,-2.277069807E0,-7.802097321E0,-1.653739572E0
3.811236941E0,-3.036192894E0,-7.356733322E0,-1.534098387E0
3.820949180E0,-3.380759239E0,-7.220342159E0,-1.462014675E0
3.830662149E0,-3.172583818E0,-7.280162811E0,-1.292124271E0
3.840376003E0,-3.045764208E0,-7.390532017E0,-1.639382601E0
3.850088920E0,-2.990729094E0,-7.579565048E0,-1.668096542E0
3.859801107E0,-2.839682341E0,-7.804490089E0,-9.065806866E-1
3.869514128E0,-2.320140600E0,-7.960322857E0,-5.237290859E-1
3.879227930E0,-1.805384636E0,-8.479565620E0,-1.142572835E-1
3.888940899E0,-1.336391449E0,-9.190832138E0,5.344967842E-1
3.898653086E0,-7.163512707E-1,-9.889835358E0,1.238285661E0
3.908366055E0,-1.704886109E-1,-1.063669491E1,1.552044630E0
3.918079909E0,1.073779166E-1,-1.119212914E1,1.315155149E0
3.927792826E0,1.145563871E-1,-1.141017437E1,7.426723242E-1
3.937505066E0,-2.183450572E-2,-1.135035419E1,3.023929596E-1
3.947218034E0,-4.743770957E-1,-1.113470078E1,6.759724021E-2
3.956931889E0,-9.699904919E-1,-1.090499020E1,1.178465188E-1
3.966644805E0,-1.317248821E0,-1.061755180E1,2.832503915E-1
3.976356993E0,-1.661815286E0,-1.023709393E1,5.799604058E-1
3.986070014E0,-1.980359793E0,-9.794121742E0,7.426723242E-1
3.995783868E0,-2.186142683E0,-9.456435204E0,9.487541914E-1
4.005496784E0,-2.327319145E0,-9.260223389E0,1.281356573E0
4.015208972E0,-2.346461773E0,-9.303294182E0,1.219143152E0
4.024921993E0,-2.358425856E0,-9.422935486E0,9.080761671E-1
4.034635795E0,-2.312962294E0,-9.410971642E0,3.502494097E-1
4.044348764E0,-2.023430586E0,-9.573683739E0,8.195417374E-2
4.054060951E0,-1.513460279E0,-9.727123260E0,1.058823988E-1
4.063773920E0,-1.051346421E0,-9.832406998E0,2.186441720E-1
4.073487774E0,-9.101698995E-1,-9.928120613E0,2.521436810E-1
4.083200743E0,-8.742775917E-1,-9.975976944E0,1.561316848E-1
4.092912930E0,-9.412766099E-1,-9.935298920E0,7.716853172E-2
4.102625899E0,-1.070489049E0,-9.868299484E0,1.633101404E-1
4.112339753E0,-1.233201027E0,-9.846764565E0,2.904288471E-1
4.122052670E0,-1.336391449E0,-9.856335640E0,4.603192508E-1
4.131764909E0,-1.295713425E0,-9.940084457E0,3.215355575E-1
4.141477878E0,-1.295713425E0,-1.002622604E1,8.195417374E-2
4.151191732E0,-1.322034478E0,-1.002861881E1,-2.123630047E-1
4.160904649E0,-1.322034478E0,-1.000229740E1,-4.591228366E-1
4.170616889E0,-1.218844056E0,-1.000708294E1,-7.414759398E-1
4.180329857E0,-9.628120065E-1,-1.003579712E1,-9.017950296E-1
4.190043711E0,-6.777670383E-1,-1.002622604E1,-7.725825906E-1
4.199756628E0,-5.868397355E-1,-9.992726326E0,-4.064807594E-1
4.209468868E0,-5.796613097E-1,-9.985548019E0,6.999006122E-2
4.219181836E0,-5.748756528E-1,-1.004776096E1,7.549355626E-1
4.228895691E0,-6.418746710E-1,-1.005015373E1,1.774577141E0
4.238608607E0,-8.455637097E-1,-1.006929684E1,2.418545485E0
4.248320795E0,-1.132702470E0,-9.971191406E0,2.277369022E0
4.258033816E0,-1.709671736E0,-9.808479309E0,1.717149377E0
4.267747670E0,-2.178964138E0,-9.822835922E0,6.804589629E-1
4.277460586E0,-2.394617319E0,-9.652945518E0,-8.611170650E-1
4.287172774E0,-2.298605204E0,-9.367900848E0,-2.120639086E0
4.296885795E0,-1.740778446E0,-9.363115311E0,-2.967997313E0
4.306599649E0,-1.156630635E0,-9.449256897E0,-2.824428082E0
4.316312566E0,-8.862416744E-1,-9.253045082E0,-1.723131418E0
4.326024753E0,-9.795617461E-1,-8.946464539E0,-1.026520967E0
4.335737774E0,-1.099202871E0,-8.436494827E0,-1.107876897E0
4.345451628E0,-1.539781332E0,-7.687242031E0,-1.943271041E0
4.355164545E0,-2.367997169E0,-6.952346325E0,-2.979961395E0
4.364876732E0,-2.846860647E0,-6.717550278E0,-3.343969584E0
4.374589753E0,-3.014657497E0,-6.705586433E0,-2.793321371E0
4.384303555E0,-2.861217737E0,-6.796513557E0,-2.163709879E0
4.394016524E0,-2.176571369E0,-6.971488953E0,-1.969592094E0
4.403728711E0,-1.815255046E0,-6.878168583E0,-2.290529490E0
4.413441732E0,-1.980359793E0,-6.837490559E0,-2.936890602E0
4.423155534E0,-2.531008244E0,-6.583552361E0,-3.707678795E0
4.432868503E0,-2.954836845E0,-6.523731709E0,-4.603192329E0
4.442580691E0,-2.858824968E0,-6.784549713E0,-4.617549419E0
4.452293711E0,-2.162214279E0,-7.598707199E0,-3.573680639E0
4.462007566E0,-2.174178362E0,-8.103892326E0,-2.168495417E0
4.471720482E0,-2.030609131E0,-8.197212219E0,-8.012964725E-1
4.481432670E0,-1.747956991E0,-7.977072716E0,-9.185447693E-1
4.491145691E0,-1.182951689E0,-7.775776386E0,-2.618346214E0
4.500859545E0,-6.155536175E-1,-7.960322857E0,-3.827618837E0
4.510572461E0,8.105687052E-2,-8.599505424E0,-3.710071564E0
4.520284649E0,7.633104324E-1,-9.497113228E0,-3.332005501E0
4.529997670E0,1.289133132E-1,-9.645767212E0,-4.066901207E0
4.539711524E0,-8.910273314E-1,-9.233902931E0,-5.527420521E0
4.549424441E0,-1.451246977E0,-8.719146729E0,-6.262315750E0
4.559136628E0,-1.700100541E0,-8.561220169E0,-5.409873009E0
4.568849649E0,-1.673779488E0,-8.700003624E0,-4.143471718E0
4.578563503E0,-1.360319614E0,-8.398209572E0,-4.316053867E0
4.588276420E0,-1.353141189E0,-7.864310741E0,-5.685346603E0
4.597988607E0,-1.417747378E0,-7.469494820E0,-6.247959137E0
4.607701628E0,-1.266999602E0,-7.167700291E0,-5.647061348E0
4.617415482E0,-1.084846020E0,-7.110272408E0,-5.589633465E0
4.627128399E0,-6.179464459E-1,-7.081558704E0,-6.334100723E0
4.636840639E0,-3.260220885E-1,-6.937989235E0,-5.946164131E0
4.646553607E0,-2.255235314E-1,-6.933203697E0,-5.139483929E0
4.656267461E0,3.798605874E-2,-6.868597507E0,-5.541777134E0
4.665980378E0,5.335994363E-1,-6.597909451E0,-5.888736725E0
4.675692618E0,8.327022791E-1,-6.277271271E0,-5.489135265E0
4.685405586E0,5.407779217E-1,-5.693123341E0,-6.326921940E0
4.695119441E0,-9.388837814E-1,-4.931607246E0,-7.622037411E0
4.704832357E0,-2.672184706E0,-4.392923355E0,-8.486444473E0
4.714544597E0,-3.610769272E0,-4.038785458E0,-8.809774399E0
4.724257566E0,-3.907479286E0,-3.686741590E0,-9.597312927E0
4.733971420E0,-3.732803345E0,-3.332304716E0,-9.757631302E0
4.743684389E0,-2.861217737E0,-3.562314749E0,-9.159127235E0
4.753396576E0,-1.922932148E0,-4.249353886E0,-9.480064392E0
4.763109545E0,-1.432104349E0,-5.197509766E0,-1.053350449E1
4.772823399E0,-5.820540786E-1,-6.145366669E0,-1.071775150E1
4.782536368E0,1.600200087E-1,-6.803691864E0,-8.807381630E0
4.792248555E0,7.537391186E-1,-7.526922703E0,-7.966903210E0
4.801961576E0,9.260223508E-1,-7.459923744E0,-8.436195374E0
4.811675378E0,6.795616150E-1,-6.099903107E0,-9.209376335E0
4.821388347E0,2.748754919E-1,-4.917250633E0,-9.652347565E0
4.831100534E0,-2.015953064E-1,-3.691527128E0,-9.769596100E0
4.840813555E0,-5.078766346E-1,-3.002095222E0,-1.023888779E1
4.850527357E0,-1.060917735E0,-2.197508574E0,-1.039202881E1
4.860240326E0,-1.290927768E0,-1.929512382E0,-1.051436138E1
4.869952514E0,-1.735992789E0,-2.209472656E0,-9.966106415E0
4.879665534E0,-1.250249863E0,-2.319542408E0,-1.039681435E1
4.889379336E0,-1.350748420E0,-3.193521023E0,-1.029870892E1
4.899092305E0,-8.096713424E-1,-4.146462440E0,-1.032502937E1
4.908804493E0,-8.455637097E-1,-3.344268799E0,-1.025085258E1
4.918517514E0,-3.978067636E-1,-3.792025566E0,-9.144769669E0
4.928231316E0,-1.336391449E0,-3.624528170E0,-1.012403297E1
4.937944284E0,-2.471187592E0,-3.262912750E0,-9.987641335E0
4.947656472E0,-3.658625841E0,-2.037189484E0,-1.046859932E1
4.957369493E0,-3.976871252E0,-1.457827210E0,-1.161087322E1
4.967083347E0,-3.964907169E0,-1.165603757E0,-1.011924744E1
4.976796264E0,-3.299403429E0,-1.038784146E0,-9.982855797E0
4.986508503E0,-2.442473650E0,-5.670989752E-1,-1.035852909E1
4.996221472E0,-1.412961721E0,-1.139282703E0,-1.118465137E1
5.005935326E0,-1.269392371E0,-1.594218135E0,-1.049761200E1
5.015648243E0,-1.132702470E0,-1.936690807E0,-1.144546890E1
5.025360482E0,-1.343569875E0,-2.053939104E0,-1.138325596E1
5.035073451E0,-1.242772222E0,-2.458625317E0,-1.147657585E1
5.044787305E0,-2.171785593E0,-1.876870275E0,-1.147896862E1
5.054500222E0,-3.275475025E0,-1.508076429E0,-1.160130119E1
5.064212461E0,-4.072883129E0,-1.187139153E0,-1.162283707E1
5.073925430E0,-4.156631947E0,-9.143573642E-1,-1.139282703E1
5.083639284E0,-3.301796198E0,-7.803592682E-1,-1.173769283E1
5.093352253E0,-2.437688112E0,-9.119645357E-1,-1.165394402E1
5.103064441E0,-2.083251238E0,-1.100997567E0,-1.182861996E1
5.112777461E0,-1.630708575E0,-1.431506157E0,-1.202722359E1
5.122491264E0,-1.343569875E0,-1.673181176E0,-1.195065403E1
5.132204232E0,-1.503889084E0,-1.773978829E0,-1.164437199E1
5.141916420E0,-1.918146491E0,-1.663609982E0,-1.175204945E1
5.151629441E0,-1.750349760E0,-1.539183140E0,-1.175683498E1
5.161343243E0,-1.111167073E0,-1.460219979E0,-1.189561844E1
5.171056211E0,-6.011967063E-1,-1.448255897E0,-1.198654556E1
5.180768399E0,-6.442674994E-1,-1.553540111E0,-1.172333527E1
5.190481420E0,-5.437689424E-1,-1.776371717E0,-1.193868923E1
5.200195274E0,-2.973082066E-1,-2.041975021E0,-1.167069340E1
5.209908191E0,-4.671986103E-1,-2.032403708E0,-1.172333527E1
5.219620430E0,-7.498508096E-1,-2.001296997E0,-1.120379353E1
5.229333399E0,-1.396211982E0,-1.989332914E0,-1.088524914E1
5.239047253E0,-1.745564103E0,-2.073081732E0,-1.048086262E1
5.248760170E0,-1.599601984E0,-2.132902384E0,-1.020538902E1
5.258472409E0,-1.503889084E0,-2.120938063E0,-9.750452995E0
5.268185378E0,-1.968395710E0,-1.884048700E0,-1.052154064E1
5.277899232E0,-2.334497690E0,-2.077867270E0,-1.066989517E1
5.287612149E0,-2.753540754E0,-2.664407969E0,-9.755238533E0
5.297324389E0,-2.614757061E0,-3.392125130E0,-9.822237968E0
5.307037357E0,-2.571686029E0,-3.796811342E0,-9.870094299E0
5.316751211E0,-2.904288530E0,-3.935595036E0,-9.693025589E0
5.326464180E0,-3.107977629E0,-4.060320854E0,-9.930213928E0
5.336176368E0,-2.909074068E0,-4.388137817E0,-1.033699417E1
5.345889336E0,-2.834896564E0,-4.701896667E0,-1.040159988E1
5.355603191E0,-2.619542599E0,-4.835894585E0,-1.055743217E1
5.365316159E0,-2.224427700E0,-4.981856823E0,-1.065075302E1
5.375028347E0,-1.795813441E0,-5.048855782E0,-1.033460140E1
5.384741368E0,-1.817647934E0,-5.204688549E0,-9.352945328E0
5.394455170E0,-2.164607286E0,-5.333900928E0,-9.331410408E0
5.404168139E0,-2.195713997E0,-5.338686466E0,-9.108877182E0
5.413880326E0,-2.080858469E0,-5.305186749E0,-8.134400368E0
5.423593347E0,-2.289033890E0,-5.175974369E0,-7.080960274E0
5.433307149E0,-2.607578516E0,-5.338686466E0,-7.263113976E0
5.443020118E0,-2.473580360E0,-5.774479389E0,-7.593323708E0
5.452732305E0,-2.289033890E0,-6.425626278E0,-7.172186852E0
5.462445326E0,-1.903789520E0,-7.217949390E0,-6.312565327E0
5.472159180E0,-1.293320656E0,-8.053643227E0,-5.644668579E0
5.481872097E0,-1.647458434E0,-8.216354370E0,-5.824130535E0
5.491584336E0,-2.305783749E0,-8.001000404E0,-6.042176247E0
5.501297305E0,-2.382653236E0,-7.799704552E0,-6.176174164E0
5.511011159E0,-2.279462576E0,-7.412067413E0,-6.011069775E0
5.520724076E0,-1.697707653E0,-6.981060028E0,-5.790630817E0
5.530436316E0,-1.053739309E0,-7.062416077E0,-5.699703693E0
5.540149284E0,-1.199701428E0,-7.376174927E0,-5.082056046E0
5.549863139E0,-1.348355532E0,-7.550850868E0,-4.428516388E0
5.559576107E0,-1.223629713E0,-7.754240990E0,-4.196113586E0
5.569288295E0,-9.628120065E-1,-7.857132435E0,-3.966402531E0
5.579001264E0,-7.067800164E-1,-7.617849827E0,-3.439682484E0
5.588715118E0,-1.680957973E-1,-7.131807804E0,-2.994318485E0
5.598428086E0,-3.858426586E-2,-6.593123913E0,-3.609572887E0
5.608140274E0,-1.451246977E0,-5.767300606E0,-4.275076866E0
5.617853243E0,-2.559721947E0,-5.501398563E0,-4.658227444E0
5.627567097E0,-3.012264490E0,-5.800800323E0,-4.052544117E0
5.637280066E0,-3.002693415E0,-6.372983932E0,-2.807678223E0
5.646992253E0,-2.322533369E0,-7.383353233E0,-1.485942841E0
5.656705274E0,-1.139880896E0,-8.618648529E0,-5.380859971E-1
5.666419076E0,2.581257522E-1,-9.262616158E0,-4.782654345E-1
5.676132045E0,1.203888893E0,-9.763015747E0,-1.050449133E0
5.685844232E0,1.835893154E0,-9.662516594E0,-1.971984982E0
5.695557253E0,2.027318954E0,-9.265008926E0,-2.910569668E0
5.705271055E0,1.273280740E0,-8.683254242E0,-3.813261986E0
5.714984024E0,3.320041299E-2,-8.091927528E0,-4.418945312E0
5.724696211E0,-1.396211982E0,-7.440781116E0,-4.126721859E0
5.734409232E0,-2.598007202E0,-6.952346325E0,-3.051746130E0
5.744123034E0,-2.930908680E0,-6.746264458E0,-2.084746838E0
5.753836003E0,-2.866003275E0,-6.760621071E0,-2.007877350E0
5.763548191E0,-2.904288530E0,-6.954739094E0,-2.465205431E0
5.773261211E0,-3.076870918E0,-7.220342159E0,-2.872284412E0
5.782975066E0,-3.538984776E0,-7.265805721E0,-3.140280724E0
5.792687982E0,-3.974478483E0,-7.395317554E0,-3.078067303E0
5.802400170E0,-4.027120590E0,-7.505387306E0,-2.946461916E0
5.812113191E0,-4.007977962E0,-7.589136124E0,-2.154138565E0
5.821827045E0,-3.976871252E0,-7.565207958E0,-1.146162033E0
5.831539961E0,-4.022335052E0,-7.876275063E0,-4.591228366E-1
5.841252149E0,-3.991228104E0,-8.477172852E0,-1.621137410E-1
5.850965170E0,-3.732803345E0,-9.233902931E0,8.913264424E-2
5.860679024E0,-3.093620539E0,-1.004536819E1,9.152546525E-2
5.870391941E0,-1.764706731E0,-1.092173958E1,-3.768695518E-2
5.880104180E0,-2.350948304E-1,-1.162074280E1,-1.615155302E-2
5.889817149E0,6.747759581E-1,-1.198475170E1,3.646063507E-1
5.899531003E0,1.105783105E0,-1.203260803E1,8.315058947E-1
5.909243920E0,9.858429432E-1,-1.180977631E1,1.164108157E0
5.918956159E0,2.676970363E-1,-1.133599758E1,1.441974759E0
5.928669128E0,-8.312067389E-1,-1.080927753E1,1.619043589E0
5.938382982E0,-1.805384636E0,-1.039501953E1,1.865504384E0
5.948095899E0,-2.464009047E0,-1.007168961E1,1.800898194E0
5.957808139E0,-2.705684185E0,-9.755837440E0,1.568794370E0
5.967521107E0,-2.621935368E0,-9.384650230E0,1.295713425E0
5.977234961E0,-2.375474691E0,-8.898608208E0,1.142572761E0
5.986947878E0,-1.774278045E0,-9.008678436E0,6.445665956E-1
5.996660118E0,-1.331605792E0,-9.427721024E0,1.899302900E-1
6.006373086E0,-9.939187169E-1,-9.430113792E0,5.383851007E-3
6.016086941E0,-1.001097202E0,-9.255437851E0,-9.511470050E-2
6.025799857E0,-1.451246977E0,-9.027820587E0,9.870393574E-2
6.035512097E0,-2.028216362E0,-9.020642281E0,2.617149651E-1
6.045225066E0,-2.363211393E0,-9.150154114E0,8.673982322E-2
6.054938920E0,-2.499901533E0,-9.351150513E0,7.477571070E-2
6.064651836E0,-2.533401012E0,-9.578469276E0,7.477571070E-2
6.074364076E0,-2.562114954E0,-9.801301003E0,4.606183618E-2
6.084077045E0,-2.495115757E0,-9.983155251E0,3.143570721E-1
6.093790899E0,-2.339283228E0,-1.018205833E1,5.464608669E-1
6.103503816E0,-2.123929262E0,-1.028973579E1,6.397809386E-1
6.113216055E0,-2.035394669E0,-1.026580715E1,4.651049078E-1
6.122929024E0,-1.827219248E0,-1.014826012E1,3.574278951E-1
6.132642878E0,-1.563709617E0,-1.003101158E1,2.234298140E-1
6.142355795E0,-1.405783296E0,-9.980762482E0,2.114657015E-1
6.152068034E0,-1.405783296E0,-9.956833839E0,3.287140131E-1
6.161781003E0,-1.400997639E0,-9.911370277E0,4.962115884E-1
6.171494857E0,-1.288534999E0,-9.935298920E0,4.938187599E-1
6.181207774E0,-1.357926846E0,-9.906584740E0,6.924230456E-1
6.190920014E0,-1.444068432E0,-9.928120613E0,1.015753269E0
6.200632982E0,-1.463211060E0,-9.813264847E0,4.507479668E-1
6.210346836E0,-1.460818172E0,-9.626625061E0,-4.328017831E-1
6.220059753E0,-1.393819213E0,-9.578469276E0,-1.052842021E0
6.229771993E0,-1.264606714E0,-9.629017830E0,-1.565205097E0
6.239484961E0,-1.125523925E0,-9.468399048E0,-1.919342875E0
6.249198816E0,-8.766704202E-1,-9.298508644E0,-1.866700768E0
6.258911784E0,-7.331010103E-1,-9.286544800E0,-1.646561027E0
6.268623972E0,-8.599206209E-1,-9.202795982E0,-1.208375454E0
6.278336941E0,-1.233201027E0,-9.109476089E0,-8.922237158E-1
6.288050795E0,-1.752742529E0,-8.917751312E0,-1.021735311E0
6.297763764E0,-2.348854542E0,-8.855537415E0,-1.481157184E0
6.307475951E0,-2.339283228E0,-8.910572052E0,-2.036591291E0
6.317188972E0,-2.308176517E0,-8.910572052E0,-2.233101845E0
6.326902774E0,-1.817647934E0,-8.857930183E0,-2.539382935E0
6.336615743E0,-1.115952611E0,-8.838788033E0,-2.822035313E0
6.346327930E0,-4.360919297E-1,-8.642576218E0,-2.462812662E0
6.356040951E0,2.246262282E-1,-8.381459236E0,-2.015055656E0
6.365754753E0,4.666004181E-1,-7.916952610E0,-1.828415632E0
6.375467722E0,4.474578202E-1,-7.342376232E0,-1.485942841E0
6.385179909E0,1.983051747E-1,-6.873383045E0,-1.680060625E0
6.394892930E0,-4.719842672E-1,-6.368198395E0,-1.902593136E0
6.404606732E0,-1.795813441E0,-6.176473618E0,-1.229910851E0
6.414319701E0,-3.098406315E0,-6.337091446E0,-9.329017401E-1
6.424031889E0,-4.068097591E0,-6.396912098E0,-1.802094579E0
6.433744909E0,-4.412663937E0,-6.305984974E0,-3.765405416E0
6.443458764E0,-4.594518661E0,-6.224329948E0,-4.603192329E0
6.453171680E0,-4.654638290E0,-6.719943523E0,-3.647858143E0
6.462883920E0,-4.288237095E0,-7.457530975E0,-2.702394009E0
6.472596889E0,-3.210868835E0,-7.861917973E0,-2.355135679E0
6.482310743E0,-1.585245013E0,-8.479565620E0,-2.534597397E0
6.492023659E0,3.873381615E-1,-9.236295700E0,-2.307279348E0
6.501735899E0,1.014855862E0,-9.554540634E0,-2.431705952E0
6.511448868E0,1.600200087E-1,-9.377471924E0,-4.308875561E0
6.521162722E0,-9.317052960E-1,-8.922536850E0,-6.291029930E0
6.530875691E0,-1.908575177E0,-8.625826836E0,-6.600003242E0
6.540587878E0,-2.846860647E0,-8.556434631E0,-5.874379635E0
6.550300899E0,-3.701696634E0,-8.292924881E0,-4.440480709E0
6.560014701E0,-4.331307888E0,-7.699205875E0,-4.057330132E0
6.569727670E0,-3.584448338E0,-7.328019142E0,-4.557728767E0
6.579439857E0,-2.367997169E0,-7.407281399E0,-5.022235394E0
6.589152878E0,-7.522436380E-1,-8.094321251E0,-5.290231705E0
6.598866732E0,1.649253011E0,-9.003892899E0,-5.213661671E0
6.608579649E0,3.774976730E0,-9.703194618E0,-5.139483929E0
6.618291889E0,5.039284706E0,-9.892228127E0,-6.283851147E0
6.628004857E0,5.345565796E0,-9.676874161E0,-7.466504097E0
6.637718711E0,3.827918053E0,-8.908179283E0,-6.772286415E0
6.647431628E0,1.364207983E0,-7.802097321E0,-5.989534378E0
6.657143868E0,-1.336391449E0,-6.897311211E0,-6.166603088E0
6.666856836E0,-4.027120590E0,-5.446363449E0,-6.717251301E0
6.676570691E0,-5.286642551E0,-3.995415688E0,-7.468896866E0
6.686283659E0,-5.787041664E0,-3.116950512E0,-7.602894783E0
6.695995847E0,-5.607280731E0,-2.879761934E0,-7.706085205E0
6.705708868E0,-4.316951275E0,-3.296412230E0,-8.184649467E0
6.715422722E0,-2.882753134E0,-3.782454491E0,-9.046664238E0
6.725135639E0,-2.001895189E0,-4.692325115E0,-9.544670105E0
6.734847878E0,-1.487139225E0,-5.300401211E0,-1.016710377E1
6.744560847E0,-1.075274706E0,-5.644967556E0,-9.547062874E0
6.754274701E0,-1.298106313E0,-5.700301647E0,-8.771190643E0
6.763987670E0,-1.771885157E0,-5.666502953E0,-8.824131966E0
6.773699857E0,-2.248355865E0,-5.563611984E0,-8.345268250E0
6.783412878E0,-2.983550787E0,-5.563611984E0,-9.087342262E0
6.793126680E0,-2.444866419E0,-6.372983932E0,-9.379565239E0
6.802839649E0,-5.916253924E-1,-6.578766823E0,-9.151947975E0
6.812551889E0,1.093819022E0,-6.253343105E0,-8.417053223E0
6.822264857E0,1.890928149E0,-5.166403294E0,-8.539086342E0
6.831978711E0,1.567897081E0,-3.586242914E0,-1.024845982E1
6.841691628E0,2.748754919E-1,-2.738585472E0,-9.362815857E0
6.851403868E0,-5.102694035E-1,-2.657229662E0,-9.587740898E0
6.861116889E0,-1.910967946E0,-2.532802820E0,-9.003593445E0
6.870830691E0,-3.100799084E0,-2.784049034E0,-9.803094864E0
6.880543659E0,-3.186940670E0,-2.446661234E0,-1.069143105E1
6.890255847E0,-1.872682810E0,-2.367697954E0,-8.917451859E0
6.899968868E0,-4.289134443E-1,-1.951047778E0,-1.062203884E1
6.909682722E0,6.125625968E-1,-1.733001828E0,-1.061964607E1
6.919395639E0,8.183453679E-1,-1.532004714E0,-1.024367332E1
6.929107878E0,4.040879309E-1,-1.826620936E0,-1.115115166E1
6.938820899E0,1.405783277E-2,-2.192722797E0,-1.106501007E1
6.948534701E0,2.246262282E-1,-2.712264538E0,-1.105065346E1
6.958247670E0,-4.265206456E-1,-2.966202736E0,-1.081346416E1
6.967959857E0,-1.345962763E0,-2.772084951E0,-1.048804092E1
6.977672878E0,-1.398604870E0,-3.138485909E0,-1.128275681E1
6.987386732E0,-1.944467545E0,-2.321935177E0,-1.121097183E1
6.997099649E0,-1.458425403E0,-2.544766903E0,-1.121336555E1
7.006811889E0,-1.997109652E0,-2.099402666E0,-1.173051357E1
7.016524909E0,-2.121536493E0,-1.254437327E0,-1.220219898E1
7.026238711E0,-1.812862277E0,-1.493719578E0,-1.132343483E1
7.035951680E0,-1.999502420E0,-1.737787485E0,-1.089482021E1
7.045663868E0,-3.174976587E0,-1.117747307E0,-1.128514957E1
7.055376889E0,-2.708076954E0,-1.857727647E0,-1.139761257E1
7.065090743E0,-2.693720102E0,-2.295614243E0,-1.126840019E1
7.074803659E0,-2.542972326E0,-2.465803623E0,-1.171854973E1
7.084515899E0,-2.305783749E0,-2.551945448E0,-1.165872955E1
7.094228920E0,-2.456830740E0,-2.132902384E0,-1.190279675E1
7.103942774E0,-2.588435888E0,-1.764407635E0,-1.197697449E1
7.113655691E0,-2.265105724E0,-1.701895118E0,-1.154596710E1
7.123367930E0,-1.613958836E0,-1.560718536E0,-1.169940758E1
7.133080899E0,-1.103988528E0,-1.666002750E0,-1.156511021E1
7.142794753E0,-8.072785139E-1,-1.927119493E0,-1.155553913E1
7.152507722E0,-9.101698995E-1,-2.092224360E0,-1.152921772E1
7.162219909E0,-1.235593796E0,-2.092224360E0,-1.129950714E1
7.171932930E0,-1.525424480E0,-2.164009094E0,-1.122054386E1
7.181646784E0,-1.872682810E0,-2.159223318E0,-1.123250771E1
7.191359701E0,-1.860718727E0,-2.070688963E0,-1.142393398E1
7.201071941E0,-1.310070395E0,-2.175973177E0,-1.142632675E1
7.210784961E0,-7.929216027E-1,-2.252543449E0,-1.133779144E1
7.220498764E0,-8.264211416E-1,-2.259721994E0,-1.106740284E1
7.230211732E0,-1.286142230E0,-2.547159672E0,-1.056700420E1
7.239923972E0,-1.680957913E0,-3.069094181E0,-1.077517986E1
7.249636941E0,-1.525424480E0,-3.818346739E0,-1.027956581E1
7.259350795E0,-1.209272742E0,-4.290031910E0,-9.978070259E0
7.269063764E0,-1.135095239E0,-4.467100620E0,-9.999606133E0
7.278775951E0,-1.343569875E0,-4.191926003E0,-1.024606609E1
7.288488972E0,-1.379462242E0,-3.667598963E0,-1.108893871E1
7.298202826E0,-1.408176184E0,-3.382553816E0,-1.031306553E1
7.307915743E0,-1.333998680E0,-3.198306561E0,-1.007617569E1
7.317627982E0,-1.290927768E0,-2.769692183E0,-1.028435135E1
7.327340951E0,-1.252642632E0,-2.640479803E0,-1.028674412E1
7.337054805E0,-9.125627279E-1,-2.664407969E0,-1.028435135E1
7.346767774E0,-7.737790346E-1,-2.733799934E0,-1.004746246E1
7.356479961E0,-1.300499082E0,-3.329911709E0,-9.297910690E0
7.366192982E0,-1.278963685E0,-4.218247414E0,-8.895915985E0
7.375906836E0,-7.354938388E-1,-4.905286312E0,-9.233304024E0
7.385619805E0,-3.164508045E-1,-5.453541756E0,-8.653942108E0
7.395331993E0,1.480558962E-1,-5.798407555E0,-8.570193291E0
7.405045014E0,4.232304990E-1,-6.224329948E0,-8.744869232E0
7.414758816E0,1.959123611E-1,-6.289235115E0,-8.129614830E0
7.424471784E0,-5.102694035E-1,-6.245865345E0,-8.062616348E0
7.434184024E0,-1.743171334E0,-6.016154289E0,-7.871190071E0
7.443896993E0,-3.153441191E0,-5.525326729E0,-7.404290676E0
7.453610847E0,-3.112763166E0,-5.221437931E0,-7.844869137E0
7.463323816E0,-2.348854542E0,-4.993820667E0,-7.770691395E0
7.473036003E0,-1.843968987E0,-5.305186749E0,-7.064210415E0
7.482749024E0,-1.673779488E0,-5.762515068E0,-6.233602047E0
7.492462878E0,-1.058524966E0,-6.209972858E0,-6.082854271E0
7.502175795E0,-4.241278172E-1,-6.538088799E0,-6.535097599E0
7.511888034E0,-2.781656384E-1,-6.736692905E0,-6.405885220E0
7.521601055E0,-1.288534999E0,-6.854240417E0,-5.898307800E0
7.531314857E0,-2.870789051E0,-6.973881721E0,-5.836094379E0
7.541027826E0,-2.950051308E0,-7.071987152E0,-4.957629204E0
7.550740014E0,-2.373081923E0,-7.644171238E0,-4.881059170E0
7.560453034E0,-1.338784218E0,-7.909774303E0,-5.127519608E0
7.570166889E0,-2.685943544E-1,-7.897810459E0,-4.619942188E0
7.579879857E0,1.695913076E-1,-7.725526810E0,-4.828117847E0
7.589592045E0,-1.233201027E0,-7.115057945E0,-4.811367989E0
7.599305066E0,-2.107179403E0,-6.528517246E0,-4.536193371E0
7.609018920E0,-1.949253201E0,-6.310770512E0,-4.524229527E0
7.618731836E0,-2.092822552E0,-6.363412857E0,-4.639084816E0
7.628444076E0,-2.016252279E0,-6.657730103E0,-4.119543076E0
7.638157045E0,-1.156630635E0,-7.292127132E0,-3.046960592E0
7.647870899E0,1.169492081E-1,-8.350353241E0,-2.326421738E0
7.657583868E0,1.014855862E0,-9.422935486E0,-2.115853310E0
7.667296055E0,1.081854939E0,-1.022991467E1,-1.821237087E0
7.677009076E0,6.604190469E-1,-1.027298546E1,-1.790130496E0
7.686722930E0,-1.944168471E-2,-1.043569756E1,-2.007877350E0
7.696435847E0,-7.211369276E-1,-1.032562828E1,-2.644966364E0
7.706148086E0,-1.362712502E0,-1.003579712E1,-2.623430967E0
7.715861107E0,-2.181356907E0,-9.691230774E0,-2.096710920E0
7.725574909E0,-3.454936743E0,-8.956035614E0,-2.924926519E0
7.735287878E0,-3.871587038E0,-8.324031830E0,-3.652643681E0
7.745000118E0,-2.962015390E0,-8.077570915E0,-3.571287870E0
7.754713086E0,-1.439282775E0,-8.178069115E0,-3.281756163E0
7.764426941E0,-3.667000830E-1,-8.108677864E0,-3.085245609E0
7.774139909E0,9.272187948E-3,-7.768597603E0,-3.348755360E0
7.783852097E0,-1.103689447E-1,-7.457530975E0,-3.284149170E0
7.793565118E0,-7.331010103E-1,-7.253841877E0,-2.486740828E0
7.803278972E0,-1.077667475E0,-7.289734364E0,-2.345564365E0
7.812991889E0,-2.162214279E0,-7.043273449E0,-2.474776745E0
7.822704128E0,-3.728017569E0,-6.317949295E0,-2.544168711E0
7.832417097E0,-4.505984306E0,-5.992226124E0,-2.388635159E0
7.842130951E0,-4.489234447E0,-6.334698677E0,-1.840379715E0
7.851843920E0,-4.103990078E0,-6.791728020E0,-1.354337573E0
7.861556107E0,-3.407080412E0,-7.541279793E0,-9.017950296E-1
7.871269128E0,-2.861217737E0,-8.455636978E0,-4.136592150E-1
7.880982982E0,-2.095215321E0,-9.286544800E0,2.138585299E-1
7.890695899E0,-1.139880896E0,-1.004297543E1,7.426723242E-1
7.900408139E0,-2.374876440E-1,-1.064865875E1,1.207179070E0
7.910121107E0,2.653042078E-1,-1.097198868E1,8.721838593E-1
7.919834961E0,1.600200087E-1,-1.097198868E1,2.712862790E-1
7.929547930E0,-6.658028960E-1,-1.077577782E1,-2.458625287E-1
7.939260118E0,-1.745564103E0,-1.058166027E1,-1.070788130E-1
7.948973139E0,-2.743969440E0,-1.036151981E1,7.187440991E-1
7.958686993E0,-2.887538671E0,-1.023948669E1,1.259821177E0
7.968399909E0,-2.571686029E0,-1.024427223E1,1.401296735E0
7.978112149E0,-2.245963097E0,-1.014108181E1,1.370190024E0
7.987825170E0,-1.709671736E0,-9.971191406E0,1.111466169E0
7.997538972E0,-1.017846942E0,-1.002861881E1,9.152546525E-1
8.007251941E0,-3.188436031E-1,-1.014108181E1,1.025324464E0
8.016964128E0,-1.633101404E-1,-9.992726326E0,9.104689956E-1
8.026677149E0,-3.738785386E-1,-9.954441071E0,6.924230456E-1
8.036391003E0,-8.001000881E-1,-9.719944954E0,1.752742529E-1
8.046103972E0,-1.546959877E0,-9.626625061E0,-4.112663865E-1
8.055816159E0,-2.171785593E0,-9.715159416E0,-6.194419861E-1
8.065529180E0,-2.487937450E0,-9.868299484E0,-4.040879309E-1
8.075242982E0,-2.542972326E0,-9.897013664E0,-7.055835724E-1
8.084955951E0,-2.351247311E0,-9.808479309E0,-1.225125194E0
8.094668139E0,-1.822433591E0,-9.782157898E0,-1.306481123E0
8.104381159E0,-1.429711580E0,-9.688838005E0,-1.083948612E0
8.114095014E0,-1.223629713E0,-9.739087105E0,-6.984050870E-1
8.123807982E0,-1.274178028E0,-9.856335640E0,-6.400800496E-2
8.133520170E0,-1.601994753E0,-9.901799202E0,4.962115884E-1
8.143233191E0,-1.800599098E0,-1.004058266E1,7.139584422E-1
8.152946993E0,-2.037787676E0,-1.016022396E1,8.362914920E-1
8.162659961E0,-2.135893345E0,-1.021555805E1,9.200403094E-1
8.172372201E0,-2.190928221E0,-1.020359421E1,7.259225845E-1
8.182085170E0,-1.903789520E0,-1.013150978E1,3.669991791E-1
8.191799024E0,-1.494317770E0,-1.006211853E1,-7.597211748E-2
8.201511941E0,-1.228415370E0,-9.897013664E0,-3.655036688E-1
8.211224180E0,-1.056132078E0,-9.652945518E0,-5.117649436E-1
8.220937201E0,-8.527421951E-1,-9.415757179E0,-6.290132403E-1
8.230651003E0,-6.059823632E-1,-9.521040916E0,-5.763711333E-1
8.240363972E0,-4.600201547E-1,-9.561718941E0,-8.315058798E-2
8.250076159E0,-3.810569942E-1,-9.535398483E0,3.191427290E-1
8.259789180E0,-6.323033571E-1,-9.920941353E0,8.338986635E-1
8.269503034E0,-1.149452209E0,-1.034477043E1,1.176072359E0
8.279215951E0,-1.317248821E0,-1.013150978E1,1.274178028E0
8.288928191E0,-1.367498159E0,-9.533005714E0,9.750752449E-1
8.298641211E0,-1.405783296E0,-9.109476089E0,2.880360186E-1
8.308355014E0,-1.331605792E0,-8.673683167E0,-4.375874400E-1
8.318067982E0,-1.245165110E0,-8.350353241E0,-1.261017561E0
8.327780170E0,-1.170987606E0,-8.434102058E0,-1.553241014E0
8.337493191E0,-1.072881818E0,-8.556434631E0,-1.493121386E0
8.347207045E0,-6.299105883E-1,-8.438887596E0,-1.715952992E0
8.356919961E0,-4.648058116E-1,-8.079963684E0,-2.249851465E0
8.366632201E0,-8.790631890E-1,-7.751848221E0,-3.092424154E0
8.376345170E0,-1.673779488E0,-7.474280834E0,-3.427718401E0
8.386059024E0,-2.483151674E0,-7.208378315E0,-3.353540897E0
8.395771993E0,-3.464508057E0,-7.000202656E0,-3.408575773E0
8.405484180E0,-4.482056141E0,-6.559624195E0,-3.049353361E0
8.415197201E0,-4.779065132E0,-6.562016964E0,-2.709572554E0
8.424911055E0,-4.077668667E0,-7.148557663E0,-2.367099762E0
8.434623972E0,-2.988336325E0,-7.692027569E0,-2.340778828E0
8.444336211E0,-1.894218206E0,-8.106285095E0,-2.371885538E0
8.454049180E0,-1.199701428E0,-8.371888161E0,-2.505883455E0
8.463763034E0,-1.115952611E0,-8.405387878E0,-2.659323215E0
8.473476003E0,-1.262213945E0,-7.914559841E0,-2.934497833E0
8.483188191E0,-1.448854089E0,-7.543672562E0,-3.616751432E0
8.492901211E0,-2.272284269E0,-7.787740231E0,-2.944069147E0
8.502615066E0,-2.959622622E0,-8.070392609E0,-3.233899832E0
8.512328034E0,-3.103191853E0,-7.962715626E0,-5.706882000E0
8.522040222E0,-3.215654612E0,-8.056035995E0,-6.259922981E0
8.531753243E0,-3.622733593E0,-7.849953651E0,-5.242375374E0
8.541467045E0,-3.546163082E0,-7.804490089E0,-4.540979385E0
8.551180014E0,-2.684148788E0,-8.168498039E0,-3.157030344E0
8.560892253E0,-1.496710539E0,-8.235497475E0,-1.692024708E0
8.570605222E0,-2.757728100E-1,-8.111070633E0,-1.555633783E0
8.580319076E0,8.823533356E-2,-7.775776386E0,-2.800499916E0
8.590032045E0,-5.772684515E-2,-7.558029652E0,-6.049354553E0
8.599744232E0,-5.868397355E-1,-7.299305439E0,-8.108079910E0
8.609457253E0,-1.269392371E0,-6.993024349E0,-7.476075172E0
8.619171107E0,-1.295713425E0,-6.914061069E0,-6.762714863E0
8.628884024E0,-2.877369225E-1,-6.870990276E0,-6.185745716E0
8.638596264E0,4.881358147E-1,-7.052844524E0,-5.809773445E0
8.648309232E0,8.901300430E-1,-7.426424026E0,-6.185745716E0
8.658023086E0,1.610967875E0,-7.833203793E0,-6.314958096E0
8.667736055E0,2.152044773E0,-8.051250458E0,-6.564110756E0
8.677448243E0,2.041675806E0,-7.739883900E0,-8.098507881E0
8.687161264E0,5.647061467E-1,-6.724729061E0,-8.895915985E0
8.696875118E0,-1.532602906E0,-5.637789249E0,-8.311768532E0
8.706588034E0,-3.170190811E0,-4.766502857E0,-8.539086342E0
8.716300274E0,-4.223630905E0,-4.110570431E0,-8.716156006E0
8.726013295E0,-4.460520744E0,-3.679563046E0,-8.287839890E0
8.735727097E0,-3.799802303E0,-3.703491211E0,-8.117650986E0
8.745440066E0,-2.600399971E0,-4.093820572E0,-7.744370461E0
8.755152305E0,-1.985145450E0,-4.342673779E0,-7.614859104E0
8.764865274E0,-1.295713425E0,-4.280460835E0,-8.402695656E0
8.774579128E0,-6.801598072E-1,-4.278067589E0,-9.762416840E0
8.784292097E0,-8.407780528E-1,-4.263710976E0,-1.043509960E1
8.794004284E0,-1.288534999E0,-4.431208611E0,-1.009531879E1
8.803717305E0,-1.841576099E0,-4.560420990E0,-9.736096382E0
8.813431159E0,-2.023430586E0,-4.780859470E0,-9.139984131E0
8.823144076E0,-1.549352646E0,-5.120640278E0,-8.563014984E0
8.832856316E0,-1.336391449E0,-5.058426857E0,-9.106484413E0
8.842569336E0,-1.735992789E0,-4.368995190E0,-9.886843681E0
8.852283139E0,-1.704886079E0,-3.674777269E0,-9.573384285E0
8.861996107E0,-8.335995674E-1,-3.425624609E0,-9.616455078E0
8.871708347E0,-1.151545867E-1,-2.961417198E0,-9.669096947E0
8.881421316E0,1.384846121E-1,-2.939881802E0,-9.721739769E0
8.891135170E0,1.645065658E-2,-2.726621389E0,-1.021256733E1
8.900848139E0,-2.566302419E-1,-2.480160713E0,-1.128036404E1
8.910560326E0,-7.163512707E-1,-2.398804665E0,-1.097856903E1
8.920273347E0,-6.514459848E-1,-2.707478762E0,-1.056939697E1
8.929987201E0,-1.170987606E0,-2.834298372E0,-1.052393341E1
8.939700170E0,-1.044167995E0,-3.140878916E0,-1.097378349E1
8.949412357E0,-1.302891970E0,-3.138485909E0,-1.054068279E1
8.959125378E0,-1.590030670E0,-2.834298372E0,-1.072492981E1
8.968839232E0,-2.329711914E0,-2.269293070E0,-1.038724327E1
8.978552149E0,-3.012264490E0,-1.627717614E0,-1.064596748E1
8.988264389E0,-3.833301783E0,-9.622138143E-1,-1.061725330E1
8.997977409E0,-3.897907972E0,-1.002891779E0,-1.062682438E1
9.007691264E0,-3.596412420E0,-1.069890857E0,-1.098574829E1
9.017404180E0,-3.230011463E0,-1.038784146E0,-1.095703411E1
9.027116420E0,-2.609971285E0,-1.345364571E0,-1.142393398E1
9.036829441E0,-2.514258385E0,-1.167996526E0,-1.085892868E1
9.046543243E0,-2.569293261E0,-1.038784146E0,-1.112961674E1
9.056256211E0,-3.160619497E0,-7.492526174E-1,-1.151007557E1
9.065968451E0,-3.091227770E0,-1.225723386E0,-1.103599739E1
9.075681420E0,-3.196511984E0,-1.524826288E0,-1.078475094E1
9.085395274E0,-3.397509098E0,-1.589432478E0,-1.111047363E1
9.095108243E0,-2.815753937E0,-1.797907114E0,-1.127557850E1
9.104820430E0,-2.324926376E0,-1.730608940E0,-1.189083290E1
9.114533451E0,-2.001895189E0,-1.553540111E0,-1.203200912E1
9.124247305E0,-1.887039781E0,-1.426720500E0,-1.178794193E1
9.133960274E0,-1.728814363E0,-1.352542996E0,-1.167547894E1
9.143672461E0,-1.889432549E0,-1.338186026E0,-1.151725388E1
9.153385482E0,-2.449652195E0,-1.357328653E0,-1.121815109E1
9.163099336E0,-2.815753937E0,-1.500898004E0,-1.107458115E1
9.172812305E0,-2.691327333E0,-1.721037745E0,-1.103360462E1
9.182524493E0,-2.552543640E0,-2.003689766E0,-1.105304623E1
9.192237514E0,-2.497508526E0,-2.262114763E0,-1.092592716E1
9.201951368E0,-2.188535452E0,-2.386840582E0,-1.066989517E1
9.211664284E0,-2.013859272E0,-2.350948334E0,-1.070339489E1
9.221376524E0,-2.047358990E0,-2.214258194E0,-1.068185902E1
9.231089545E0,-1.956431627E0,-2.350948334E0,-1.057178974E1
9.240803399E0,-1.973181367E0,-2.329412937E0,-1.112004471E1
9.250516316E0,-1.580459356E0,-2.671586514E0,-1.043270683E1
9.260228555E0,-1.355534077E0,-2.798406124E0,-1.074407291E1
9.269941576E0,-1.604387641E0,-2.630908489E0,-1.119661522E1
9.279655430E0,-1.832004786E0,-2.824727058E0,-1.016471100E1
9.289368347E0,-1.661815286E0,-3.061915636E0,-1.057178974E1
9.299080586E0,-1.295713425E0,-3.404089212E0,-1.036570740E1
9.308793607E0,-8.288139701E-1,-3.873381615E0,-1.044227791E1
9.318507461E0,-6.972087026E-1,-3.990629911E0,-1.023410225E1
9.328220378E0,-6.083751321E-1,-4.103391647E0,-1.053829002E1
9.337932618E0,-7.163512707E-1,-4.321138382E0,-1.039920712E1
9.347645639E0,-7.546364665E-1,-4.285246372E0,-1.080628586E1
9.357359441E0,-6.801598072E-1,-4.330709934E0,-1.032263660E1
9.367072409E0,-4.695914388E-1,-4.304389000E0,-1.001396275E1
9.376784649E0,-3.643072546E-1,-4.335495472E0,-9.891630173E0
9.386497618E0,-5.078766346E-1,-4.266103745E0,-9.355637550E0
9.396211472E0,-1.192523003E0,-4.065106392E0,-9.094520569E0
9.405924441E0,-1.802991867E0,-3.859024763E0,-9.015557289E0
9.415636680E0,-2.880360365E0,-3.966701746E0,-9.118449211E0
9.425349649E0,-2.822932482E0,-4.194318771E0,-8.824131966E0
9.435063503E0,-1.977967024E0,-4.651647091E0,-8.196614265E0
9.444776472E0,-1.609173179E0,-4.890929699E0,-8.141578674E0
9.454488659E0,-1.752742529E0,-5.048855782E0,-7.866404533E0
9.464201680E0,-1.855933070E0,-5.281258583E0,-7.363612652E0
9.473915534E0,-2.174178362E0,-5.422435284E0,-7.645965576E0
9.483628503E0,-2.308176517E0,-5.443970680E0,-7.775477409E0
9.493340691E0,-2.408974171E0,-5.355436325E0,-7.533503056E0
9.503053711E0,-2.224427700E0,-5.365007401E0,-7.215257645E0
9.512767566E0,-2.104786634E0,-5.652146339E0,-6.501598358E0
9.522480534E0,-2.198106766E0,-6.121438503E0,-6.436992168E0
9.532192722E0,-2.334497690E0,-6.035296917E0,-6.812964439E0
9.541905743E0,-2.849253654E0,-5.752943993E0,-6.305386543E0
9.551619597E0,-2.837289333E0,-5.731408596E0,-5.934200287E0
9.561332566E0,-2.033001900E0,-5.772086620E0,-5.874379635E0
9.571044753E0,-1.149452209E0,-6.068796635E0,-4.607978344E0
9.580757774E0,-2.159522474E-1,-6.554838657E0,-4.100400925E0
9.590471628E0,1.360917836E-1,-7.119843960E0,-4.284647942E0
9.600184597E0,6.580262184E-1,-7.613064289E0,-4.433301926E0
9.609896784E0,1.232602715E0,-8.170890808E0,-4.998307228E0
9.619609805E0,1.170389414E0,-8.443673134E0,-5.007878780E0
9.629323659E0,2.605185509E-1,-8.477172852E0,-4.304089546E0
9.639036576E0,-8.216354847E-1,-8.041678429E0,-3.647858143E0
9.648748816E0,-1.546959877E0,-7.636992455E0,-3.686143398E0
9.658461836E0,-1.853540182E0,-7.512565613E0,-4.040580273E0
9.668175691E0,-1.843968987E0,-7.591528893E0,-4.145864487E0
9.677888607E0,-1.762313843E0,-7.912167072E0,-3.367897987E0
9.687600847E0,-1.692921996E0,-8.479565620E0,-2.431705952E0
9.697313868E0,-1.707278967E0,-8.819644928E0,-2.290529490E0
9.707027722E0,-1.759921074E0,-9.078369141E0,-2.560918331E0
9.716740639E0,-1.182951689E0,-9.741479874E0,-2.527418852E0
9.726452878E0,-6.275177598E-1,-9.954441071E0,-2.771785975E0
9.736165899E0,-5.270192027E-1,-9.942477226E0,-3.109174013E0
9.745879701E0,-7.402794957E-1,-9.664909363E0,-3.241078377E0
9.755592670E0,-1.286142230E0,-9.015856743E0,-2.826820850E0
9.765304909E0,-1.568495274E0,-8.493922234E0,-2.379063845E0
9.775017878E0,-2.001895189E0,-8.139784813E0,-2.843570709E0
9.784731732E0,-1.946860313E0,-8.144570351E0,-3.168994427E0
9.794444701E0,-1.764706731E0,-8.192426682E0,-3.044567823E0
9.804156941E0,-1.812862277E0,-8.123034477E0,-2.982354403E0
9.813869909E0,-1.836790442E0,-8.233104706E0,-3.003889799E0
9.823583764E0,-1.795813441E0,-8.343173981E0,-2.376671076E0
9.833296732E0,-1.405783296E0,-8.556434631E0,-2.151745796E0
9.843008920E0,-1.324427366E0,-8.649754524E0,-2.132603168E0
9.852721941E0,-1.444068432E0,-8.527720451E0,-1.792523265E0
9.862435795E0,-1.575673699E0,-8.290532112E0,-1.493121386E0
9.872148764E0,-1.755135417E0,-8.056035995E0,-1.265803218E0
9.881860951E0,-2.023430586E0,-7.830811024E0,-1.174875975E0
9.891573972E0,-2.708076954E0,-7.548458099E0,-1.179661512E0
9.901287826E0,-3.445365429E0,-7.440781116E0,-1.421336651E0
9.911000795E0,-3.713660717E0,-7.548458099E0,-1.718345761E0
9.920712982E0,-3.735196114E0,-7.715955734E0,-1.706381679E0
9.930426003E0,-3.423830032E0,-7.837989807E0,-1.481157184E0
9.940139857E0,-2.688934565E0,-8.168498039E0,-7.486543655E-1
9.949852826E0,-1.966002941E0,-8.829216003E0,5.656034350E-1
9.959565014E0,-1.190130115E0,-9.202795982E0,1.748256087E0
9.969278034E0,-2.685943544E-1,-9.770194054E0,2.504986286E0
9.978991889E0,4.136592150E-1,-1.034237766E1,3.046063185E0
9.988704805E0,4.689932466E-1,-1.052423191E1,2.765803814E0
9.998417045E0,-9.361918271E-2,-1.032084274E1,1.532902002E0
1.000813007E1,-9.029914737E-1,-1.040219784E1,-1.615155302E-2
1.001784392E1,-1.434497118E0,-1.055773163E1,-9.906286001E-1
1.002755684E1,-1.661815286E0,-1.067737293E1,-1.739881158E0
1.003726908E1,-1.601994753E0,-1.095763206E1,-1.921735644E0
1.004698210E1,-1.456032634E0,-1.122802162E1,-1.510170221E0
1.005669590E1,-1.156630635E0,-1.149631596E1,-8.395816684E-1
1.006640887E1,-8.958129883E-1,-1.152981567E1,-4.974080026E-1
1.007612111E1,-9.029914737E-1,-1.125194931E1,-4.998008311E-1
1.008583408E1,-1.036989570E0,-1.065583706E1,-2.889333367E-1
1.009554793E1,-1.185344458E0,-1.010279655E1,-8.315058798E-2
1.010526090E1,-1.446461320E0,-9.873085022E0,5.802594870E-2
1.011497309E1,-1.704886079E0,-9.696016312E0,7.259225845E-1
1.012468611E1,-1.817647934E0,-9.684052467E0,1.030110121E0
1.013439996E1,-1.855933070E0,-9.667302132E0,6.804589629E-1
1.014411293E1,-1.774278045E0,-9.559326172E0,4.794618487E-1
1.015382512E1,-1.673779488E0,-9.401400566E0,2.832503915E-1
1.016353814E1,-1.570888042E0,-9.276973724E0,1.226321608E-1
1.017325199E1,-1.475175142E0,-9.243474007E0,5.383851007E-3
1.018296496E1,-1.386640668E0,-9.329615593E0,-1.357926875E-1
1.019267715E1,-1.539781332E0,-9.463613510E0,8.913264424E-2
1.020239017E1,-1.815255046E0,-9.640981674E0,3.550350666E-1
1.021210402E1,-2.037787676E0,-9.681659698E0,5.033900738E-1
1.022181694E1,-2.016252279E0,-9.696016312E0,4.220340848E-1
1.023152918E1,-1.987538338E0,-9.684052467E0,2.593221664E-1
1.024124220E1,-1.875075698E0,-9.664909363E0,2.186441720E-1
1.025095606E1,-1.752742529E0,-9.961619377E0,2.425723970E-1
1.026066897E1,-1.733600020E0,-9.899406433E0,4.244269133E-1
1.027038121E1,-1.625923038E0,-9.830014229E0,7.908278704E-1
1.028009418E1,-1.391426325E0,-9.932906151E0,1.066002488E0
1.028980803E1,-1.218844056E0,-1.005733299E1,1.010967612E0
1.029952100E1,-1.245165110E0,-1.017218781E1,8.697910309E-1
1.030923324E1,-1.228415370E0,-1.015543842E1,6.134598851E-1
1.031894621E1,-1.257428288E0,-1.009083176E1,1.995015889E-1
1.032866007E1,-1.302891970E0,-1.005015373E1,-2.745763958E-1
1.033837303E1,-1.398604870E0,-9.971191406E0,-4.806582630E-1
1.034808522E1,-1.525424480E0,-9.885049820E0,-3.631108403E-1
1.035779824E1,-1.511067510E0,-9.755837440E0,-2.793620527E-1
1.036751210E1,-1.293320656E0,-9.705587387E0,-3.415754437E-1
1.037722507E1,-1.144666553E0,-9.573683739E0,-9.990034252E-2
1.038693725E1,-1.008275628E0,-9.128618240E0,3.649054468E-2
1.039665027E1,-1.331605792E0,-8.711968422E0,-4.591228366E-1
1.040636413E1,-1.937289000E0,-8.355138779E0,-1.083948612E0
1.041607705E1,-2.315355062E0,-8.048856735E0,-1.720738530E0
1.042578928E1,-2.507079840E0,-8.063214302E0,-2.127817631E0
1.043550230E1,-2.696112871E0,-8.424530029E0,-1.744666815E0
1.044521616E1,-2.509472847E0,-8.905786514E0,-6.290132403E-1
1.045492908E1,-2.167000055E0,-9.518648148E0,4.316053987E-1
1.046464132E1,-1.997109652E0,-1.008365345E1,1.200000525E0
1.047435428E1,-1.281356573E0,-1.037348461E1,8.721838593E-1
1.048406814E1,-2.638086975E-1,-1.040698433E1,-1.004985452E0
1.049378111E1,1.959123611E-1,-9.868299484E0,-2.570489645E0
1.050349335E1,4.785645306E-1,-9.044570923E0,-3.042174816E0
1.051320632E1,1.166501082E-2,-8.044071198E0,-3.200400352E0
1.052292017E1,-8.862416744E-1,-7.328019142E0,-3.408575773E0
1.053263314E1,-2.147857428E0,-7.165307522E0,-2.786142826E0
1.054234533E1,-3.045764208E0,-7.071987152E0,-1.881057739E0
1.055205835E1,-3.375973701E0,-7.177271366E0,-2.146960020E0
1.056177220E1,-3.459722519E0,-7.388139248E0,-3.034996510E0
1.057148512E1,-3.122334480E0,-7.488637447E0,-3.851547241E0
1.058119736E1,-2.385046005E0,-7.531708241E0,-4.251148701E0
1.059091038E1,-1.343569875E0,-7.443173885E0,-3.489931822E0
1.060062423E1,-1.182951689E0,-7.217949390E0,-2.532204628E0
1.061033715E1,-1.786242127E0,-6.791728020E0,-1.457229018E0
1.062004939E1,-2.320140600E0,-6.585945129E0,-1.342373490E0
1.062976241E1,-2.787040234E0,-6.392126560E0,-3.078067303E0
1.063947621E1,-3.067299604E0,-6.248258114E0,-5.460421085E0
1.064918918E1,-3.191726208E0,-6.221937180E0,-6.858428001E0
1.065890137E1,-3.297010422E0,-6.602694988E0,-7.117151737E0
1.066861439E1,-2.930908680E0,-7.079165936E0,-6.887141705E0
1.067832824E1,-1.872682810E0,-7.522137165E0,-4.909772873E0
1.068804121E1,-6.466603279E-1,-8.278568268E0,-2.453241348E0
1.069775340E1,2.653042078E-1,-8.991928101E0,-1.270588875E0
1.070746642E1,9.116654396E-1,-9.487542152E0,-1.534098387E0
1.071718027E1,1.495813251E0,-9.576076508E0,-4.002295017E0
1.072689319E1,1.943570137E0,-9.652945518E0,-6.413064003E0
1.073660543E1,1.953141451E0,-9.679266930E0,-6.980462074E0
1.074631845E1,1.498206019E0,-9.535398483E0,-6.645466805E0
1.075603225E1,2.844468057E-1,-9.123832703E0,-5.999105453E0
1.076574522E1,-7.857431173E-1,-8.295317650E0,-5.994319916E0
1.077545746E1,-1.257428288E0,-7.371089935E0,-7.279863834E0
1.078517043E1,-1.386640668E0,-6.648158550E0,-7.811369419E0
1.079488428E1,-1.343569875E0,-6.231508255E0,-7.356434345E0
1.080459725E1,-1.130309582E0,-5.901299000E0,-7.557431221E0
1.081430944E1,-7.043871880E-1,-5.772086620E0,-6.923034191E0
1.082402246E1,-2.183450572E-2,-5.853442192E0,-6.310172558E0
1.083373632E1,2.413759828E-1,-5.853442192E0,-6.350850582E0
1.084344923E1,-1.345962733E-1,-5.582754135E0,-6.614359856E0
1.085316147E1,-9.604191780E-1,-5.345864773E0,-7.112366199E0
1.086287449E1,-1.810469389E0,-5.075176716E0,-7.789834023E0
1.087258830E1,-2.507079840E0,-4.859822750E0,-8.855237961E0
1.088230126E1,-3.005086184E0,-4.699503899E0,-1.012403297E1
1.089201350E1,-3.081656456E0,-4.661218643E0,-9.942177773E0
1.090172647E1,-2.904288530E0,-5.022534847E0,-9.005986214E0
1.091144033E1,-2.461616278E0,-5.381757259E0,-8.261519432E0
1.092115330E1,-1.676172256E0,-5.656931877E0,-7.665108204E0
1.093086548E1,-6.442674994E-1,-5.796014786E0,-8.029116631E0
1.094057850E1,9.595218897E-1,-5.824728489E0,-8.775976181E0
1.095029236E1,1.962712765E0,-5.566004753E0,-8.529515266E0
1.096000533E1,1.785643935E0,-4.651647091E0,-8.213363647E0
1.096971751E1,1.026820064E0,-3.830310822E0,-8.194221497E0
1.097943053E1,-1.175474152E-1,-3.028416157E0,-9.815059662E0
1.098914439E1,-1.546959877E0,-2.219043970E0,-1.123968601E1
1.099885731E1,-3.256332397E0,-1.773978829E0,-1.057657528E1
1.100856954E1,-3.936193228E0,-2.216650963E0,-9.453742981E0
1.101828251E1,-3.644268990E0,-2.776870728E0,-1.016471100E1
1.102799637E1,-2.844467878E0,-2.800798893E0,-9.673882484E0
1.103770934E1,-1.594816327E0,-2.997309446E0,-9.841380119E0
1.104742152E1,-8.096713424E-1,-3.057130098E0,-1.038724327E1
1.105713454E1,-6.275177598E-1,-2.908775091E0,-9.642776489E0
1.106684840E1,-1.420140266E0,-2.872583628E0,-9.420243263E0
1.107656132E1,-2.006680965E0,-2.635694027E0,-1.069382381E1
1.108627356E1,-1.966002941E0,-3.014059305E0,-1.162044430E1
1.109598658E1,-2.406581402E0,-2.784049034E0,-1.130429268E1
1.110570038E1,-2.947658300E0,-2.247757673E0,-1.061725330E1
1.111541335E1,-2.566900492E0,-1.532004714E0,-1.095464134E1
1.112512559E1,-1.712064624E0,-1.359721422E0,-1.108175945E1
1.113483856E1,-1.228415370E0,-1.084247708E0,-1.041117096E1
1.114455241E1,-7.570292354E-1,-1.216152072E0,-1.174247837E1
1.115426538E1,-2.997010350E-1,-1.754537225E0,-1.146221828E1
1.116397757E1,-2.063809484E-1,-2.362912416E0,-1.094746304E1
1.117369059E1,-9.412766099E-1,-2.465803623E0,-1.178794193E1
1.118340444E1,-1.515853167E0,-2.360519648E0,-1.195065403E1
1.119311736E1,-2.016252279E0,-2.097009897E0,-1.172333527E1
1.120282960E1,-2.672184706E0,-1.572682738E0,-1.145025444E1
1.121254262E1,-3.127120018E0,-1.208973646E0,-1.152203941E1
1.122225642E1,-3.421437263E0,-1.376471281E0,-1.115354443E1
1.123196939E1,-3.787838221E0,-1.527219057E0,-1.127557850E1
1.124168158E1,-3.507878065E0,-1.754537225E0,-1.161087322E1
1.125139460E1,-2.775076151E0,-1.879263043E0,-1.207747364E1
1.126110845E1,-2.464009047E0,-1.620539188E0,-1.144068336E1
1.127082137E1,-2.430509567E0,-1.261615753E0,-1.187647629E1
1.128053361E1,-2.116750717E0,-1.259222865E0,-1.185015488E1
1.129024663E1,-1.889432549E0,-1.386042476E0,-1.135214901E1
1.129996048E1,-1.901396751E0,-1.409970760E0,-1.082542896E1
1.130967340E1,-2.126322031E0,-1.328614831E0,-1.127797127E1
1.131938564E1,-2.531008244E0,-1.302293777E0,-1.145743275E1
1.132909861E1,-2.787040234E0,-1.342971683E0,-1.121575832E1
1.133881246E1,-2.662613392E0,-1.654038668E0,-1.034417248E1
1.134852543E1,-2.578864574E0,-1.730608940E0,-1.027478027E1
1.135823762E1,-2.483151674E0,-1.764407635E0,-1.100249767E1
1.136795064E1,-2.444866419E0,-2.006082773E0,-1.033699417E1
1.137766449E1,-2.272284269E0,-2.195115566E0,-1.065793133E1
1.138737741E1,-1.930110574E0,-2.439482689E0,-1.123729324E1
1.139708965E1,-1.668993831E0,-2.815155745E0,-1.065075302E1
1.140680262E1,-1.439282775E0,-2.942274570E0,-1.067707348E1
1.141651647E1,-1.537388563E0,-2.817548752E0,-1.116550827E1
1.142622944E1,-1.709671736E0,-2.901596546E0,-1.032024384E1
1.143594163E1,-1.678565025E0,-2.858226538E0,-9.475278854E0
1.144565465E1,-1.685743570E0,-2.894418001E0,-1.052871895E1
1.145536850E1,-1.633101463E0,-2.865405083E0,-1.064118099E1
1.146508142E1,-1.338784218E0,-3.006880760E0,-1.022931671E1
1.147479366E1,-1.101595759E0,-3.140878916E0,-9.666704178E0
1.148450668E1,-1.089631557E0,-3.057130098E0,-1.000678444E1
1.149422048E1,-1.013061285E0,-3.004487991E0,-1.037049294E1
1.150393345E1,-6.801598072E-1,-3.016452074E0,-9.422636032E0
1.151364564E1,-2.901297510E-1,-3.423231840E0,-8.381160736E0
1.152335866E1,-3.236292601E-1,-3.586242914E0,-9.247661591E0
1.153307251E1,-6.442674994E-1,-3.586242914E0,-1.008335495E1
1.154278548E1,-9.652048349E-1,-3.643670797E0,-1.007856941E1
1.155249767E1,-1.228415370E0,-3.595814228E0,-1.036092186E1
1.156221069E1,-1.250249863E0,-3.648456335E0,-1.002114105E1
1.157192449E1,-1.209272742E0,-3.674777269E0,-8.756834030E0
1.158163746E1,-1.367498159E0,-3.576671600E0,-8.539086342E0
1.159134970E1,-1.601994753E0,-3.524029493E0,-8.139185905E0
1.160106267E1,-1.946860313E0,-3.672384501E0,-8.481658936E0
1.161077652E1,-1.882254124E0,-3.856631994E0,-8.845666885E0
1.162048949E1,-1.582852125E0,-4.177569389E0,-8.697012901E0
1.163020168E1,-1.575673699E0,-4.349852562E0,-8.347661018E0
1.163991470E1,-1.989931107E0,-4.778466702E0,-7.737192154E0
1.164962856E1,-2.801397085E0,-4.888536453E0,-7.715656757E0
1.165934147E1,-3.017050266E0,-5.120640278E0,-7.480860710E0
1.166905371E1,-2.880360365E0,-5.250152111E0,-7.389933586E0
1.167876668E1,-2.392224550E0,-5.300401211E0,-7.650751114E0
1.168848053E1,-1.659422517E0,-5.774479389E0,-6.480062962E0
1.169819350E1,-8.359923959E-1,-6.190830231E0,-6.207281113E0
1.170790569E1,-1.704886109E-1,-6.231508255E0,-7.342077255E0
1.171761871E1,-2.542374134E-1,-6.114260197E0,-7.464111328E0
1.172733257E1,-1.137488008E0,-6.270092487E0,-7.071389198E0
1.173704548E1,-1.771885157E0,-6.499803543E0,-6.484848499E0
1.174675772E1,-1.987538338E0,-6.743871689E0,-5.941378593E0
1.175647069E1,-1.513460279E0,-7.033702374E0,-5.563312531E0
1.176618455E1,-1.077667475E0,-6.859025955E0,-6.013462543E0
1.177589751E1,-7.881359458E-1,-6.664908409E0,-6.276672840E0
1.178560970E1,-4.767699242E-1,-7.064808846E0,-5.999105453E0
1.179532272E1,-5.461617708E-1,-7.625028610E0,-5.228018284E0
1.180503658E1,-5.485545993E-1,-7.857132435E0,-5.012664318E0
1.181474949E1,-3.403790295E-1,-7.974679470E0,-5.058127880E0
1.182446173E1,2.123630047E-2,-8.252246857E0,-4.593621254E0
1.183417470E1,3.203391433E-1,-8.359924316E0,-4.598406792E0
1.184388856E1,3.798605874E-2,-8.417351723E0,-4.294219494E0
1.185360152E1,-7.570292354E-1,-8.635397911E0,-3.631108284E0
1.186331371E1,-1.668993831E0,-8.769395828E0,-3.267399311E0
1.187302673E1,-2.552543640E0,-8.714361191E0,-3.250649452E0
1.188274059E1,-2.392224550E0,-8.441280365E0,-3.437289715E0
1.189245356E1,-1.798206210E0,-8.589934349E0,-3.042174816E0
1.190216574E1,-1.194915771E0,-8.752646446E0,-2.733500719E0
1.191187876E1,-6.777670383E-1,-8.422137260E0,-3.214757204E0
1.192159257E1,-4.336991012E-1,-8.190033913E0,-3.743870020E0
1.193130553E1,-1.369891018E-1,-8.012965202E0,-3.882653952E0
1.194101777E1,-1.465603895E-2,-7.826025486E0,-2.979961395E0
1.195073074E1,-5.174478889E-1,-7.794919014E0,-2.156531334E0
1.196044460E1,-1.513460279E0,-7.775776386E0,-1.680060625E0
1.197015757E1,-2.049751759E0,-7.794919014E0,-1.828415632E0
1.197986975E1,-2.049751759E0,-8.173283577E0,-2.491526604E0
1.198958277E1,-1.781456470E0,-8.836395264E0,-2.740679264E0
1.199929663E1,-1.393819213E0,-9.236295700E0,-2.436491728E0
1.200900955E1,-1.216451168E0,-9.549755096E0,-2.623430967E0
1.201872178E1,-1.537388563E0,-9.499505997E0,-3.013461113E0
1.202843475E1,-2.159821510E0,-9.142974854E0,-3.284149170E0
1.203814861E1,-2.655434847E0,-8.522934914E0,-3.422932863E0
1.204786158E1,-2.782254457E0,-8.134998322E0,-2.826820850E0
1.205757382E1,-2.940479994E0,-8.149355888E0,-1.974377751E0
1.206728678E1,-2.909074068E0,-8.283353806E0,-9.882357717E-1
1.207700064E1,-2.834896564E0,-8.367102623E0,-3.463610709E-1
1.208671356E1,-3.366402388E0,-8.285746574E0,-1.501496136E-1
1.209642580E1,-4.290630341E0,-7.881060600E0,-4.663013220E-1
1.210613882E1,-4.558626175E0,-7.751848221E0,-1.052842021E0
1.211585267E1,-4.142275333E0,-8.005785942E0,-1.292124271E0
1.212556559E1,-3.356831074E0,-8.580363274E0,-1.117448211E0
1.213527783E1,-2.497508526E0,-9.248259544E0,-6.744768620E-1
1.214499080E1,-1.851147413E0,-9.777372360E0,-6.744768620E-1
1.215470465E1,-1.377069473E0,-1.026819992E1,-7.462615371E-1
1.216441762E1,-7.546364665E-1,-1.061755180E1,-8.252246976E-1
1.217412981E1,-3.140579537E-2,-1.084995556E1,-7.366902828E-1
1.218384283E1,6.795616150E-1,-1.104377365E1,-4.663013220E-1
1.219355668E1,1.110568762E0,-1.114427280E1,-9.511470050E-2
1.220326960E1,1.179960608E0,-1.104138088E1,1.875374764E-1
1.221298184E1,6.915257573E-1,-1.065822983E1,3.382852972E-1
1.222269486E1,3.798605874E-2,-1.021555805E1,9.152546525E-2
1.223240866E1,-7.546364665E-1,-9.739087105E0,-3.583251834E-1
1.224212163E1,-1.412961721E0,-9.454042435E0,-7.486543655E-1
1.225183387E1,-1.731207132E0,-9.231510162E0,-6.026921868E-1
1.226154684E1,-1.580459356E0,-9.128618240E0,-5.356931686E-1
1.227126069E1,-1.142273664E0,-9.073583603E0,-3.945166469E-1
1.228097366E1,-1.041775107E0,-9.095118523E0,-1.262213886E-1
1.229068585E1,-1.175773263E0,-9.276973724E0,5.802594870E-2
1.230039887E1,-1.470389485E0,-9.418149948E0,1.776670814E-1
1.231011272E1,-1.580459356E0,-9.590433121E0,3.646063507E-1
1.231982569E1,-1.616351724E0,-9.830014229E0,4.746761918E-1
1.232953788E1,-1.362712502E0,-9.968798637E0,1.489532143E-1
1.233925090E1,-1.149452209E0,-1.009561825E1,-9.750752151E-2
1.234896475E1,-1.092024446E0,-1.026102161E1,-4.247260094E-2
1.235867767E1,-1.257428288E0,-1.030409241E1,-4.926223755E-1
1.236838991E1,-1.365105271E0,-1.017218781E1,2.691925503E-2
1.237810288E1,-1.458425403E0,-1.000708294E1,9.487541914E-1
1.238781673E1,-1.348355532E0,-9.784550667E0,7.283154130E-1
1.239752970E1,-1.068096161E0,-9.588040352E0,-4.974080026E-1
1.240724194E1,-9.484550953E-1,-9.513862610E0,-1.366301775E0
1.241695491E1,-1.029811025E0,-9.454042435E0,-1.596311808E0
1.242666876E1,-1.389033556E0,-9.533005714E0,-1.517348647E0
1.243638173E1,-1.812862277E0,-9.664909363E0,-9.810572863E-1
1.244609392E1,-2.061715841E0,-9.779765129E0,-3.655036688E-1
1.245580694E1,-1.872682810E0,-9.794121742E0,-1.764706671E-1
1.246552080E1,-1.683350682E0,-9.770194054E0,-2.027917206E-1
1.247523371E1,-1.542174220E0,-9.703194618E0,-1.788634956E-1
1.248494595E1,-1.501496196E0,-9.533005714E0,-2.003988922E-1
1.249465897E1,-1.518245935E0,-9.530612946E0,-5.117649436E-1
1.250437277E1,-1.475175142E0,-9.693623543E0,-5.667998791E-1
1.251408574E1,-1.274178028E0,-9.904191971E0,-4.806582630E-1
1.252379798E1,-1.156630635E0,-1.005494022E1,-6.649056077E-1
1.253351095E1,-1.125523925E0,-1.006929684E1,-9.714859724E-1
1.254322481E1,-1.118345499E0,-1.007647514E1,-1.201196909E0
1.255293777E1,-9.939187169E-1,-9.968798637E0,-1.323230863E0
1.256264996E1,-8.790631890E-1,-9.923335075E0,-1.498206019E0
1.257236298E1,-9.101698995E-1,-9.877870560E0,-1.146162033E0
1.258207684E1,-1.120738268E0,-9.774979591E0,-4.040879309E-1
1.259178975E1,-9.149555564E-1,-9.576076508E0,-1.668993831E-1
1.260150199E1,-8.623134494E-1,-9.174081802E0,-4.232304990E-1
1.261121501E1,-8.072785139E-1,-8.676075935E0,-1.201196909E0
1.262092882E1,-8.001000881E-1,-8.151748657E0,-1.842772484E0
1.263064178E1,-1.159023523E0,-7.648956776E0,-2.321636200E0
1.264035402E1,-1.642672777E0,-7.402495861E0,-2.302493572E0
1.265006704E1,-1.887039781E0,-7.289734364E0,-2.027019978E0
1.265978085E1,-1.930110574E0,-7.349554539E0,-2.005484581E0
1.266949382E1,-2.085644007E0,-7.237092018E0,-2.091925144E0
1.267920600E1,-2.684148788E0,-7.194021225E0,-2.503490686E0
1.268891902E1,-3.622733593E0,-7.103094101E0,-2.764607430E0
1.269863288E1,-4.228416920E0,-6.978667259E0,-3.387040377E0
1.270834585E1,-4.070490360E0,-6.832705021E0,-3.889832258E0
1.271805803E1,-3.574877024E0,-6.626623154E0,-4.883451939E0
1.272777106E1,-2.935694218E0,-6.676872253E0,-5.165804863E0
1.273748491E1,-2.260320187E0,-6.870990276E0,-4.308875561E0
1.274719783E1,-1.906182289E0,-7.177271366E0,-3.499503136E0
1.275691007E1,-1.604387641E0,-7.727920055E0,-2.161317110E0
1.276662309E1,-1.616351724E0,-7.965108395E0,-1.971984982E0
1.277633689E1,-1.630708575E0,-7.928916931E0,-2.987139940E0
1.278604986E1,-1.755135417E0,-7.900203228E0,-4.418945312E0
1.279576210E1,-1.652244091E0,-7.965108395E0,-5.268696308E0
1.280547507E1,-1.903789520E0,-7.972286701E0,-4.224827290E0
1.281518892E1,-2.492722988E0,-8.103892326E0,-3.947260141E0
1.282490189E1,-2.013859272E0,-7.938787460E0,-5.218447208E0
1.283461408E1,-5.054838061E-1,-7.972286701E0,-5.802595139E0
1.284432710E1,5.048855543E-1,-8.422137260E0,-4.741976261E0
1.285404095E1,9.284151793E-1,-8.975178719E0,-3.245863914E0
1.286375392E1,1.249352574E0,-9.410971642E0,-3.011068106E0
1.287346611E1,1.177567840E0,-9.468399048E0,-4.916951656E0
1.288317913E1,7.250252366E-1,-9.092725754E0,-7.090531826E0
1.289289298E1,-2.422732860E-2,-8.905786514E0,-7.322934628E0
1.290260590E1,-6.418746710E-1,-8.915358543E0,-6.903891563E0
1.291231814E1,-8.144569993E-1,-8.613862038E0,-6.978068829E0
1.292203111E1,-7.426723242E-1,-8.175676346E0,-7.947760582E0
1.293174496E1,-7.570292354E-1,-7.677670479E0,-8.323732376E0
1.294145793E1,-7.474579811E-1,-7.234699249E0,-6.973283291E0
1.295117012E1,-1.123131156E0,-7.012166977E0,-5.196911812E0
1.296088314E1,-9.173483849E-1,-6.722336292E0,-3.700500250E0
1.297059699E1,6.879365072E-3,-6.073582172E0,-4.744369030E0
1.298030996E1,-5.084747914E-3,-5.195116997E0,-7.495217800E0
1.299002215E1,-1.108774185E0,-4.428815842E0,-9.049057007E0
1.299973517E1,-2.758326292E0,-4.213461399E0,-8.668298721E0
1.300944902E1,-4.199702740E0,-3.990629911E0,-8.809774399E0
1.301916194E1,-4.846064091E0,-3.669991732E0,-1.084217834E1
1.302887418E1,-4.147060871E0,-3.325126171E0,-1.106022453E1
1.303858720E1,-2.531008244E0,-3.969094515E0,-8.802596092E0
1.304830100E1,-6.418746710E-1,-4.706682205E0,-7.657929897E0
1.305801397E1,3.610171080E-1,-4.689932346E0,-7.830512047E0
1.306772621E1,5.000999570E-1,-4.392923355E0,-8.522336960E0
1.307743918E1,3.610171080E-1,-4.380959034E0,-9.499206543E0
1.308715303E1,1.265204996E-1,-4.457529545E0,-8.874381065E0
1.309686600E1,-2.877369225E-1,-4.459922314E0,-7.907082558E0
1.310657819E1,-7.594220638E-1,-4.053142548E0,-8.838488579E0
1.311629121E1,-9.891330600E-1,-3.710669756E0,-9.817452431E0
1.312600507E1,-6.011967063E-1,-3.787240028E0,-9.183054924E0
1.313571798E1,5.144568682E-1,-3.825525284E0,-1.003549862E1
1.314543022E1,9.954141974E-1,-3.457030535E0,-1.053350449E1
1.315514324E1,7.944171429E-1,-3.040380239E0,-9.783952713E0
1.316485710E1,1.743769497E-1,-2.530410051E0,-1.006181908E1
1.317457001E1,-9.436694384E-1,-1.881655931E0,-9.949356079E0
1.318428225E1,-1.477568030E0,-1.924726725E0,-8.891130447E0
1.319399522E1,-1.832004786E0,-2.341377020E0,-9.405886650E0
1.320370908E1,-1.934896231E0,-2.592623234E0,-1.036810017E1
1.321342205E1,-1.920539260E0,-2.748156786E0,-1.007378292E1
1.322313423E1,-2.229213476E0,-2.848655462E0,-9.597312927E0
1.323284725E1,-2.588435888E0,-2.523231506E0,-1.057896805E1
1.324256111E1,-2.748754978E0,-2.053939104E0,-1.120857906E1
1.325227408E1,-2.913859844E0,-1.826620936E0,-1.016710377E1
1.326198626E1,-2.770290375E0,-2.144866467E0,-1.026281643E1
1.327169928E1,-2.983550787E0,-1.575075507E0,-1.005224800E1
1.328141314E1,-2.796611547E0,-1.833799481E0,-1.041835022E1
1.329112606E1,-2.957229614E0,-2.233400822E0,-1.088764191E1
1.330083830E1,-3.352045536E0,-2.506481647E0,-1.050479031E1
1.331055126E1,-3.057728291E0,-2.750549555E0,-1.135214901E1
1.332026512E1,-3.115155935E0,-2.760120869E0,-1.098574829E1
1.332997809E1,-3.182155132E0,-2.331805706E0,-1.141196918E1
1.333969027E1,-2.717648268E0,-1.675574064E0,-1.197458172E1
1.334940330E1,-1.523031592E0,-1.797907114E0,-1.138564873E1
1.335911715E1,-1.389033556E0,-1.543968797E0,-1.137846947E1
1.336883012E1,-1.132702470E0,-1.577468276E0,-1.178315639E1
1.337854231E1,-1.245165110E0,-1.666002750E0,-1.195304680E1
1.338825533E1,-1.908575177E0,-1.776371717E0,-1.156032467E1
1.339796918E1,-2.882753134E0,-1.752144337E0,-1.172094250E1
1.340768210E1,-3.486043453E0,-1.579861164E0,-1.189322567E1
1.341739434E1,-3.562912941E0,-1.400399446E0,-1.162522984E1
1.342710736E1,-3.079263687E0,-1.414756417E0,-1.134257793E1
1.343682116E1,-2.676970243E0,-1.431506157E0,-1.164915752E1
1.344653413E1,-2.164607286E0,-1.443470240E0,-1.153878880E1
1.345624637E1,-1.841576099E0,-1.527219057E0,-1.148375416E1
1.346595934E1,-1.501496196E0,-1.634896040E0,-1.101206875E1
1.347567319E1,-1.451246977E0,-1.699502230E0,-1.139761257E1
1.348538616E1,-1.197308660E0,-1.725823283E0,-1.125882912E1
1.349509835E1,-1.008275628E0,-1.704287887E0,-1.144307613E1
1.350481137E1,-7.713862062E-1,-1.687538147E0,-1.134257793E1
1.351452522E1,-6.777670383E-1,-1.675574064E0,-1.123011494E1
1.352423814E1,-7.091727853E-1,-1.781157374E0,-1.138325596E1
1.353395038E1,-1.276570916E0,-1.974975944E0,-1.110568810E1
1.354366340E1,-1.680957913E0,-2.429911375E0,-1.046859932E1
1.355337720E1,-2.023430586E0,-2.760120869E0,-1.018624592E1
1.356309017E1,-2.406581402E0,-3.004487991E0,-1.037767220E1
1.357280236E1,-2.540579557E0,-3.294019461E0,-1.012642574E1
1.358251538E1,-2.262712955E0,-3.399303675E0,-9.748060226E0
1.359222923E1,-2.004287958E0,-3.301198006E0,-9.630811691E0
1.360194220E1,-1.719243050E0,-2.985345364E0,-9.930213928E0
1.361165439E1,-1.523031592E0,-2.743371248E0,-1.014556789E1
1.362136741E1,-9.652048349E-1,-2.855833769E0,-1.067946625E1
1.363108126E1,-3.571287692E-1,-2.968595505E0,-1.040159988E1
1.364079418E1,-3.834498227E-1,-2.985345364E0,-1.018624592E1
1.365050642E1,-4.983053207E-1,-3.069094181E0,-1.053829002E1
1.366021939E1,-2.805584669E-1,-3.296412230E0,-1.027478027E1
1.366993324E1,-2.973082066E-1,-3.492922783E0,-9.923035622E0
1.367964621E1,-6.514459848E-1,-3.483351469E0,-1.006421185E1
1.368935840E1,-9.388837814E-1,-3.643670797E0,-9.034700394E0
1.369907142E1,-1.166201949E0,-3.875774384E0,-9.609276772E0
1.370878527E1,-1.482353687E0,-4.043570995E0,-9.183054924E0
1.371849824E1,-2.183749676E0,-3.985844374E0,-8.840881348E0
1.372821043E1,-2.375474691E0,-4.089034557E0,-9.326624870E0
1.373792345E1,-2.265105724E0,-4.311567307E0,-9.915857315E0
1.374763731E1,-1.946860313E0,-4.661218643E0,-9.252447128E0
1.375735022E1,-1.357926846E0,-5.079962254E0,-7.634001732E0
1.376706246E1,-1.360319614E0,-5.262115955E0,-7.825726509E0
1.377677543E1,-2.660220623E0,-4.864608288E0,-8.986844063E0
1.378648928E1,-4.242773533E0,-4.428815842E0,-8.824131966E0
1.379620225E1,-4.283451557E0,-4.467100620E0,-8.127222061E0
1.380591444E1,-3.589233875E0,-4.706682205E0,-7.162615299E0
1.381562746E1,-2.672184706E0,-4.840680122E0,-7.102495670E0
1.382534132E1,-1.479960799E0,-5.242973328E0,-7.344470024E0
1.383505423E1,-7.163512707E-1,-5.903691769E0,-6.915855408E0
1.384476647E1,-5.844469070E-1,-6.097510338E0,-6.583253384E0
1.385447944E1,-9.604191780E-1,-6.382555485E0,-6.513562202E0
1.386419330E1,-1.558923960E0,-6.724729061E0,-6.183352947E0
1.387390626E1,-2.312962294E0,-7.141379356E0,-5.862415314E0
1.388361845E1,-2.528615236E0,-7.265805721E0,-6.118746758E0
1.389333147E1,-2.389831543E0,-7.677670479E0,-5.948556900E0
1.390304533E1,-2.542972326E0,-7.706384659E0,-5.484349728E0
1.391275830E1,-2.076072693E0,-8.044071198E0,-5.670989513E0
1.392247048E1,-1.348355532E0,-7.916952610E0,-5.369194984E0
1.393218350E1,-2.207378894E-1,-8.259425163E0,-5.366802216E0
1.394189736E1,9.116654396E-1,-7.842775345E0,-5.278267860E0
1.395161027E1,1.376172066E0,-7.591528893E0,-4.840082169E0
1.396132251E1,5.335994363E-1,-7.155735970E0,-4.337589264E0
1.397103548E1,8.344969153E-2,-7.127022266E0,-3.444468260E0
1.398074934E1,-4.767699242E-1,-7.086344242E0,-2.599203587E0
1.399046231E1,-1.029811025E0,-7.316055298E0,-2.446063042E0
1.400017449E1,-1.082453132E0,-7.852346420E0,-2.603989124E0
1.400988751E1,-9.819545746E-1,-8.039285660E0,-2.649751902E0
1.401960137E1,-5.964110494E-1,-8.053643227E0,-2.826820850E0
1.402931428E1,-1.872383654E-1,-7.962715626E0,-3.207578659E0
1.403902652E1,-7.926224917E-2,-7.773383617E0,-3.164208889E0
1.404873949E1,-3.236292601E-1,-7.725526810E0,-3.147459030E0
1.405845335E1,-6.777670383E-1,-7.768597603E0,-3.128316402E0
1.406816632E1,-1.187737346E0,-8.063214302E0,-2.776571512E0
1.407787850E1,-2.159821510E0,-8.331210136E0,-2.393420935E0
1.408759152E1,-2.593221426E0,-8.484351158E0,-2.221137524E0
1.409730538E1,-3.445365429E0,-8.240283012E0,-2.769393206E0
1.410701835E1,-4.465306282E0,-7.866703510E0,-3.171387196E0
1.411673053E1,-4.290630341E0,-7.977072716E0,-3.695714474E0
1.412644356E1,-3.840480328E0,-8.302495956E0,-3.885046721E0
1.413615736E1,-3.385545015E0,-8.412566185E0,-3.748655796E0
1.414587033E1,-2.822932482E0,-8.359924316E0,-3.181257725E0
1.415558257E1,-1.616351724E0,-8.644968987E0,-2.805285454E0
1.416529553E1,-6.418746710E-1,-9.176474571E0,-1.933699846E0
1.417500939E1,-4.336991161E-2,-9.518648148E0,-1.332802176E0
1.418472236E1,2.102692872E-1,-9.770194054E0,-1.253839016E0
1.419443454E1,7.866404206E-2,-9.774979591E0,-1.294517040E0
1.420414757E1,-5.437689424E-1,-9.461220741E0,-1.519741535E0
1.421386142E1,-1.255035520E0,-9.071190834E0,-1.272981644E0
1.422357434E1,-2.265105724E0,-8.621041298E0,-8.443672657E-1
1.423328658E1,-3.174976587E0,-8.268997192E0,-9.930213690E-1
1.424299955E1,-3.373580933E0,-8.187641144E0,-1.196411371E0
1.425271340E1,-3.447758436E0,-8.170890808E0,-1.024128079E0
1.426242637E1,-3.050549746E0,-8.448458672E0,-8.108677864E-1
1.427213856E1,-2.456830740E0,-8.824430466E0,-6.385845542E-1
1.428185158E1,-1.788634896E0,-9.078369141E0,-3.439682424E-1
1.429156543E1,-1.041775107E0,-9.351150513E0,-4.247260094E-2
1.430127835E1,-1.465603858E-1,-9.856335640E0,1.495514158E-2
1.431099059E1,6.747759581E-1,-1.026819992E1,7.477571070E-2
1.432070356E1,8.757730722E-1,-1.058405304E1,-1.597209126E-1
1.433041741E1,6.675975323E-1,-1.083081245E1,-4.399802685E-1
1.434013038E1,3.059822023E-1,-1.084756279E1,-4.447658956E-1
1.434984257E1,1.645065658E-2,-1.089302635E1,-3.678964674E-1
1.435955559E1,-3.332005441E-1,-1.080927753E1,-1.070788130E-1
1.436926944E1,-8.264211416E-1,-1.058166027E1,1.369891018E-1
1.437898236E1,-1.084846020E0,-1.046201897E1,4.794618487E-1
1.438869460E1,-1.103988528E0,-1.035912704E1,9.104689956E-1
1.439840762E1,-1.147059321E0,-1.014586735E1,9.296116233E-1
1.440812142E1,-1.216451168E0,-1.001426220E1,8.578268886E-1
1.441783439E1,-1.278963685E0,-9.712766647E0,7.645068169E-1
1.442754658E1,-1.415354609E0,-9.284152031E0,6.541379094E-1
1.443725960E1,-1.348355532E0,-9.492327690E0,2.330010980E-1
1.444697345E1,-1.549352646E0,-9.355937004E0,2.330010980E-1
1.445668637E1,-1.724028707E0,-9.442078590E0,5.895316601E-1
1.446639861E1,-1.908575177E0,-9.621838570E0,5.440680385E-1
1.447611158E1,-1.887039781E0,-9.585647583E0,2.114657015E-1
1.448582543E1,-1.810469389E0,-9.487542152E0,-1.214357466E-1
1.449553840E1,-1.700100541E0,-9.281759262E0,-3.152543902E-1
1.450525059E1,-1.728814363E0,-9.245866776E0,-5.045864582E-1
1.451496361E1,-1.989931107E0,-9.162117958E0,-5.021936297E-1
1.452467746E1,-2.049751759E0,-9.044570923E0,-4.686941206E-1
1.453439038E1,-2.073679924E0,-9.288937569E0,-2.697907388E-1
1.454410262E1,-2.085644007E0,-9.516255379E0,-1.525424421E-1
1.455381564E1,-1.802991867E0,-9.786943436E0,-1.166501045E-1
1.456352944E1,-1.420140266E0,-1.011236763E1,1.800599098E-1
1.457324241E1,-9.987043738E-1,-1.045723343E1,5.416752100E-1
1.458295460E1,-6.346961856E-1,-1.077099228E1,7.860422134E-1
1.459266762E1,-2.925225794E-1,-1.089302635E1,9.774680734E-1
1.460238147E1,1.645065658E-2,-1.085952663E1,8.362914920E-1
1.461209439E1,7.387840003E-2,-1.065344429E1,5.512465239E-1
1.462180663E1,3.080759197E-2,-1.043569756E1,3.095714152E-1
1.463151965E1,-2.327020019E-1,-1.015783119E1,2.282154560E-1
1.464123345E1,-7.307082415E-1,-9.882657051E0,2.856431901E-1
1.465094642E1,-1.202094316E0,-9.727123260E0,2.258226424E-1
1.466065861E1,-1.539781332E0,-9.643374443E0,1.274178028E-1
1.467037163E1,-1.812862277E0,-9.600004196E0,4.366901144E-2
1.468008548E1,-1.958824396E0,-9.604789734E0,2.425723970E-1
1.468979840E1,-1.939681888E0,-9.528220177E0,1.489532143E-1
1.469951064E1,-1.695314884E0,-9.719944954E0,1.633101404E-1
1.470922361E1,-1.386640668E0,-1.008843899E1,1.161715388E0
1.471893746E1,-1.130309582E0,-1.010997486E1,7.402794957E-1
1.472865043E1,-9.077770710E-1,-9.952048302E0,-2.602194548E-1
1.473836262E1,-7.881359458E-1,-9.774979591E0,-1.079162955E0
1.474807564E1,-9.532406926E-1,-9.437292099E0,-1.926521301E0
1.475778949E1,-1.345962763E0,-8.917751312E0,-2.498705149E0
1.476750241E1,-1.668993831E0,-8.618648529E0,-2.053340912E0
1.477721465E1,-1.633101463E0,-8.247461319E0,-2.233101845E0
1.478692762E1,-1.377069473E0,-8.003393173E0,-2.850749016E0
1.479664147E1,-1.077667475E0,-8.304888725E0,-2.570489645E0
1.480635444E1,-9.675976634E-1,-8.585148811E0,-1.550848126E0
1.481606663E1,-1.379462242E0,-8.554041862E0,-9.547362328E-1
1.482577965E1,-1.963610053E0,-8.012965202E0,-1.162911773E0
1.483549350E1,-2.497508526E0,-7.105486870E0,-2.221137524E0
1.484520642E1,-3.091227770E0,-6.217151642E0,-3.880260944E0
1.485491866E1,-3.582055569E0,-5.903691769E0,-4.682155609E0
1.486463163E1,-3.289832115E0,-5.987440586E0,-4.438087940E0
1.487434548E1,-2.653042078E0,-6.339484692E0,-3.470789194E0
1.488405845E1,-2.068894386E0,-6.727121830E0,-2.230708838E0
1.489377064E1,-1.286142230E0,-7.237092018E0,-3.873381615E-1
1.490348366E1,-8.575277925E-1,-7.893024445E0,1.290927768E0
1.491319751E1,-9.412766099E-1,-8.276175499E0,1.092323542E0
1.492291043E1,-1.556531072E0,-8.082356453E0,-6.529414654E-1
1.493262267E1,-2.930908680E0,-7.732705593E0,-3.224328518E0
1.494233564E1,-3.728017569E0,-7.648956776E0,-5.548955917E0
1.495204949E1,-3.622733593E0,-7.725526810E0,-7.073781967E0
1.496176246E1,-2.799004316E0,-7.883453369E0,-6.484848499E0
1.497147465E1,-2.397010088E0,-8.398209572E0,-4.284647942E0
1.498118767E1,-1.745564103E0,-9.202795982E0,-2.187638044E0
1.499090152E1,-4.408775866E-1,-9.770194054E0,-1.292124271E0
1.500061444E1,9.762716293E-1,-1.021555805E1,-1.770987868E0
1.501032668E1,2.254936218E0,-1.072044373E1,-2.956033230E0
1.502003965E1,3.365804195E0,-1.095523930E1,-5.180161953E0
1.502975350E1,2.918047190E0,-1.076620674E1,-8.069794655E0
1.503946647E1,1.220638633E0,-9.875477791E0,-9.269196510E0
1.504917866E1,-4.336991012E-1,-9.107083321E0,-9.113663673E0
1.505889168E1,-2.174178362E0,-8.518149376E0,-7.349255562E0
1.506860553E1,-3.359223843E0,-7.895417213E0,-4.902594566E0
