"Time (s)","Gyroscope x (rad/s)","Gyroscope y (rad/s)","Gyroscope z (rad/s)"
1.640587640E-1,-3.297048211E-1,-1.291942000E-1,3.542914242E-2
1.737717320E-1,-3.431434333E-1,-8.276980370E-2,3.298575059E-2
1.834855340E-1,-3.321481943E-1,-2.290677279E-2,1.710372418E-2
1.931984510E-1,-3.235963285E-1,5.283828825E-2,-3.665083554E-3
2.029106390E-1,-3.382566571E-1,1.212531775E-1,-2.076880634E-2
2.126236070E-1,-3.553603888E-1,1.713426560E-1,-4.031591862E-2
2.223374090E-1,-3.590254784E-1,2.031067163E-1,-6.474980712E-2
2.320503260E-1,-3.639122546E-1,2.287622988E-1,-8.551861346E-2
2.417625140E-1,-3.810159862E-1,2.556395829E-1,-9.284878522E-2
2.514754300E-1,-4.396573007E-1,2.678565085E-1,-8.429691941E-2
2.611892840E-1,-5.508314967E-1,2.727433145E-1,-6.719319522E-2
2.709021490E-1,-7.120952010E-1,2.250972092E-1,-3.176405653E-2
2.806143360E-1,-9.002361298E-1,1.334701329E-1,0.000000000E0
2.903273050E-1,-1.084712029E0,5.161659420E-2,-6.108472589E-3
3.000411070E-1,-1.227650285E0,-8.246437646E-3,-3.665083647E-2
3.097540240E-1,-1.316833973E0,-7.299624383E-2,-8.185353130E-2
3.194662110E-1,-1.396396875E0,-1.609582454E-1,-1.221694499E-1
3.291791800E-1,-1.545443535E0,-3.393256664E-1,-1.343863904E-1
3.388929820E-1,-1.773900390E0,-6.337540150E-1,-1.123958975E-1
3.486058990E-1,-2.046338320E0,-9.416210651E-1,-3.787253052E-2
3.583180860E-1,-2.335879803E0,-1.138313890E0,6.474980712E-2
3.680310550E-1,-2.611982822E0,-1.130983710E0,1.612636745E-1
3.777448570E-1,-2.790350199E0,-8.805363178E-1,2.272351831E-1
3.874577740E-1,-2.870982170E0,-4.578300118E-1,2.834331393E-1
3.971699610E-1,-2.889307499E0,-1.572931707E-1,3.151971996E-1
4.068828780E-1,-2.827001095E0,-1.047603041E-1,3.164188862E-1
4.165967320E-1,-2.734152317E0,-1.621799469E-1,3.054236174E-1
4.263096490E-1,-2.625421524E0,-1.988307834E-1,2.761029601E-1
4.360217840E-1,-2.516690731E0,-1.817270666E-1,2.186833173E-1
4.457347530E-1,-2.418955088E0,-1.462979168E-1,1.624853760E-1
4.554485550E-1,-2.350540161E0,-1.194206402E-1,1.197260618E-1
4.651614720E-1,-2.363978863E0,1.985253580E-2,1.087308154E-1
4.748736590E-1,-2.492256880E0,2.678565085E-1,1.307213157E-1
4.845866280E-1,-2.665737391E0,4.303418994E-1,1.221694499E-1
4.943004300E-1,-2.817227602E0,4.303418994E-1,9.162709117E-2
5.040133470E-1,-2.941840410E0,4.095730782E-1,1.221694499E-1
5.137255340E-1,-3.045684338E0,5.378510356E-1,2.394521236E-1
5.234385030E-1,-3.018807173E0,8.444963098E-1,3.518480062E-1
5.331523050E-1,-2.778133392E0,1.164580345E0,4.092676640E-1
5.428652220E-1,-2.423841953E0,1.385707021E0,4.630222321E-1
5.525774090E-1,-2.151404142E0,1.401589036E0,4.960079789E-1
5.622903780E-1,-2.036564827E0,1.185349107E0,4.654656053E-1
5.720041800E-1,-2.058555365E0,7.895200849E-1,3.701734245E-1
5.817170970E-1,-2.172172785E0,4.523324072E-1,2.455606014E-1
5.914292320E-1,-2.319997787E0,3.900259733E-1,1.294996142E-1
6.011422010E-1,-2.374974251E0,5.158604980E-1,5.741964281E-2
6.108560550E-1,-2.269908428E0,7.259919643E-1,3.665083647E-2
6.205689720E-1,-2.095206022E0,9.153546095E-1,5.619794875E-2
6.302811070E-1,-1.964484811E0,9.727742672E-1,6.841489673E-2
6.399940760E-1,-1.947381020E0,9.422318935E-1,7.696675509E-2
6.497078780E-1,-2.015795946E0,7.931851745E-1,1.014006436E-1
6.594207950E-1,-2.096427679E0,5.317425132E-1,1.099525094E-1
6.691329820E-1,-2.173394442E0,2.580829561E-1,1.062874198E-1
6.788459510E-1,-2.206380367E0,1.652341783E-1,1.319430023E-1
6.885597530E-1,-2.097649574E0,2.483094037E-1,2.101314515E-1
6.982726700E-1,-1.889961362E0,4.120164812E-1,3.249707520E-1
7.079848570E-1,-1.743358135E0,5.622848868E-1,4.581354558E-1
7.176978260E-1,-1.742136359E0,6.123743653E-1,5.693096519E-1
7.274116280E-1,-1.773900390E0,5.793886185E-1,6.096255779E-1
7.371245450E-1,-1.760461807E0,5.073086619E-1,5.790832043E-1
7.468367320E-1,-1.756796718E0,4.107947946E-1,5.106683373E-1
7.565497010E-1,-1.864305854E0,2.751866877E-1,4.263713956E-1
7.662635030E-1,-1.985253572E0,1.408002973E-1,3.628432751E-1
7.759764200E-1,-1.951046109E0,4.062134400E-2,3.347443044E-1
7.856886070E-1,-1.788560748E0,4.428642616E-2,3.445178568E-1
7.954015760E-1,-1.611415029E0,1.322484314E-1,3.078670204E-1
8.051153780E-1,-1.557660460E0,6.627693027E-2,2.162399292E-1
8.148282950E-1,-1.624853730E0,-1.340809762E-1,1.759240031E-1
8.245404820E-1,-1.670056462E0,-2.489202619E-1,1.771457046E-1
8.342534510E-1,-1.682273388E0,-3.649812341E-1,1.893626451E-1
8.439672530E-1,-1.644400835E0,-4.810422063E-1,1.612636745E-1
8.536801700E-1,-1.678608298E0,-5.665608048E-1,1.014006436E-1
8.633923570E-1,-1.734806180E0,-5.934380889E-1,4.520269856E-2
8.731053260E-1,-1.700598717E0,-6.252021790E-1,2.076880634E-2
8.828191280E-1,-1.622410297E0,-5.934380889E-1,3.787253052E-2
8.925320970E-1,-1.547886968E0,-5.531222224E-1,5.131116882E-2
9.022442320E-1,-1.503905892E0,-5.690042377E-1,4.275930673E-2
9.119572010E-1,-1.442821264E0,-5.201364160E-1,-2.932066843E-2
9.216710550E-1,-1.345085621E0,-4.285093546E-1,-1.490467340E-1
9.313839720E-1,-1.276518106E0,-4.272876680E-1,-1.429382563E-1
9.410961590E-1,-1.208103180E0,-3.515425920E-1,-1.319430023E-1
9.508091280E-1,-1.142131686E0,-3.234436214E-1,-1.099525094E-1
9.605229300E-1,-1.117697716E0,-3.503209054E-1,-1.832541823E-2
9.702358470E-1,-1.052947998E0,-2.709107697E-1,4.031591862E-2
9.799480340E-1,-9.429954290E-1,-1.462979168E-1,9.773556143E-2
9.896610030E-1,-8.477032781E-1,-3.145863488E-2,1.490467340E-1
9.993748050E-1,-7.548545003E-1,-9.162708884E-4,1.258345395E-1
1.009087722E0,-6.534538269E-1,-1.191152167E-2,5.253286287E-2
1.018799909E0,-5.593833923E-1,-3.878879920E-2,-3.787253052E-2
1.028512878E0,-4.775298536E-1,-4.489727318E-2,-1.233911440E-1
1.038226680E0,-3.920112252E-1,-1.191152167E-2,-1.759240031E-1
1.047939649E0,-2.930539846E-1,4.795150831E-2,-2.089097649E-1
1.057651784E0,-2.160872221E-1,7.360709459E-2,-2.834331393E-1
1.067364805E0,-1.122431830E-1,6.505523622E-2,-3.506263196E-1
1.077078607E0,-8.399149403E-3,6.139015034E-2,-3.958290219E-1
1.086791524E0,8.811471611E-2,9.193251282E-2,-4.850127101E-1
1.096503711E0,2.041756958E-1,1.542389393E-1,-5.522059202E-1
1.106216680E0,2.884726226E-1,2.397575527E-1,-5.803049207E-1
1.115930482E0,3.935383558E-1,3.448232710E-1,-5.668662786E-1
1.125643451E0,4.778352678E-1,3.875826001E-1,-5.265503526E-1
1.135355586E0,5.719057322E-1,3.521534503E-1,-4.789042473E-1
1.145068607E0,6.916317940E-1,3.863608837E-1,-4.324798584E-1
1.154782409E0,7.979192138E-1,4.413371384E-1,-4.092676640E-1
1.164495326E0,9.347490072E-1,4.804313779E-1,-4.092676640E-1
1.174207514E0,1.094791055E0,5.292991400E-1,-4.043808877E-1
1.183920482E0,1.236507535E0,5.745018721E-1,-3.884988427E-1
1.193634336E0,1.347681761E0,6.135960817E-1,-3.542914093E-1
1.203347201E0,1.449082375E0,6.111527085E-1,-3.298575282E-1
1.213059441E0,1.535822749E0,6.001574397E-1,-3.066453338E-1
1.222772409E0,1.625006437E0,6.038225293E-1,-2.822114229E-1
1.232486211E0,1.697086453E0,6.343649030E-1,-2.492256761E-1
1.242199128E0,1.710525036E0,6.587987542E-1,-2.186833173E-1
1.251911316E0,1.722741961E0,6.050441861E-1,-1.844758689E-1
1.261624284E0,1.742289066E0,5.219689608E-1,-1.466033459E-1
1.271338139E0,1.771609783E0,4.095730782E-1,-1.111742035E-1
1.281051055E0,1.799708724E0,1.908897758E-1,-6.719319522E-2
1.290763243E0,1.783826709E0,-9.620844573E-2,-2.076880634E-2
1.300476211E0,1.772831440E0,-3.295520842E-1,-1.099525020E-2
1.310190066E0,1.792378545E0,-4.566083252E-1,-3.298575059E-2
1.319902982E0,1.799708724E0,-5.335750580E-1,-6.597150117E-2
1.329615170E0,1.783826709E0,-6.276455522E-1,-9.040539712E-2
1.339328139E0,1.764279604E0,-7.046123147E-1,-1.099525094E-1
1.349041941E0,1.737402320E0,-7.375980616E-1,-1.014006436E-1
1.358754857E0,1.717855215E0,-7.107207775E-1,-3.542914242E-2
1.368467045E0,1.730072141E0,-6.679614782E-1,6.230641901E-2
1.378180066E0,1.764279604E0,-6.264238358E-1,1.588202864E-1
1.387893868E0,1.798487067E0,-6.056550741E-1,2.260134816E-1
1.397606784E0,1.862015128E0,-6.252021790E-1,2.589992285E-1
1.407318972E0,1.970745921E0,-6.423059106E-1,2.626643181E-1
1.417031993E0,2.081920147E0,-6.447492838E-1,2.309002578E-1
1.426745795E0,2.202867985E0,-6.972821355E-1,1.624853760E-1
1.436458711E0,2.285943270E0,-7.131641507E-1,7.696675509E-2
1.446170899E0,2.312820435E0,-6.972821355E-1,1.221694518E-3
1.455883868E0,2.316485405E0,-6.630746722E-1,-1.099525020E-2
1.465597722E0,2.340919495E0,-5.848862529E-1,2.443389036E-2
1.475310639E0,2.366575003E0,-5.311316848E-1,7.574506104E-2
1.485022826E0,2.354357958E0,-5.384618640E-1,1.136175916E-1
1.494735795E0,2.337254286E0,-5.763344169E-1,1.099525094E-1
1.504449649E0,2.365353346E0,-5.922164321E-1,6.474980712E-2
1.514162566E0,2.450871944E0,-5.628957748E-1,-1.099525020E-2
1.523874753E0,2.580371618E0,-5.213581324E-1,-9.407047927E-2
1.533587722E0,2.720866442E0,-4.456130862E-1,-1.502684206E-1
1.543301576E0,2.832040548E0,-2.965663373E-1,-1.698155403E-1
1.553014493E0,2.872356415E0,-1.805053651E-1,-1.685938388E-1
1.562726680E0,2.856474400E0,-2.012741715E-1,-1.747023165E-1
1.572439649E0,2.828375578E0,-3.283303976E-1,-1.942494214E-1
1.582153503E0,2.830818892E0,-4.162923992E-1,-2.162399292E-1
1.591866420E0,2.885795116E0,-4.077405334E-1,-2.394521236E-1
1.601578607E0,2.965205193E0,-3.368822634E-1,-2.528907657E-1
1.611291576E0,3.043393850E0,-2.635805905E-1,-2.370087355E-1
1.621005430E0,3.120360613E0,-2.415900975E-1,-2.052446753E-1
1.630718347E0,3.169228315E0,-2.012741715E-1,-2.028012872E-1
1.640430534E0,3.146016121E0,-1.047603041E-1,-2.443388999E-1
1.650143503E0,3.066606045E0,-2.901524492E-2,-3.286358118E-1
1.659857357E0,2.984752417E0,-4.734066129E-2,-4.251496792E-1
1.669570274E0,2.913894176E0,-1.756185889E-1,-4.801259339E-1
1.679282461E0,2.833262205E0,-3.588727713E-1,-4.642439187E-1
1.688995482E0,2.724531412E0,-5.299099684E-1,-3.860554695E-1
1.698709284E0,2.575484753E0,-5.372401476E-1,-3.078670204E-1
1.708422201E0,2.461867094E0,-3.881934285E-1,-2.675510943E-1
1.718134389E0,2.370239973E0,-2.476985604E-1,-3.054236174E-1
1.727847409E0,2.250514030E0,-1.475196183E-1,-3.921639323E-1
1.737561211E0,2.091693640E0,-6.077930331E-2,-4.715740979E-1
1.747274128E0,1.909661293E0,2.473931387E-2,-5.155550838E-1
1.756986316E0,1.723963618E0,1.444653720E-1,-5.351021886E-1
1.766699336E0,1.590798974E0,2.898470163E-1,-5.070032477E-1
1.776413139E0,1.528492570E0,3.924693763E-1,-4.092676640E-1
1.786126055E0,1.505280375E0,4.669927359E-1,-2.577775419E-1
1.795838295E0,1.477181435E0,4.938700199E-1,-7.085828483E-2
1.805551264E0,1.377002478E0,5.085303187E-1,1.172826737E-1
1.815265066E0,1.221847177E0,5.341859460E-1,2.687727809E-1
1.824978034E0,1.069135427E0,5.903838873E-1,3.628432751E-1
1.834690222E0,9.604045749E-1,6.954495907E-1,3.909422457E-1
1.844403191E0,9.261971712E-1,8.054021001E-1,3.738385141E-1
1.854116993E0,9.298622608E-1,8.811471462E-1,3.188622594E-1
1.863829961E0,9.005415440E-1,9.251281619E-1,2.052446753E-1
1.873542149E0,8.284615874E-1,8.896990418E-1,3.665083647E-2
1.883255118E0,7.172874212E-1,7.882983685E-1,-1.563768983E-1
1.892968972E0,5.609105229E-1,6.258130074E-1,-2.895416021E-1
1.902681889E0,3.361186981E-1,4.278984964E-1,-2.956500649E-1
1.912394076E0,7.345438004E-2,1.872246861E-1,-2.247917950E-1
1.922107045E0,-1.769929975E-1,-9.987352788E-2,-1.417165697E-1
1.931820899E0,-3.724641204E-1,-3.771981895E-1,-4.642439261E-2
1.941533816E0,-5.031854510E-1,-5.971031785E-1,4.275930673E-2
1.951246003E0,-5.679352283E-1,-7.156075835E-1,1.111742035E-1
1.960959024E0,-5.496098399E-1,-6.936170459E-1,1.356080920E-1
1.970672826E0,-4.616478086E-1,-5.347967744E-1,1.099525094E-1
1.980385743E0,-3.516952991E-1,-3.429907262E-1,5.497625470E-2
1.990097982E0,-2.502946556E-1,-2.000524700E-1,-2.443389036E-3
1.999810951E0,-1.818797737E-1,-1.072036922E-1,-3.176405653E-2
2.009524753E0,-1.427855492E-1,-2.290677279E-2,-2.076880634E-2
2.019237722E0,-1.073564067E-1,5.772506446E-2,1.221694518E-2
2.028949909E0,-6.704048812E-2,1.566823274E-1,4.642439261E-2
2.038662878E0,-3.405473381E-2,2.812951505E-1,5.986303091E-2
2.048376680E0,-4.734066315E-3,3.643703759E-1,3.542914242E-2
2.058089649E0,2.336490713E-2,3.949127495E-1,-1.588202827E-2
2.067801836E0,4.779879749E-2,4.107947946E-1,-8.429691941E-2
2.077514805E0,7.101099193E-2,4.132381678E-1,-1.539335102E-1
2.087228659E0,8.322793990E-2,3.924693763E-1,-1.954711229E-1
2.096941576E0,6.123743951E-2,3.533751369E-1,-2.052446753E-1
2.106653764E0,-4.734066315E-3,2.739650011E-1,-1.979145110E-1
2.116366732E0,-9.880454093E-2,1.603474021E-1,-1.832541823E-1
2.126080586E0,-2.026485801E-1,4.184303805E-2,-1.490467340E-1
2.135793503E0,-2.954973578E-1,-2.901524492E-2,-9.529217333E-2
2.145505691E0,-3.407000601E-1,-7.299624383E-2,-5.375456065E-2
2.155218711E0,-3.309265077E-1,-1.377460510E-1,-3.420744836E-2
2.164932514E0,-3.113794029E-1,-1.670667231E-1,-3.787253052E-2
2.174645482E0,-3.174878657E-1,-1.377460510E-1,-3.665083647E-2
2.184357670E0,-3.724641204E-1,-9.254335612E-2,-2.321219631E-2
2.194070639E0,-4.836383164E-1,-6.566607952E-2,-1.221694518E-3
2.203784441E0,-6.400152445E-1,-8.887827396E-2,2.565558441E-2
2.213497409E0,-8.086090684E-1,-1.536280811E-1,5.864133686E-2
2.223209597E0,-9.710944295E-1,-2.403683960E-1,1.014006436E-1
2.232922566E0,-1.131136417E0,-3.197785318E-1,1.441599578E-1
2.242636420E0,-1.249640822E0,-3.649812341E-1,1.685938388E-1
2.252349336E0,-1.278961420E0,-3.466558158E-1,1.453816444E-1
2.262061524E0,-1.237423778E0,-2.623589039E-1,8.918370306E-2
2.271774493E0,-1.178782463E0,-1.548497826E-1,2.199050039E-2
2.281488347E0,-1.180004239E0,-7.543963939E-2,-6.230641901E-2
2.291201264E0,-1.321720719E0,-1.313321572E-2,-1.368297935E-1
2.300913451E0,-1.607749939E0,-2.901524492E-2,-1.832541823E-1
2.310626472E0,-1.979145169E0,-1.169772521E-1,-1.808107942E-1
2.320340274E0,-2.313889503E0,-2.000524700E-1,-1.270562261E-1
2.330053243E0,-2.503252029E0,-2.806843221E-1,-4.153761268E-2
2.339765430E0,-2.543567896E0,-3.637595475E-1,4.153761268E-2
2.349478399E0,-2.455605984E0,-4.016320705E-1,1.050657257E-1
2.359192201E0,-2.274795294E0,-3.845283389E-1,1.380514801E-1
2.368905170E0,-2.070772171E0,-3.197785318E-1,1.282779276E-1
2.378617357E0,-1.878966212E0,-1.817270666E-1,9.284878522E-2
2.388330326E0,-1.704263806E0,-4.734066129E-2,3.909422457E-2
2.398044180E0,-1.604084849E0,2.107422985E-2,-2.076880634E-2
2.407757097E0,-1.617523551E0,6.505523622E-2,-5.741964281E-2
2.417469284E0,-1.703042150E0,5.283828825E-2,-7.696675509E-2
2.427182253E0,-1.805664539E0,-1.279724985E-1,-7.085828483E-2
2.436896107E0,-1.965706468E0,-3.539859951E-1,-2.076880634E-2
2.446609024E0,-2.152625799E0,-4.773771465E-1,6.963659078E-2
2.456321211E0,-2.289455414E0,-4.969242513E-1,1.808107942E-1
2.466034232E0,-2.363978863E0,-3.955236077E-1,2.944283783E-1
2.475748034E0,-2.383526087E0,-1.035386100E-1,3.787252903E-1
2.485461003E0,-2.357870340E0,2.959555089E-1,4.190412164E-1
2.495173191E0,-2.302894115E0,6.649072170E-1,4.043808877E-1
2.504886159E0,-2.219818830E0,8.066238165E-1,3.457395434E-1
2.514599961E0,-2.124526739E0,7.724163532E-1,2.614426315E-1
2.524312930E0,-2.090319395E0,7.785248160E-1,2.113531530E-1
2.534025118E0,-2.159955978E0,8.310576677E-1,2.394521236E-1
2.543738086E0,-2.311445951E0,8.322793841E-1,3.103103936E-1
2.553451941E0,-2.466601133E0,8.640434742E-1,3.628432751E-1
2.563164857E0,-2.508138895E0,9.923213720E-1,4.068242610E-1
2.572877045E0,-2.433615446E0,1.228108406E0,4.483618736E-1
2.582590014E0,-2.269908428E0,1.571404576E0,4.642439187E-1
2.592303868E0,-2.068328857E0,1.890266895E0,3.958290219E-1
2.602016784E0,-1.929055691E0,2.022209883E0,2.504473627E-1
2.611728972E0,-1.872857690E0,1.816965222E0,7.696675509E-2
2.621441993E0,-1.913173556E0,1.421136141E0,-6.230641901E-2
2.631155795E0,-1.968149900E0,1.107160687E0,-1.783674061E-1
2.640868764E0,-1.930277348E0,8.848122358E-1,-2.858765125E-1
2.650580951E0,-1.815438032E0,7.235485911E-1,-3.726168275E-1
2.660293920E0,-1.694490314E0,5.256340504E-1,-4.202629030E-1
2.670007722E0,-1.594311357E0,2.250972092E-1,-4.056025743E-1
2.679720691E0,-1.595533013E0,-1.133121699E-1,-3.347443044E-1
2.689432878E0,-1.696933627E0,-3.784198761E-1,-2.382304370E-1
2.699145847E0,-1.771457076E0,-4.773771465E-1,-1.172826737E-1
2.708859701E0,-1.759240150E0,-4.126273096E-1,2.565558441E-2
2.718572618E0,-1.700598717E0,-2.880144715E-1,1.856975704E-1
2.728284805E0,-1.655396104E0,-1.597365588E-1,3.249707520E-1
2.737997774E0,-1.648065925E0,-2.168507688E-2,4.117110670E-1
2.747711628E0,-1.676164865E0,1.664558798E-1,4.263713956E-1
2.757424545E0,-1.681051612E0,3.558185399E-1,3.946073353E-1
2.767136732E0,-1.661504507E0,4.230117202E-1,3.616215885E-1
2.776849753E0,-1.662726283E0,4.352286756E-1,3.457395434E-1
2.786563555E0,-1.615080118E0,3.790307343E-1,3.432961702E-1
2.796276472E0,-1.516122937E0,2.715215981E-1,3.176405728E-1
2.805988659E0,-1.446486354E0,1.298050433E-1,2.748812735E-1
2.815701680E0,-1.415943980E0,-1.169772521E-1,1.979145110E-1
2.825415482E0,-1.408613801E0,-4.089622498E-1,1.160609797E-1
2.835128451E0,-1.389066696E0,-5.922164321E-1,5.619794875E-2
2.844840639E0,-1.369519591E0,-5.384618640E-1,3.298575059E-2
2.854553607E0,-1.362189412E0,-3.869717419E-1,5.619794875E-2
2.864267461E0,-1.365854502E0,-2.916795611E-1,1.026223376E-1
2.873980378E0,-1.413500547E0,-3.527642787E-1,1.783674061E-1
2.883692566E0,-1.468476772E0,-4.431696832E-1,2.223484069E-1
2.893405534E0,-1.456259847E0,-5.030327439E-1,2.199050188E-1
2.903119389E0,-1.431825995E0,-5.616740584E-1,2.028012872E-1
2.912832305E0,-1.417165637E0,-5.494571328E-1,1.624853760E-1
2.922544493E0,-1.378071427E0,-4.737120569E-1,1.123958975E-1
2.932257461E0,-1.342642307E0,-4.590517282E-1,5.253286287E-2
2.941971316E0,-1.314390540E0,-5.286883116E-1,-8.551862091E-3
2.951684232E0,-1.304617047E0,-6.044333577E-1,-7.941014320E-2
2.961396420E0,-1.294843435E0,-6.667397618E-1,-1.600419879E-1
2.971109389E0,-1.297286868E0,-6.484143734E-1,-1.966928244E-1
2.980823243E0,-1.259414315E0,-5.445703268E-1,-1.979145110E-1
2.990536159E0,-1.153126955E0,-4.138490260E-1,-1.722589284E-1
3.000248399E0,-1.048061132E0,-3.429907262E-1,-1.185043678E-1
3.009961368E0,-9.283351302E-1,-2.709107697E-1,-1.148392856E-1
3.019675170E0,-8.110524416E-1,-2.159345001E-1,-1.111742035E-1
3.029388139E0,-6.913263798E-1,-1.524063945E-1,-1.136175916E-1
3.039100326E0,-5.923691392E-1,-7.910472155E-2,-1.331647038E-1
3.048813295E0,-4.995203316E-1,-7.910472155E-2,-1.624853760E-1
3.058527097E0,-4.408790171E-1,-6.566607952E-2,-2.235700935E-1
3.068240066E0,-3.565820754E-1,-1.047603041E-1,-2.345653474E-1
3.077952253E0,-2.478512824E-1,-5.711421743E-2,-2.284568697E-1
3.087665222E0,-1.488940120E-1,1.740914769E-2,-2.076880634E-1
3.097379024E0,-3.405473381E-2,1.188097894E-1,-1.820324808E-1
3.107091993E0,8.078455180E-2,2.360924631E-1,-1.710372269E-1
3.116804180E0,1.907370538E-1,2.971771955E-1,-2.052446753E-1
3.126517149E0,3.043546379E-1,3.008422852E-1,-2.712161839E-1
3.136231003E0,3.862081766E-1,3.142809272E-1,-3.371876776E-1
3.145943920E0,4.973823726E-1,3.655920923E-1,-4.007157981E-1
3.155656107E0,6.073349118E-1,3.973561525E-1,-4.556920528E-1
3.165369076E0,7.014053464E-1,4.010212123E-1,-4.923428893E-1
3.175082930E0,7.954758406E-1,4.022429287E-1,-5.008947253E-1
3.184795847E0,9.042066336E-1,4.132381678E-1,-4.923428893E-1
3.194508034E0,1.030041218E0,4.633276463E-1,-4.740174711E-1
3.204221055E0,1.133885264E0,5.170822144E-1,-4.581354558E-1
3.213934857E0,1.213295341E0,5.415160656E-1,-4.410317242E-1
3.223647774E0,1.287818789E0,5.390726924E-1,-4.117110670E-1
3.233359961E0,1.370893955E0,5.109737515E-1,-3.738385141E-1
3.243072982E0,1.440530539E0,4.902049303E-1,-3.151971996E-1
3.252786784E0,1.483289838E0,4.511106908E-1,-2.382304370E-1
3.262499701E0,1.516275644E0,3.338280320E-1,-1.502684206E-1
3.272211941E0,1.565143347E0,2.018850148E-1,-5.986303091E-2
3.281924909E0,1.633558273E0,1.200314835E-1,1.954711229E-2
3.291638711E0,1.673874259E0,6.016845629E-2,6.719319522E-2
3.301351680E0,1.627449751E0,-6.810946763E-2,7.941014320E-2
3.311063868E0,1.548039675E0,-1.915006191E-1,7.207997888E-2
3.320776836E0,1.500393629E0,-2.440334857E-1,5.986303091E-2
3.330490691E0,1.516275644E0,-2.770192325E-1,6.108472496E-2
3.340203607E0,1.563921690E0,-3.539859951E-1,5.741964281E-2
3.349915795E0,1.620119691E0,-4.150707126E-1,4.275930673E-2
3.359628764E0,1.682426095E0,-4.077405334E-1,8.551862091E-3
3.369342618E0,1.748397589E0,-3.771981895E-1,1.221694518E-3
3.379055534E0,1.822920918E0,-3.869717419E-1,4.153761268E-2
3.388767722E0,1.901109338E0,-4.382829070E-1,1.209477559E-1
3.398480691E0,1.981741190E0,-4.541649222E-1,2.174616307E-1
3.408194545E0,2.075811625E0,-4.126273096E-1,2.980934680E-1
3.417907461E0,2.136896372E0,-3.490992188E-1,3.579564989E-1
3.427619649E0,2.141783237E0,-2.476985604E-1,3.848337829E-1
3.437332670E0,2.112462521E0,-1.805053651E-1,3.860554695E-1
3.447046472E0,2.099023819E0,-2.269297540E-1,3.836120665E-1
3.456759441E0,2.132009745E0,-3.124483824E-1,3.823903799E-1
3.466471628E0,2.218750000E0,-4.065188468E-1,3.567348123E-1
3.476184597E0,2.323815584E0,-4.578300118E-1,3.054236174E-1
3.485898451E0,2.414221048E0,-4.834856093E-1,2.443388999E-1
3.495611368E0,2.481414318E0,-4.920374751E-1,1.612636745E-1
3.505323555E0,2.525395393E0,-4.785988331E-1,7.696675509E-2
3.515036524E0,2.551050901E0,-4.272876680E-1,4.886778072E-3
3.524750378E0,2.548607588E0,-3.539859951E-1,-1.710372418E-2
3.534463295E0,2.541277409E0,-2.880144715E-1,4.886778072E-3
3.544175482E0,2.566932917E0,-2.672456801E-1,4.520269856E-2
3.553888503E0,2.599918604E0,-2.440334857E-1,8.307522535E-2
3.563602305E0,2.618244171E0,-2.415900975E-1,8.918370306E-2
3.573315274E0,2.632904291E0,-2.660239935E-1,4.642439261E-2
3.583027461E0,2.656116486E0,-2.770192325E-1,-1.343864016E-2
3.592740430E0,2.695210934E0,-2.672456801E-1,-6.841489673E-2
3.602454284E0,2.707427740E0,-3.002314270E-1,-1.099525094E-1
3.612167201E0,2.647564650E0,-3.906368315E-1,-1.294996142E-1
3.621879389E0,2.566932917E0,-5.201364160E-1,-1.527118087E-1
3.631592409E0,2.500961304E0,-6.508577466E-1,-1.966928244E-1
3.641306211E0,2.471640825E0,-6.899519563E-1,-2.247917950E-1
3.651019128E0,2.510735035E0,-5.812211633E-1,-2.345653474E-1
3.660731368E0,2.579149723E0,-3.881934285E-1,-2.150182426E-1
3.670444336E0,2.604805470E0,-2.819060087E-1,-1.795890927E-1
3.680158191E0,2.547385693E0,-2.562504113E-1,-1.966928244E-1
3.689871107E0,2.444763422E0,-3.197785318E-1,-2.883199155E-1
3.699583295E0,2.333589315E0,-3.564293683E-1,-3.994941115E-1
3.709296264E0,2.239518881E0,-3.075616062E-1,-4.581354558E-1
3.719010118E0,2.154000044E0,-3.087832928E-1,-4.446968138E-1
3.728723034E0,2.069703341E0,-3.295520842E-1,-3.701734245E-1
3.738435274E0,2.003731728E0,-3.002314270E-1,-2.907632887E-1
3.748148243E0,1.954863906E0,-2.159345001E-1,-2.614426315E-1
3.757862097E0,1.931651711E0,-1.145338640E-1,-2.846548259E-1
3.767575014E0,1.905996203E0,-3.145863488E-2,-3.567348123E-1
3.777287201E0,1.822920918E0,4.428642616E-2,-4.202629030E-1
3.787000222E0,1.683647752E0,1.420219839E-1,-4.459185004E-1
3.796714024E0,1.539487839E0,2.409792393E-1,-4.361449480E-1
3.806426941E0,1.422205091E0,3.081724346E-1,-3.909422457E-1
3.816139180E0,1.297592282E0,3.814741075E-1,-3.042019308E-1
3.825852149E0,1.153432369E0,4.364503622E-1,-2.101314515E-1
3.835566003E0,1.030041218E0,4.828747511E-1,-1.466033459E-1
3.845278920E0,9.078717232E-1,5.903838873E-1,-1.038440317E-1
3.854991107E0,7.844805717E-1,6.563553810E-1,-6.230641901E-2
3.864704128E0,6.928535104E-1,5.989357233E-1,-3.420744836E-2
3.874417930E0,6.183301210E-1,5.390726924E-1,-1.832541823E-2
3.884130899E0,5.596888065E-1,5.292991400E-1,2.443389036E-3
3.893843086E0,5.438067913E-1,5.354076028E-1,1.099525020E-2
3.903556055E0,5.731274486E-1,5.170822144E-1,-4.886778072E-3
3.913269909E0,6.122216582E-1,4.596625566E-1,-4.642439261E-2
3.922982826E0,6.195518374E-1,3.863608837E-1,-1.038440317E-1
3.932695066E0,5.719057322E-1,3.240544796E-1,-1.478250325E-1
3.942408034E0,4.790569544E-1,2.483094037E-1,-1.673721522E-1
3.952121889E0,3.617742956E-1,1.456870735E-1,-1.600419879E-1
3.961834805E0,2.432699203E-1,2.596100792E-2,-1.368297935E-1
3.971546993E0,1.333174109E-1,-1.120904684E-1,-1.148392856E-1
3.981260014E0,4.779879749E-2,-2.648022771E-1,-9.040539712E-2
3.990973868E0,-1.328592747E-2,-3.735330999E-1,-5.864133686E-2
4.000686784E0,-4.627167806E-2,-4.199574888E-1,-2.076880634E-2
4.010398972E0,-4.382828996E-2,-4.431696832E-1,1.710372418E-2
4.020111993E0,-3.161134571E-2,-4.578300118E-1,4.031591862E-2
4.029825795E0,-1.695101149E-2,-4.419479966E-1,5.008947477E-2
4.039538764E0,-1.450762246E-2,-3.539859951E-1,6.597150117E-2
4.049250951E0,-1.817270555E-2,-2.281514555E-1,7.574506104E-2
4.058963920E0,-3.038965166E-2,-1.206423342E-1,6.841489673E-2
4.068677774E0,-5.482354015E-2,-5.833591148E-2,4.764608666E-2
4.078390743E0,-8.414421231E-2,-2.535016090E-2,3.054236248E-2
4.088102930E0,-1.122431830E-1,3.695625812E-2,1.466033421E-2
4.097815899E0,-1.403421611E-1,1.310267299E-1,6.108472589E-3
4.107529753E0,-1.586675793E-1,2.312056869E-1,8.551862091E-3
4.117242670E0,-1.696628332E-1,3.093941510E-1,2.199050039E-2
4.126954909E0,-1.745496094E-1,3.203893900E-1,2.809897438E-2
4.136667878E0,-1.769929975E-1,2.898470163E-1,2.321219631E-2
4.146381732E0,-1.782146841E-1,2.544178963E-1,1.710372418E-2
4.156094649E0,-1.855448484E-1,2.226538211E-1,1.832541823E-2
4.165806889E0,-2.063136548E-1,1.737860441E-1,2.321219631E-2
4.175519857E0,-2.454078794E-1,1.224748790E-1,2.443389036E-2
4.185233711E0,-3.003841341E-1,1.102579311E-1,1.466033421E-2
4.194946628E0,-3.651339412E-1,1.102579311E-1,-2.443389036E-3
4.204658868E0,-4.323271513E-1,7.727217674E-2,-1.588202827E-2
4.214371836E0,-4.934118688E-1,2.718270384E-2,-2.809897438E-2
4.224085691E0,-5.410579443E-1,-4.611896724E-2,-4.886778072E-2
4.233798607E0,-5.532749295E-1,-1.890572309E-1,-7.818844914E-2
4.243510795E0,-5.496098399E-1,-3.894151151E-1,-1.087308154E-1
4.253223816E0,-5.716003180E-1,-6.044333577E-1,-1.319430023E-1
4.262937670E0,-6.461237073E-1,-8.304468393E-1,-1.246128380E-1
4.272650586E0,-8.098307252E-1,-1.094332814E0,-8.674030751E-2
4.282362774E0,-1.074938416E0,-1.369214177E0,-3.054236248E-2
4.292075795E0,-1.354859233E0,-1.564685225E0,3.909422457E-2
4.301789649E0,-1.578429341E0,-1.580567241E0,9.895725548E-2
4.311502566E0,-1.700598717E0,-1.446180940E0,1.246128380E-1
4.321214753E0,-1.709150672E0,-1.249488115E0,1.185043678E-1
4.330927774E0,-1.670056462E0,-1.032026410E0,1.062874198E-1
4.340641628E0,-1.666391373E0,-8.487722874E-1,8.674030751E-2
4.350354545E0,-1.736027956E0,-7.400414348E-1,9.407047927E-2
4.360066732E0,-1.869192600E0,-6.911736727E-1,1.588202864E-1
4.369779753E0,-2.012130976E0,-6.642963886E-1,2.516690791E-1
4.379493555E0,-2.106201410E0,-6.642963886E-1,3.506263196E-1
4.389206524E0,-2.157512426E0,-6.423059106E-1,4.214846194E-1
4.398918711E0,-2.223484039E0,-5.628957748E-1,4.373666346E-1
4.408631732E0,-2.354205370E0,-4.541649222E-1,4.239279926E-1
4.418345534E0,-2.542346239E0,-3.161134422E-1,4.227063060E-1
4.428058503E0,-2.717048645E0,-1.316375881E-1,4.727957845E-1
4.437770691E0,-2.813562393E0,1.004843712E-1,5.815265775E-1
4.447483711E0,-2.773246527E0,3.680354655E-1,6.927008033E-1
4.457197566E0,-2.593657494E0,7.162184119E-1,7.415685654E-1
4.466910482E0,-2.349318504E0,1.093721986E0,7.354601026E-1
4.476622670E0,-2.130635262E0,1.272089362E0,6.804838181E-1
4.486335691E0,-2.021904469E0,1.241547108E0,6.035171151E-1
4.496049545E0,-2.065885544E0,1.193900943E0,5.179984570E-1
4.505762461E0,-2.195384979E0,1.174353838E0,4.288147688E-1
4.515474649E0,-2.287012100E0,1.146254897E0,3.029802442E-1
4.525187670E0,-2.266243219E0,1.119377613E0,1.551551968E-1
4.534901524E0,-2.223484039E0,1.112047434E0,8.429691941E-2
4.544614441E0,-2.232035875E0,1.119377613E0,9.651386738E-2
4.554326628E0,-2.277238607E0,1.157250166E0,1.404948682E-1
4.564039649E0,-2.293120623E0,1.181684017E0,1.795890927E-1
4.573753503E0,-2.229592562E0,1.147476554E0,1.856975704E-1
4.583466420E0,-2.177059650E0,1.061957955E0,1.478250325E-1
4.593178607E0,-2.203936815E0,9.434536099E-1,1.123958975E-1
4.602891628E0,-2.241809368E0,7.980719209E-1,1.111742035E-1
4.612605482E0,-2.212488890E0,6.575770974E-1,1.441599578E-1
4.622318399E0,-2.135522127E0,6.233696342E-1,2.174616307E-1
4.632030639E0,-2.051225185E0,7.540909648E-1,2.919849753E-1
4.641743607E0,-1.947381020E0,8.396095634E-1,3.323009014E-1
4.651457461E0,-1.831320047E0,7.748597264E-1,3.371876776E-1
4.661170378E0,-1.755575061E0,6.930062175E-1,3.127537966E-1
4.670882618E0,-1.718924165E0,5.830537081E-1,2.406738251E-1
4.680595586E0,-1.679829955E0,3.228327632E-1,1.136175916E-1
4.690309441E0,-1.684716702E0,1.130067464E-2,-2.199050039E-2
4.700022357E0,-1.758018374E0,-2.977880239E-1,-5.619794875E-2
4.709734597E0,-1.837428570E0,-4.578300118E-1,1.832541823E-2
4.719447566E0,-1.848423839E0,-3.796415627E-1,1.661504507E-1
4.729161420E0,-1.809329629E0,-9.132166207E-2,3.652866483E-1
4.738874389E0,-1.734806180E0,2.935121059E-1,5.986303091E-1
4.748586576E0,-1.644400835E0,6.258130074E-1,7.794411182E-1
4.758299545E0,-1.608971715E0,7.675296068E-1,8.454126120E-1
4.768013399E0,-1.661504507E0,7.015580535E-1,8.283088803E-1
4.777726368E0,-1.726254344E0,5.842754245E-1,7.525638342E-1
4.787438555E0,-1.721367598E0,3.961344361E-1,6.218425035E-1
4.797151576E0,-1.682273388E0,1.420219839E-1,4.263713956E-1
4.806865378E0,-1.661504507E0,-9.254335612E-2,2.382304370E-1
4.816578347E0,-1.687160134E0,-2.684673667E-1,1.062874198E-1
4.826290534E0,-1.738471270E0,-3.698680103E-1,4.275930673E-2
4.836003555E0,-1.777565479E0,-3.796415627E-1,2.565558441E-2
4.845717357E0,-1.787339091E0,-3.393256664E-1,3.665083554E-3
4.855430326E0,-1.784895658E0,-4.004103839E-1,7.330167107E-3
4.865142514E0,-1.758018374E0,-4.529432356E-1,2.565558441E-2
4.874855534E0,-1.710372329E0,-5.274665952E-1,8.918370306E-2
4.884569336E0,-1.694490314E0,-5.616740584E-1,1.050657257E-1
4.894282305E0,-1.699377060E0,-6.276455522E-1,9.040539712E-2
4.903994493E0,-1.703042150E0,-6.398624778E-1,1.466033421E-2
4.913707514E0,-1.743358135E0,-6.667397618E-1,-4.520269856E-2
4.923421316E0,-1.674943209E0,-6.765133142E-1,-1.466033459E-1
4.933134284E0,-1.632183909E0,-6.545228362E-1,-2.260134816E-1
4.942846472E0,-1.544221878E0,-5.531222224E-1,-3.042019308E-1
4.952559493E0,-1.483137131E0,-5.347967744E-1,-2.418955117E-1
4.962273347E0,-1.437934399E0,-4.663818777E-1,-1.575985998E-1
4.971986264E0,-1.304617047E0,-3.674246371E-1,-9.651386738E-2
4.981698503E0,-1.132358074E0,-2.073826492E-1,-6.719319522E-2
4.991411472E0,-9.930849075E-1,-1.120904684E-1,-5.131116882E-2
5.001125326E0,-8.892409205E-1,-2.779355086E-2,-1.087308154E-1
5.010838243E0,-7.756233215E-1,-8.246437646E-3,-1.624853760E-1
5.020550482E0,-6.986565590E-1,-2.412846684E-2,-1.905843467E-1
5.030263451E0,-6.253548861E-1,-9.743013978E-2,-2.028012872E-1
5.039977305E0,-5.288410187E-1,-1.194206402E-1,-2.223484069E-1
5.049690222E0,-4.518742561E-1,-1.829487532E-1,-1.856975704E-1
5.059402461E0,-3.529170156E-1,-1.731752008E-1,-1.136175916E-1
5.069115430E0,-2.405211031E-1,-9.743013978E-2,-4.886778072E-3
5.078829284E0,-1.159082651E-1,-2.046338283E-2,1.001789495E-1
5.088542253E0,-8.399149403E-3,5.039490014E-2,1.453816444E-1
5.098254441E0,1.027750522E-1,9.193251282E-2,1.453816444E-1
5.107967461E0,1.992889196E-1,1.102579311E-1,1.307213157E-1
5.117681264E0,2.848075330E-1,1.456870735E-1,9.773556143E-2
5.127394232E0,3.715478480E-1,1.896680743E-1,5.008947477E-2
5.137106420E0,4.766135812E-1,2.116585821E-1,1.466033421E-2
5.146819441E0,5.829010010E-1,2.373141646E-1,4.886778072E-3
5.156533243E0,7.001836896E-1,3.313846290E-1,1.221694518E-3
5.166246211E0,8.150229454E-1,4.413371384E-1,-2.932066843E-2
5.175958399E0,9.200887084E-1,5.244123936E-1,-8.429691941E-2
5.185671420E0,1.038593054E0,5.806103349E-1,-1.343863904E-1
5.195385274E0,1.154654026E0,6.600204706E-1,-1.869192570E-1
5.205098191E0,1.263384819E0,7.027797699E-1,-2.577775419E-1
5.214810430E0,1.351346850E0,7.101099491E-1,-3.164188862E-1
5.224523399E0,1.433200359E0,6.612421870E-1,-3.567348123E-1
5.234237253E0,1.515053868E0,5.659499764E-1,-3.457395434E-1
5.243950170E0,1.592020631E0,4.205683470E-1,-3.139754832E-1
5.253662409E0,1.662878990E0,2.825168669E-1,-2.944283783E-1
5.263375378E0,1.736180663E0,1.371352077E-1,-2.883199155E-1
5.273089232E0,1.753284335E0,-5.803049076E-3,-2.577775419E-1
5.282802149E0,1.743510842E0,-1.695101112E-1,-2.015796006E-1
5.292514389E0,1.760614514E0,-3.967452943E-1,-1.282779276E-1
5.302227357E0,1.774053097E0,-5.861079693E-1,-7.452336699E-2
5.311941211E0,1.792378545E0,-7.327113152E-1,-2.199050039E-2
5.321654180E0,1.820477486E0,-8.915315866E-1,3.909422457E-2
5.331366368E0,1.840024710E0,-1.022252917E0,8.796200156E-2
5.341079336E0,1.870566964E0,-1.027139664E0,1.062874198E-1
5.350793191E0,1.915769696E0,-9.733850956E-1,1.246128380E-1
5.360506159E0,1.974411011E0,-8.475505710E-1,1.539335102E-1
5.370218347E0,2.030608892E0,-6.044333577E-1,1.759240031E-1
5.379931368E0,2.062373161E0,-3.747547865E-1,1.514901221E-1
5.389645170E0,2.078255177E0,-3.271087110E-1,8.429691941E-2
5.399358139E0,2.059929609E0,-3.723114133E-1,1.832541823E-2
5.409070326E0,2.040382624E0,-3.857500553E-1,-3.420744836E-2
5.418783347E0,2.061151266E0,-3.820849657E-1,-6.841489673E-2
5.428497149E0,2.139339924E0,-4.260659516E-1,-6.597150117E-2
5.438210118E0,2.228523493E0,-4.712686539E-1,-1.588202827E-2
5.447922305E0,2.317707300E0,-4.700469673E-1,2.809897438E-2
5.457635326E0,2.420329571E0,-4.456130862E-1,3.909422457E-2
5.467349180E0,2.542499065E0,-4.052971601E-1,-4.886778072E-3
5.477062097E0,2.665890217E0,-3.454341292E-1,-1.123958975E-1
5.486774336E0,2.725753069E0,-2.501419485E-1,-1.966928244E-1
5.496487305E0,2.714757919E0,-1.646233350E-1,-2.174616307E-1
5.506201159E0,2.643899679E0,-1.133121699E-1,-2.113531530E-1
5.515914076E0,2.533947229E0,-1.279724985E-1,-1.942494214E-1
5.525626316E0,2.427659750E0,-1.939440072E-1,-1.966928244E-1
5.535339284E0,2.362909794E0,-2.562504113E-1,-2.516690791E-1
5.545053139E0,2.383678675E0,-2.794626355E-1,-3.115321100E-1
5.554766107E0,2.482635975E0,-2.770192325E-1,-3.445178568E-1
5.564478295E0,2.597475290E0,-2.428117841E-1,-3.665083647E-1
5.574191264E0,2.682993889E0,-1.682884246E-1,-3.897205591E-1
5.583905118E0,2.723309755E0,-7.055285573E-2,-4.324798584E-1
5.593618086E0,2.726974964E0,6.994201243E-2,-5.082249045E-1
5.603330274E0,2.684215546E0,2.507528067E-1,-5.656445622E-1
5.613043243E0,2.599918604E0,3.387148082E-1,-5.094466209E-1
5.622757097E0,2.509513140E0,2.849602401E-1,-3.665083647E-1
5.632470066E0,2.459423780E0,9.071081877E-2,-1.918060333E-1
5.642182253E0,2.467975616E0,-1.670667231E-1,-1.832541823E-2
5.651895274E0,2.553494215E0,-4.272876680E-1,7.452336699E-2
5.661609076E0,2.690324068E0,-6.056550741E-1,5.741964281E-2
5.671322045E0,2.814936876E0,-6.264238358E-1,-4.398100078E-2
5.681034232E0,2.861361265E0,-5.506787896E-1,-1.930277348E-1
5.690747253E0,2.814936876E0,-4.480564594E-1,-3.701734245E-1
5.700461055E0,2.692767382E0,-4.407263100E-1,-5.644228458E-1
5.710174024E0,2.508291483E0,-5.238015056E-1,-7.354601026E-1
5.719886211E0,2.299381733E0,-5.543438792E-1,-8.173136115E-1
5.729599232E0,2.116127729E0,-4.810422063E-1,-7.892146707E-1
5.739313034E0,1.974411011E0,-4.321744442E-1,-6.817055345E-1
5.749026003E0,1.868123651E0,-4.883723855E-1,-5.790832043E-1
5.758738191E0,1.766723037E0,-5.885513425E-1,-5.192201734E-1
5.768451211E0,1.662878990E0,-6.569662094E-1,-4.825693369E-1
5.778165066E0,1.561478257E0,-6.936170459E-1,-4.459185004E-1
5.787877982E0,1.467407823E0,-6.887302995E-1,-3.860554695E-1
5.797590170E0,1.366007209E0,-6.129852533E-1,-3.029802442E-1
5.807303191E0,1.237729311E0,-4.847072959E-1,-2.028012872E-1
5.817017045E0,1.104564548E0,-3.698680103E-1,-1.136175916E-1
5.826729961E0,9.970554113E-1,-2.916795611E-1,-4.031591862E-2
5.836442149E0,8.993198872E-1,-2.464768738E-1,3.176405653E-2
5.846155170E0,8.089144826E-1,-1.988307834E-1,1.026223376E-1
5.855869024E0,7.453863621E-1,-1.010952219E-1,1.637070626E-1
5.865581941E0,7.136223316E-1,7.482878864E-2,2.028012872E-1
5.875294180E0,6.965186000E-1,3.252761662E-1,1.795890927E-1
5.885007149E0,6.806365848E-1,5.916055441E-1,8.429691941E-2
5.894721003E0,6.586460471E-1,8.017370105E-1,-3.909422457E-2
5.904433920E0,6.232169271E-1,9.312366247E-1,-1.649287641E-1
5.914146159E0,5.694623590E-1,1.004538298E0,-2.761029601E-1
5.923859128E0,4.961606860E-1,1.031415582E0,-3.384093940E-1
5.933572982E0,4.069769979E-1,9.703308940E-1,-3.298575282E-1
5.943285899E0,3.153499067E-1,8.041804433E-1,-2.712161839E-1
5.952998139E0,2.139492482E-1,5.647283196E-1,-1.844758689E-1
5.962711107E0,1.076618284E-1,2.922904193E-1,-9.407047927E-2
5.972424961E0,1.236965694E-2,1.863084175E-2,-3.665083554E-3
5.982137878E0,-5.971032009E-2,-2.281514555E-1,7.696675509E-2
5.991850118E0,-1.183516532E-1,-3.747547865E-1,9.895725548E-2
6.001563086E0,-1.623326540E-1,-4.346178174E-1,6.230641901E-2
6.011276941E0,-1.708845198E-1,-4.077405334E-1,-2.443389036E-3
6.020989857E0,-1.342336833E-1,-2.770192325E-1,-6.474980712E-2
6.030702097E0,-4.749337584E-2,-1.035386100E-1,-9.651386738E-2
6.040415066E0,5.146388337E-2,5.283828825E-2,-9.407047927E-2
6.050128920E0,1.137702987E-1,1.737860441E-1,-7.696675509E-2
6.059841836E0,1.272089481E-1,2.189887464E-1,-6.230641901E-2
6.069554076E0,9.300149232E-2,1.994416267E-1,-4.398100078E-2
6.079267045E0,2.580829710E-2,1.603474021E-1,-1.588202827E-2
6.088980899E0,-3.283303976E-2,1.200314835E-1,1.466033421E-2
6.098693816E0,-7.803573459E-2,9.315420687E-2,3.787253052E-2
6.108406055E0,-1.122431830E-1,8.338065445E-2,5.375456065E-2
6.118119024E0,-1.464506239E-1,9.926267713E-2,7.207997888E-2
6.127832878E0,-1.721062213E-1,1.432436854E-1,8.307522535E-2
6.137545795E0,-1.867665499E-1,2.422009408E-1,8.307522535E-2
6.147258034E0,-1.965401024E-1,3.741439581E-1,7.207997888E-2
6.156971003E0,-2.099787444E-1,4.743228853E-1,5.741964281E-2
6.166684857E0,-2.356343269E-1,4.877615273E-1,3.787253052E-2
6.176397774E0,-2.735068500E-1,4.303418994E-1,1.588202827E-2
6.186110014E0,-3.028275371E-1,3.313846290E-1,6.108472589E-3
6.195822982E0,-3.284831047E-1,1.835595965E-1,8.551862091E-3
6.205536836E0,-4.078932703E-1,2.962609194E-2,2.199050039E-2
6.215249753E0,-5.618267655E-1,-1.084253863E-1,4.886778072E-2
6.224961993E0,-7.609629631E-1,-2.452551723E-1,7.452336699E-2
6.234674961E0,-9.698727131E-1,-3.319954872E-1,8.918370306E-2
6.244388816E0,-1.150683522E0,-3.295520842E-1,9.529217333E-2
6.254101784E0,-1.278961420E0,-2.367033064E-1,9.407047927E-2
6.263813972E0,-1.363411069E0,-7.910472155E-2,7.818844914E-2
6.273526941E0,-1.413500547E0,6.994201243E-2,5.864133686E-2
6.283240795E0,-1.466033459E0,1.456870735E-1,4.275930673E-2
6.292953764E0,-1.563768983E0,1.127013192E-1,5.253286287E-2
6.302665951E0,-1.715259075E0,-5.344913527E-2,7.696675509E-2
6.312378972E0,-1.878966212E0,-3.576510847E-1,7.941014320E-2
6.322092774E0,-1.968149900E0,-6.801784039E-1,7.941014320E-2
6.331805743E0,-1.951046109E0,-7.950177193E-1,9.529217333E-2
6.341517930E0,-1.872857690E0,-6.936170459E-1,1.111742035E-1
6.351230951E0,-1.773900390E0,-5.616740584E-1,9.284878522E-2
6.360944753E0,-1.704263806E0,-4.895940721E-1,2.443389036E-2
6.370657722E0,-1.694490314E0,-4.627167881E-1,-7.818844914E-2
6.380369909E0,-1.723810911E0,-4.382829070E-1,-1.856975704E-1
6.390082930E0,-1.819103122E0,-3.490992188E-1,-2.834331393E-1
6.399796732E0,-1.982810259E0,-2.012741715E-1,-3.298575282E-1
6.409509701E0,-2.147738934E0,-1.401894391E-1,-2.785463631E-1
6.419221889E0,-2.305337667E0,-2.147128135E-1,-1.575985998E-1
6.428934909E0,-2.493478537E0,-3.613161445E-1,-9.773556143E-3
6.438648764E0,-2.723157167E0,-4.957025647E-1,1.575985998E-1
6.448361680E0,-2.884420872E0,-5.506787896E-1,3.677300513E-1
6.458073920E0,-2.892972708E0,-4.370612204E-1,6.242858768E-1
6.467786889E0,-2.800123930E0,-1.218640283E-1,8.588512540E-1
6.477500743E0,-2.684062958E0,3.264978528E-1,1.014006495E0
6.487213659E0,-2.611982822E0,8.212841153E-1,1.039662004E0
6.496925899E0,-2.572888613E0,1.146254897E0,9.016105533E-1
6.506638868E0,-2.546011448E0,1.198787689E0,6.780404449E-1
6.516352722E0,-2.593657494E0,1.146254897E0,4.691306949E-1
6.526065691E0,-2.692614794E0,1.149919987E0,3.005368412E-1
6.535777878E0,-2.724378824E0,1.231773496E0,1.783674061E-1
6.545490899E0,-2.609539509E0,1.405254126E0,1.185043678E-1
6.555204701E0,-2.324884653E0,1.622715712E0,1.527118087E-1
6.564917670E0,-2.006022453E0,1.737555027E0,2.919849753E-1
6.574629857E0,-1.767791986E0,1.759545565E0,4.471401870E-1
6.584342878E0,-1.604084849E0,1.719229579E0,5.558710098E-1
6.594056732E0,-1.477028728E0,1.595838428E0,5.656445622E-1
6.603769649E0,-1.364632726E0,1.393037200E0,4.349232614E-1
6.613481889E0,-1.277739763E0,1.110825777E0,2.015796006E-1
6.623194857E0,-1.267966151E0,9.092461467E-1,-7.452336699E-2
6.632908711E0,-1.335159421E0,7.748597264E-1,-3.396310806E-1
6.642621628E0,-1.435491085E0,5.024218559E-1,-5.338805318E-1
6.652333868E0,-1.568655729E0,1.322484314E-1,-6.230642200E-1
6.662046836E0,-1.753131628E0,-2.855710983E-1,-5.668662786E-1
6.671760691E0,-1.975480080E0,-6.997255087E-1,-3.860554695E-1
6.681473659E0,-2.118418217E0,-8.854231238E-1,-2.162399292E-1
6.691185847E0,-2.129413605E0,-9.892671108E-1,-1.466033421E-2
6.700898868E0,-2.039008141E0,-9.831586480E-1,2.333436459E-1
6.710612722E0,-1.861862421E0,-6.887302995E-1,4.398100376E-1
6.720325639E0,-1.689603567E0,-1.682884246E-1,5.851916671E-1
6.730037878E0,-1.579650998E0,2.959555089E-1,6.633801460E-1
6.739750847E0,-1.558882236E0,6.294780970E-1,6.780404449E-1
6.749464701E0,-1.547886968E0,8.225058317E-1,6.646018028E-1
6.759177670E0,-1.536891699E0,8.958075047E-1,6.670452356E-1
6.768889857E0,-1.567434072E0,9.263498783E-1,6.951441765E-1
6.778602878E0,-1.619966984E0,8.078454733E-1,7.281299233E-1
6.788316680E0,-1.770235300E0,4.474456310E-1,8.050966859E-1
6.798029649E0,-1.885074615E0,9.071081877E-2,8.637380004E-1
6.807741889E0,-1.823989868E0,5.650337040E-2,8.331956863E-1
6.817454857E0,-1.676164865E0,9.804098308E-2,7.171346545E-1
6.827168711E0,-1.588202834E0,-2.168507688E-2,5.558710098E-1
6.836881628E0,-1.622410297E0,-1.927223057E-1,4.104893506E-1
6.846593868E0,-1.616301894E0,-3.271087110E-1,3.115321100E-1
6.856306889E0,-1.561325550E0,-2.354816198E-1,2.284568697E-1
6.866020691E0,-1.535670042E0,-2.867927849E-1,2.467822880E-1
6.875733659E0,-1.532004952E0,-3.210002482E-1,3.335226178E-1
6.885445847E0,-1.510014415E0,-1.963873953E-1,4.031592011E-1
6.895158868E0,-1.444042921E0,-1.780619770E-1,4.031592011E-1
6.904872722E0,-1.463590026E0,-1.499630064E-1,3.005368412E-1
6.914585639E0,-1.444042921E0,-1.243074164E-1,1.185043678E-1
6.924297878E0,-1.376849771E0,-1.133121699E-1,-5.375456065E-2
6.934010899E0,-1.354859233E0,-1.621799469E-1,-1.966928244E-1
6.943724701E0,-1.324164152E0,-2.379250079E-1,-3.078670204E-1
6.953437670E0,-1.276518106E0,-2.757975459E-1,-4.324798584E-1
6.963149857E0,-1.219098449E0,-2.709107697E-1,-5.412106514E-1
6.972862878E0,-1.134801507E0,-1.951656938E-1,-6.474980712E-1
6.982576732E0,-1.070051670E0,-1.340809762E-1,-7.488987446E-1
6.992289649E0,-1.007745266E0,-1.426328421E-1,-7.415685654E-1
7.002001889E0,-8.648070097E-1,-2.779355086E-2,-8.087617755E-1
7.011714909E0,-7.707365155E-1,-6.200099736E-2,-7.989882231E-1
7.021428711E0,-7.023216486E-1,-8.399149776E-2,-7.256865501E-1
7.031141680E0,-5.813738704E-1,-3.268032894E-2,-6.988092661E-1
7.040853868E0,-4.530959427E-1,-9.468132630E-3,-6.560499668E-1
7.050566889E0,-3.639122546E-1,-4.978405312E-2,-5.094466209E-1
7.060280743E0,-2.564031482E-1,7.635590620E-3,-4.190412164E-1
7.069993659E0,-1.427855492E-1,6.627693027E-2,-3.396310806E-1
7.079705899E0,-4.993676394E-2,1.127013192E-1,-2.834331393E-1
7.089418920E0,3.924693540E-2,1.395785958E-1,-2.577775419E-1
7.099132774E0,1.272089481E-1,1.676775664E-1,-2.260134816E-1
7.108845691E0,2.176143378E-1,1.982199401E-1,-1.734806150E-1
7.118557930E0,3.410054743E-1,2.189887464E-1,-1.282779276E-1
7.128270899E0,4.619532526E-1,2.263189107E-1,-1.062874198E-1
7.137984753E0,5.853443742E-1,2.544178963E-1,-1.075091213E-1
7.147697722E0,7.111788988E-1,3.362714052E-1,-1.233911440E-1
7.157409909E0,8.382351398E-1,4.547757804E-1,-1.392731816E-1
7.167122930E0,9.628480077E-1,5.366293192E-1,-1.343863904E-1
7.176836784E0,1.061805248E0,5.402944088E-1,-1.026223376E-1
7.186549701E0,1.139993668E0,5.036435723E-1,-4.886778072E-2
7.196261941E0,1.205965161E0,4.572191834E-1,2.321219631E-2
7.205974961E0,1.268271565E0,4.230117202E-1,6.352811307E-2
7.215688764E0,1.315917730E0,4.230117202E-1,5.619794875E-2
7.225401732E0,1.350125194E0,4.107947946E-1,4.764608666E-2
7.235113972E0,1.379445791E0,3.081724346E-1,5.131116882E-2
7.244826941E0,1.403879762E0,1.591257155E-1,8.551861346E-2
7.254540795E0,1.473516345E0,4.672981426E-2,1.038440317E-1
7.264253764E0,1.555369854E0,1.527118147E-3,9.040539712E-2
7.273965951E0,1.583468795E0,-2.779355086E-2,5.375456065E-2
7.283678972E0,1.546818018E0,-1.072036922E-1,-1.221694518E-3
7.293392826E0,1.477181435E0,-1.719534993E-1,-6.352811307E-2
7.303105743E0,1.474738002E0,-2.073826492E-1,-9.651386738E-2
7.312817982E0,1.519940734E0,-2.037175596E-1,-9.895725548E-2
7.322530951E0,1.549261332E0,-2.195995897E-1,-8.307522535E-2
7.332244805E0,1.565143347E0,-2.342599183E-1,-5.008947477E-2
7.341957774E0,1.599350810E0,-1.805053651E-1,-7.330167107E-3
7.351669961E0,1.653105378E0,-1.255291104E-1,3.665083647E-2
7.361382982E0,1.722741961E0,-1.572931707E-1,1.038440317E-1
7.371096836E0,1.803373814E0,-1.878355294E-1,1.685938388E-1
7.380809805E0,1.841246367E0,-1.963873953E-1,2.052446753E-1
7.390521993E0,1.857128382E0,-2.428117841E-1,2.028012872E-1
7.400235014E0,1.835137844E0,-3.429907262E-1,1.404948682E-1
7.409948816E0,1.803373814E0,-4.920374751E-1,2.199050039E-2
7.419661784E0,1.819255829E0,-6.386408210E-1,-9.040539712E-2
7.429374024E0,1.873010397E0,-7.046123147E-1,-1.429382563E-1
7.439086993E0,1.937760234E0,-7.363763452E-1,-1.111742035E-1
7.448800847E0,2.007396698E0,-7.718055248E-1,1.221694518E-2
7.458513816E0,2.055042982E0,-7.473716140E-1,1.563768983E-1
7.468226003E0,2.088028669E0,-7.058340311E-1,2.553341687E-1
7.477939024E0,2.127122879E0,-7.156075835E-1,2.822114229E-1
7.487652878E0,2.201646328E0,-7.534800768E-1,2.455606014E-1
7.497365795E0,2.298160076E0,-7.595885396E-1,1.490467340E-1
7.507078034E0,2.358023167E0,-7.058340311E-1,2.932066843E-2
7.516791055E0,2.372683525E0,-6.814001203E-1,-9.162709117E-2
7.526504857E0,2.353136301E0,-7.204943299E-1,-1.612636745E-1
7.536217826E0,2.359244823E0,-6.948387623E-1,-1.466033459E-1
7.545930014E0,2.450871944E0,-5.836645365E-1,-9.895725548E-2
7.555643034E0,2.563267708E0,-4.114056230E-1,-8.307522535E-2
7.565356889E0,2.640234470E0,-2.379250079E-1,-1.331647038E-1
7.575069857E0,2.682993889E0,-1.634016484E-1,-2.589992285E-1
7.584782045E0,2.669555187E0,-1.328592747E-1,-3.884988427E-1
7.594495066E0,2.641456366E0,-6.810946763E-2,-4.019374847E-1
7.604208920E0,2.625574112E0,1.618745178E-2,-3.249707520E-1
7.613921836E0,2.591366768E0,8.093725890E-2,-2.211267054E-1
7.623634076E0,2.536390543E0,1.102579311E-1,-9.162709117E-2
7.633347045E0,2.493631124E0,4.306473210E-2,1.588202827E-2
7.643060899E0,2.493631124E0,-1.511846930E-1,5.741964281E-2
7.652773868E0,2.552272558E0,-2.953446507E-1,-3.665083554E-3
7.662486055E0,2.630460978E0,-3.283303976E-1,-1.502684206E-1
7.672199076E0,2.693989038E0,-3.576510847E-1,-3.310792148E-1
7.681912930E0,2.724531412E0,-3.662029207E-1,-4.825693369E-1
7.691625847E0,2.704984426E0,-3.515425920E-1,-6.084038615E-1
7.701338086E0,2.596253633E0,-3.124483824E-1,-7.012526393E-1
7.711051107E0,2.438654900E0,-2.770192325E-1,-7.305732965E-1
7.720764909E0,2.277391195E0,-3.307738006E-1,-6.682668924E-1
7.730477878E0,2.067259789E0,-3.979669809E-1,-5.033381581E-1
7.740190118E0,1.846133113E0,-4.395045936E-1,-2.956500649E-1
7.749903086E0,1.683647752E0,-4.773771465E-1,-1.404948682E-1
7.759616941E0,1.601794243E0,-4.541649222E-1,-1.099525094E-1
7.769329909E0,1.571251869E0,-3.576510847E-1,-1.771457046E-1
7.779042097E0,1.538266063E0,-2.195995897E-1,-2.626643181E-1
7.788755118E0,1.499171853E0,-9.743013978E-2,-3.335226178E-1
7.798468972E0,1.477181435E0,-5.344913527E-2,-3.750602305E-1
7.808181889E0,1.439308882E0,-2.290677279E-2,-4.141544402E-1
7.817894128E0,1.369672298E0,4.184303805E-2,-4.019374847E-1
7.827607097E0,1.248724461E0,3.329117596E-2,-3.066453338E-1
7.837320951E0,1.114338160E0,-2.535016090E-2,-1.808107942E-1
7.847033920E0,1.017824292E0,-3.145863488E-2,-6.230641901E-2
7.856746107E0,9.628480077E-1,4.550812021E-2,3.176405653E-2
7.866459128E0,9.286405444E-1,1.701209545E-1,8.918370306E-2
7.876172982E0,9.054283500E-1,2.996205688E-1,1.148392856E-1
7.885885899E0,8.919897079E-1,4.217900336E-1,1.050657257E-1
7.895598139E0,8.871029615E-1,5.354076028E-1,6.108472496E-2
7.905311107E0,9.042066336E-1,6.306998134E-1,-2.199050039E-2
7.915024961E0,9.029849768E-1,7.284353375E-1,-1.246128380E-1
7.924737930E0,8.626690507E-1,8.017370105E-1,-2.137965411E-1
7.934450118E0,7.759287357E-1,8.115105629E-1,-2.443388999E-1
7.944163139E0,6.720846891E-1,7.345438004E-1,-2.040229887E-1
7.953876993E0,5.890094638E-1,5.732801557E-1,-1.087308154E-1
7.963589909E0,5.034908652E-1,3.423798978E-1,-9.773556143E-3
7.973302149E0,4.008685052E-1,1.017060652E-1,7.330167294E-2
7.983015170E0,2.896943092E-1,-9.498675168E-2,1.453816444E-1
7.992728972E0,1.614163816E-1,-2.281514555E-1,1.979145110E-1
8.002441941E0,2.702999115E-2,-3.258870244E-1,2.101314515E-1
8.012154128E0,-8.292251825E-2,-4.297310412E-1,1.734806150E-1
8.021867149E0,-1.574458778E-1,-5.225798488E-1,1.136175916E-1
8.031581003E0,-1.928750277E-1,-5.714476109E-1,5.008947477E-2
8.041293972E0,-2.026485801E-1,-5.311316848E-1,-7.330167107E-3
8.051006159E0,-1.989834905E-1,-4.260659516E-1,-3.665083647E-2
8.060719180E0,-1.708845198E-1,-3.258870244E-1,-4.398100078E-2
8.070432982E0,-1.097997949E-1,-2.635805905E-1,-4.764608666E-2
8.080145951E0,-6.581879407E-2,-1.963873953E-1,-4.398100078E-2
8.089858139E0,-6.948387623E-2,-9.620844573E-2,-3.420744836E-2
8.099571159E0,-9.758284688E-2,3.206948191E-2,-3.542914242E-2
8.109285014E0,-1.415638477E-1,1.640124917E-1,-3.298575059E-2
8.118997982E0,-1.965401024E-1,2.898470163E-1,-3.054236248E-2
8.128710170E0,-2.405211031E-1,3.900259733E-1,-2.687728032E-2
8.138423191E0,-2.661767006E-1,4.437805414E-1,-1.221694518E-2
8.148136993E0,-2.869454920E-1,4.511106908E-1,6.108472589E-3
8.157849961E0,-2.979407609E-1,3.985778391E-1,2.443389036E-2
8.167562201E0,-2.930539846E-1,2.947337925E-1,3.542914242E-2
8.177275170E0,-2.869454920E-1,1.921114624E-1,4.642439261E-2
8.186989024E0,-3.016058207E-1,1.127013192E-1,4.764608666E-2
8.196701941E0,-3.443651497E-1,6.139015034E-2,3.420744836E-2
8.206414180E0,-4.091149569E-1,5.405998230E-2,2.076880634E-2
8.216127201E0,-4.860817194E-1,7.727217674E-2,1.221694518E-2
8.225841003E0,-5.813738704E-1,1.188097894E-1,9.773556143E-3
8.235553972E0,-6.839962006E-1,1.579040140E-1,-3.665083554E-3
8.245266159E0,-7.682931423E-1,1.517955512E-1,-3.298575059E-2
8.254979180E0,-8.196043372E-1,1.212531775E-1,-6.963659078E-2
8.264693034E0,-8.171609044E-1,9.071081877E-2,-1.075091213E-1
8.274405951E0,-7.866185308E-1,2.107422985E-2,-1.294996142E-1
8.284118191E0,-7.536327839E-1,-7.666133344E-2,-1.502684206E-1
8.293831211E0,-7.560762167E-1,-1.853921413E-1,-1.624853760E-1
8.303545014E0,-8.171609044E-1,-2.990097404E-1,-1.588202864E-1
8.313257982E0,-9.283351302E-1,-3.808632791E-1,-1.331647038E-1
8.322970170E0,-1.103037477E0,-3.943018913E-1,-9.040539712E-2
8.332683191E0,-1.347529054E0,-4.492781460E-1,-6.597150117E-2
8.342397045E0,-1.634627223E0,-6.386408210E-1,-8.796200156E-2
8.352109961E0,-1.925390601E0,-9.061918855E-1,-1.673721522E-1
8.361822201E0,-2.168507814E0,-1.110214949E0,-2.577775419E-1
8.371535170E0,-2.355427027E0,-1.156639338E0,-2.932066917E-1
8.381249024E0,-2.456827641E0,-1.080894232E0,-2.321219593E-1
8.390961993E0,-2.477596521E0,-9.697200060E-1,-8.796200156E-2
8.400674180E0,-2.461714506E0,-8.512156606E-1,1.221694499E-1
8.410387201E0,-2.431172132E0,-7.424848676E-1,3.823903799E-1
8.420101055E0,-2.428728819E0,-6.142069101E-1,6.255075932E-1
8.429813972E0,-2.431172132E0,-4.431696832E-1,7.757760286E-1
8.439526211E0,-2.400629759E0,-2.171562016E-1,8.380824327E-1
8.449239180E0,-2.344431877E0,5.650337040E-2,8.405258060E-1
8.458953034E0,-2.312667608E0,2.776300907E-1,7.892146707E-1
8.468666003E0,-2.352983713E0,3.252761662E-1,6.975875497E-1
8.478378191E0,-2.477596521E0,3.130592108E-1,5.754181147E-1
8.488091211E0,-2.673067570E0,3.997995257E-1,4.275930822E-1
8.497805066E0,-2.784241915E0,4.352286756E-1,3.298575282E-1
8.507518034E0,-2.789128542E0,4.498890042E-1,3.286358118E-1
8.517230222E0,-2.779355049E0,7.235485911E-1,3.994941115E-1
8.526943243E0,-2.697501421E0,1.105938911E0,5.155550838E-1
8.536657045E0,-2.543567896E0,1.311183691E0,6.584933400E-1
8.546370014E0,-2.414068460E0,1.295301557E0,7.586722970E-1
8.556082253E0,-2.296785593E0,1.110825777E0,7.464553714E-1
8.565795222E0,-2.183168173E0,8.958075047E-1,6.328377724E-1
8.575509076E0,-2.112309933E0,7.724163532E-1,4.520269632E-1
8.585222045E0,-2.075659037E0,7.528692484E-1,2.883199155E-1
8.594934232E0,-2.080545664E0,9.019159675E-1,1.942494214E-1
8.604647253E0,-2.073215485E0,1.094943762E0,1.869192570E-1
8.614361107E0,-1.999913931E0,1.115712523E0,2.431172132E-1
8.624074024E0,-1.891183138E0,1.016755223E0,3.090887070E-1
8.633786264E0,-1.764126897E0,9.593356252E-1,3.249707520E-1
8.643499232E0,-1.656617761E0,9.153546095E-1,2.919849753E-1
8.653213086E0,-1.626075387E0,8.017370105E-1,2.113531530E-1
8.662926055E0,-1.648065925E0,5.964923501E-1,6.963659078E-2
8.672638243E0,-1.696933627E0,3.338280320E-1,-1.026223376E-1
8.682351264E0,-1.805664539E0,1.554606259E-1,-2.589992285E-1
8.692065118E0,-1.937607527E0,2.962609194E-2,-3.286358118E-1
8.701778034E0,-2.006022453E0,-7.666133344E-2,-2.822114229E-1
8.711490274E0,-2.029234648E0,-3.512371704E-2,-1.356080920E-1
8.721203295E0,-2.007244110E0,1.102579311E-1,7.941014320E-2
8.730917097E0,-1.927833915E0,2.299840003E-1,3.213056624E-1
8.740630066E0,-1.838650227E0,3.252761662E-1,5.131117105E-1
8.750342305E0,-1.767791986E0,3.313846290E-1,5.888567567E-1
8.760055274E0,-1.755575061E0,1.579040140E-1,5.729747415E-1
8.769769128E0,-1.784895658E0,-5.589252338E-2,5.045598149E-1
8.779482097E0,-1.783674002E0,-1.181989461E-1,4.434750974E-1
8.789194284E0,-1.739693046E0,-8.276980370E-2,4.385883212E-1
8.798907305E0,-1.687160134E0,-9.865183383E-2,4.581354558E-1
8.808621159E0,-1.678608298E0,-1.658450365E-1,4.715740979E-1
8.818334076E0,-1.683495045E0,-1.817270666E-1,4.727957845E-1
8.828046316E0,-1.651731014E0,-1.243074164E-1,4.520269632E-1
8.837759336E0,-1.632183909E0,-8.276980370E-2,4.092676640E-1
8.847473139E0,-1.659061193E0,-1.133121699E-1,4.007157981E-1
8.857186107E0,-1.654174328E0,-1.902789176E-1,4.214846194E-1
8.866898347E0,-1.601641536E0,-2.293731421E-1,3.946073353E-1
8.876611316E0,-1.530783176E0,-2.440334857E-1,3.042019308E-1
8.886325170E0,-1.510014415E0,-3.930802047E-1,1.722589284E-1
8.896038139E0,-1.535670042E0,-6.276455522E-1,5.741964281E-2
8.905750326E0,-1.561325550E0,-7.131641507E-1,-2.321219631E-2
8.915463347E0,-1.553995371E0,-6.948387623E-1,-8.674030751E-2
8.925177201E0,-1.528339863E0,-6.105418205E-1,-1.759240031E-1
8.934890170E0,-1.536891699E0,-6.264238358E-1,-2.235700935E-1
8.944602357E0,-1.519788027E0,-5.702258945E-1,-2.797680497E-1
8.954315378E0,-1.474585295E0,-5.457920432E-1,-3.335226178E-1
8.964029232E0,-1.411057115E0,-5.347967744E-1,-3.860554695E-1
8.973742149E0,-1.335159421E0,-5.787777901E-1,-4.141544402E-1
8.983454389E0,-1.228871942E0,-5.482354164E-1,-3.884988427E-1
8.993167409E0,-1.111589313E0,-4.553866386E-1,-3.494046330E-1
9.002881264E0,-9.478822351E-1,-2.574721277E-1,-2.980934680E-1
9.012594180E0,-7.792884111E-1,-9.865183383E-2,-2.467822880E-1
9.022306420E0,-6.461237073E-1,-4.367557913E-2,-2.394521236E-1
9.032019441E0,-5.496098399E-1,-2.412846684E-2,-2.333436459E-1
9.041733243E0,-4.494308829E-1,-3.634541109E-2,-2.284568697E-1
9.051446211E0,-3.565820754E-1,-1.924168877E-2,-2.333436459E-1
9.061158451E0,-3.028275371E-1,-2.046338283E-2,-1.808107942E-1
9.070871420E0,-2.173089087E-1,5.192201585E-3,-1.404948682E-1
9.080585274E0,-1.024696305E-1,6.749862432E-2,-9.529217333E-2
9.090298243E0,-1.068982761E-3,1.395785958E-1,-1.954711229E-2
9.100010430E0,9.300149232E-2,1.933331639E-1,7.330167107E-3
9.109723451E0,1.601946950E-1,2.018850148E-1,-1.343864016E-2
9.119437305E0,2.225011140E-1,1.908897758E-1,-4.886778072E-2
9.129150274E0,2.958027720E-1,1.750077456E-1,-9.040539712E-2
9.138862461E0,3.837648034E-1,1.701209545E-1,-1.392731816E-1
9.148575482E0,4.692834020E-1,1.847812980E-1,-1.808107942E-1
9.158289336E0,5.657972693E-1,2.397575527E-1,-1.893626451E-1
9.168002305E0,6.794148684E-1,3.155026138E-1,-1.710372269E-1
9.177714493E0,8.028060198E-1,3.778090179E-1,-1.490467340E-1
9.187427514E0,9.200887084E-1,4.327852726E-1,-1.356080920E-1
9.197141368E0,1.023932695E0,5.036435723E-1,-1.343863904E-1
9.206854284E0,1.124111652E0,5.732801557E-1,-1.527118087E-1
9.216566524E0,1.229177356E0,6.306998134E-1,-1.734806150E-1
9.226279545E0,1.324469566E0,6.526902914E-1,-1.844758689E-1
9.235993399E0,1.420983434E0,6.587987542E-1,-1.795890927E-1
9.245706316E0,1.469851255E0,6.734591126E-1,-1.612636745E-1
9.255418555E0,1.527270913E0,6.673506498E-1,-1.722589284E-1
9.265131576E0,1.555369854E0,6.624638438E-1,-1.918060333E-1
9.274845430E0,1.548039675E0,6.331431866E-1,-1.844758689E-1
9.284558347E0,1.576138616E0,5.097520351E-1,-1.612636745E-1
9.294270586E0,1.590798974E0,3.765873313E-1,-1.246128380E-1
9.303983607E0,1.604237556E0,2.849602401E-1,-1.148392856E-1
9.313697461E0,1.596907496E0,1.933331639E-1,-1.490467340E-1
9.323410378E0,1.566365123E0,3.695625812E-2,-2.076880634E-1
9.333122618E0,1.527270913E0,-1.010952219E-1,-2.687727809E-1
9.342835639E0,1.508945465E0,-2.000524700E-1,-3.249707520E-1
9.352549441E0,1.478403091E0,-2.696890533E-1,-3.713951409E-1
9.362262409E0,1.474738002E0,-3.112266660E-1,-4.202629030E-1
9.371974649E0,1.477181435E0,-3.649812341E-1,-4.813476503E-1
9.381687618E0,1.452747464E0,-4.627167881E-1,-5.375455618E-1
9.391401472E0,1.473516345E0,-5.543438792E-1,-5.680879354E-1
9.401114441E0,1.521162391E0,-6.068767309E-1,-5.546492934E-1
9.410826680E0,1.557813168E0,-6.777350307E-1,-4.947862923E-1
9.420539649E0,1.587133884E0,-7.547017932E-1,-3.762819171E-1
9.430253503E0,1.650662065E0,-7.449282408E-1,-2.736595869E-1
9.439966472E0,1.775274873E0,-6.264238358E-1,-2.357870489E-1
9.449678659E0,1.897444248E0,-4.859289825E-1,-2.260134816E-1
9.459391680E0,1.984184623E0,-4.443913698E-1,-2.418955117E-1
9.469105534E0,2.074589968E0,-4.749337435E-1,-2.932066917E-1
9.478818503E0,2.169882059E0,-4.456130862E-1,-3.261924386E-1
9.488530691E0,2.260287523E0,-3.332171738E-1,-3.151971996E-1
9.498243711E0,2.337254286E0,-1.743968874E-1,-2.651077211E-1
9.507957566E0,2.376348495E0,-5.344913527E-2,-2.162399292E-1
9.517670534E0,2.395895720E0,-4.001049697E-2,-1.856975704E-1
9.527382722E0,2.388565540E0,-3.512371704E-2,-1.673721522E-1
9.537095743E0,2.369018316E0,2.473931387E-2,-1.136175916E-1
9.546809597E0,2.375126839E0,7.116370648E-2,8.551862091E-3
9.556522566E0,2.393452168E0,1.053711548E-1,1.441599578E-1
9.566234753E0,2.414221048E0,1.591257155E-1,2.467822880E-1
9.575947774E0,2.487522840E0,1.737860441E-1,3.017585576E-1
9.585661628E0,2.554715872E0,1.469087601E-1,2.919849753E-1
9.595374597E0,2.573041439E0,6.872031838E-2,2.431172132E-1
9.605086784E0,2.552272558E0,-5.100574717E-2,1.563768983E-1
9.614799805E0,2.480192661E0,-1.157555580E-1,2.076880634E-2
9.624513659E0,2.381235361E0,-1.707318127E-1,-1.136175916E-1
9.634226576E0,2.284721375E0,-2.880144715E-1,-1.991362125E-1
9.643938816E0,2.201646328E0,-4.052971601E-1,-2.211267054E-1
9.653651836E0,2.129566193E0,-4.358395338E-1,-1.954711229E-1
9.663365691E0,2.075811625E0,-3.552076817E-1,-1.417165697E-1
9.673078607E0,2.066038132E0,-1.817270666E-1,-9.162709117E-2
9.682790847E0,2.117349386E0,-4.978405312E-2,-6.597150117E-2
9.692503868E0,2.221193314E0,-2.168507688E-2,-7.207997888E-2
9.702217722E0,2.300603390E0,-8.399149776E-2,-8.551861346E-2
9.711930639E0,2.347027779E0,-1.353026628E-1,-9.407047927E-2
9.721642878E0,2.378792048E0,-1.462979168E-1,-1.478250325E-1
9.731355899E0,2.356801510E0,-1.853921413E-1,-2.199050188E-1
9.741069701E0,2.271282911E0,-2.684673667E-1,-2.773246467E-1
9.750782670E0,2.143004894E0,-3.197785318E-1,-3.359659910E-1
9.760494909E0,2.015948772E0,-3.478775024E-1,-3.628432751E-1
9.770207878E0,1.925543308E0,-3.356605768E-1,-3.713951409E-1
9.779921732E0,1.816812515E0,-2.623589039E-1,-3.494046330E-1
9.789634701E0,1.711746693E0,-1.475196183E-1,-3.274141252E-1
9.799346941E0,1.636001706E0,-7.543963939E-2,-3.200839758E-1
9.809059909E0,1.573695302E0,-2.901524492E-2,-3.078670204E-1
9.818773764E0,1.530935884E0,4.184303805E-2,-2.895416021E-1
9.828486732E0,1.538266063E0,4.550812021E-2,-2.773246467E-1
9.838198920E0,1.561478257E0,5.528167635E-2,-2.895416021E-1
9.847911941E0,1.573695302E0,1.359135211E-1,-3.103103936E-1
9.857625795E0,1.576138616E0,2.189887464E-1,-3.188622594E-1
9.867338764E0,1.567586780E0,2.825168669E-1,-3.200839758E-1
9.877050951E0,1.556591511E0,3.228327632E-1,-3.274141252E-1
9.886763972E0,1.552926421E0,3.790307343E-1,-3.286358118E-1
9.896477826E0,1.549261332E0,4.731011987E-1,-2.797680497E-1
9.906190795E0,1.512610555E0,5.586197972E-1,-1.820324808E-1
9.915902982E0,1.422205091E0,6.282563806E-1,-5.986303091E-2
9.925616003E0,1.268271565E0,6.551336646E-1,8.307522535E-2
9.935329857E0,1.052031636E0,5.989357233E-1,2.333436459E-1
9.945042826E0,8.260182142E-1,4.572191834E-1,3.494046330E-1
9.954755014E0,6.769714952E-1,2.422009408E-1,4.031592011E-1
9.964468034E0,6.403206587E-1,3.573456407E-2,3.836120665E-1
9.974181889E0,7.075138092E-1,-5.344913527E-2,2.932066917E-1
9.983894805E0,8.553388715E-1,-1.801999472E-2,1.551551968E-1
9.993607045E0,1.011715770E0,9.804098308E-2,3.420744836E-2
1.000332007E1,1.072800517E0,2.189887464E-1,-2.809897438E-2
1.001303392E1,1.000720501E0,2.629697323E-1,-3.298575059E-2
1.002274684E1,8.272398710E-1,1.884463727E-1,-1.099525020E-2
1.003245908E1,5.841227174E-1,4.550812021E-2,2.443389036E-2
1.004217210E1,3.190149665E-1,-1.096470803E-1,5.741964281E-2
1.005188590E1,7.589777559E-2,-2.745758295E-1,8.918370306E-2
1.006159887E1,-1.049130186E-1,-4.333961308E-1,1.001789495E-1
1.007131111E1,-2.160872221E-1,-5.128062963E-1,8.185353130E-2
1.008102408E1,-2.845021188E-1,-4.908157587E-1,5.864133686E-2
1.009073793E1,-3.028275371E-1,-4.199574888E-1,4.520269856E-2
1.010045090E1,-2.857238054E-1,-3.026748300E-1,3.787253052E-2
1.011016309E1,-2.551814318E-1,-1.401894391E-1,2.932066843E-2
1.011987611E1,-1.953184158E-1,-2.657185495E-2,1.954711229E-2
1.012958996E1,-1.342336833E-1,2.840439789E-2,7.330167107E-3
1.013930293E1,-1.061347127E-1,9.804098308E-2,-2.443389036E-3
1.014901512E1,-1.097997949E-1,1.652341783E-1,-8.551862091E-3
1.015872814E1,-1.488940120E-1,2.043284029E-1,-1.099525020E-2
1.016844199E1,-2.148655206E-1,2.165453583E-1,-1.343864016E-2
1.017815496E1,-2.808370292E-1,2.189887464E-1,-1.710372418E-2
1.018786715E1,-3.211529553E-1,2.385358512E-1,-2.809897438E-2
1.019758017E1,-3.113794029E-1,2.702999115E-1,-3.298575059E-2
1.020729402E1,-2.551814318E-1,3.057290614E-1,-2.932066843E-2
1.021700694E1,-1.855448484E-1,3.313846290E-1,-2.076880634E-2
1.022671918E1,-1.256818175E-1,3.350497186E-1,-1.466033421E-2
1.023643220E1,-9.269607067E-2,3.130592108E-1,-1.099525020E-2
1.024614606E1,-8.780929446E-2,2.641914487E-1,-8.551862091E-3
1.025585897E1,-1.085781008E-1,2.116585821E-1,-1.099525020E-2
1.026557121E1,-1.525591016E-1,1.579040140E-1,-3.665083554E-3
1.027528418E1,-2.050919682E-1,7.971556485E-2,8.551862091E-3
1.028499803E1,-2.515163720E-1,-1.191152167E-2,1.099525020E-2
1.029471100E1,-2.893888950E-1,-8.154810965E-2,1.221694518E-3
1.030442324E1,-3.101576865E-1,-1.084253863E-1,-1.343864016E-2
1.031413621E1,-3.187095523E-1,-9.376505762E-2,-2.565558441E-2
1.032385007E1,-3.370349705E-1,-5.833591148E-2,-3.909422457E-2
1.033356303E1,-3.797942698E-1,-1.068982668E-2,-5.131116882E-2
1.034327522E1,-4.372139275E-1,1.985253580E-2,-5.986303091E-2
1.035298824E1,-4.897467792E-1,2.107422985E-2,-5.986303091E-2
1.036270210E1,-5.422796607E-1,1.618745178E-2,-5.864133686E-2
1.037241507E1,-6.155813336E-1,3.206948191E-2,-6.841489673E-2
1.038212725E1,-6.815528274E-1,4.184303805E-2,-9.651386738E-2
1.039184027E1,-7.438592315E-1,4.428642616E-2,-1.417165697E-1
1.040155413E1,-8.489249945E-1,6.016845629E-2,-1.722589284E-1
1.041126704E1,-1.011410356E0,7.849387079E-2,-1.575985998E-1
1.042097928E1,-1.233758807E0,1.139230132E-1,-1.099525094E-1
1.043069230E1,-1.492910743E0,2.299840003E-1,-4.398100078E-2
1.044040616E1,-1.729919434E0,3.521534503E-1,1.710372418E-2
1.045011908E1,-1.903400064E0,3.008422852E-1,5.375456065E-2
1.045983132E1,-1.998692274E0,3.084778599E-2,5.864133686E-2
1.046954428E1,-2.013352633E0,-3.503209054E-1,5.619794875E-2
1.047925814E1,-1.980366826E0,-6.264238358E-1,3.176405653E-2
1.048897111E1,-1.981588483E0,-6.887302995E-1,-1.221694518E-2
1.049868335E1,-2.028012991E0,-6.606312990E-1,-4.275930673E-2
1.050839632E1,-2.065885544E0,-5.885513425E-1,-6.963659078E-2
1.051811017E1,-2.107423067E0,-4.040754735E-1,-6.719319522E-2
1.052782314E1,-2.188054800E0,-1.181989461E-1,-2.932066843E-2
1.053753533E1,-2.251583099E0,1.175880954E-1,3.787253052E-2
1.054724835E1,-2.260134935E0,1.884463727E-1,1.258345395E-1
1.055696220E1,-2.272351742E0,1.371352077E-1,2.162399292E-1
1.056667512E1,-2.322441339E0,1.618745178E-2,2.980934680E-1
1.057638736E1,-2.389634371E0,-1.365243644E-1,3.432961702E-1
1.058610038E1,-2.427506924E0,-2.403683960E-1,3.151971996E-1
1.059581423E1,-2.382304192E0,-2.819060087E-1,2.150182426E-1
1.060552715E1,-2.282125473E0,-2.648022771E-1,1.209477559E-1
1.061523939E1,-2.163620949E0,-2.880144715E-1,7.330167294E-2
1.062495241E1,-2.068328857E0,-2.929012477E-1,6.230641901E-2
1.063466621E1,-2.047559977E0,-1.414111406E-1,1.087308154E-1
1.064437918E1,-2.095206022E0,2.006633282E-1,2.345653474E-1
1.065409137E1,-2.153847456E0,6.062659025E-1,4.056025743E-1
1.066380439E1,-2.181946516E0,9.849911928E-1,5.741963983E-1
1.067351824E1,-2.195384979E0,1.338060975E0,7.036960125E-1
1.068323121E1,-2.144073963E0,1.501767993E0,7.317950130E-1
1.069294340E1,-2.025569439E0,1.379598498E0,6.193991303E-1
1.070265642E1,-1.900956631E0,1.070509791E0,4.227063060E-1
1.071237027E1,-1.817881465E0,7.174401283E-1,2.052446753E-1
1.072208319E1,-1.847202063E0,4.804313779E-1,3.176405653E-2
1.073179543E1,-1.949824452E0,3.668137789E-1,-8.918370306E-2
1.074150845E1,-1.997470498E0,3.741439581E-1,-1.734806150E-1
1.075122225E1,-1.943715930E0,4.840964675E-1,-2.150182426E-1
1.076093522E1,-1.872857690E0,5.354076028E-1,-1.881409585E-1
1.077064746E1,-1.858197331E0,4.816530645E-1,-1.221694499E-1
1.078036043E1,-1.942494273E0,4.584408700E-1,-5.619794875E-2
1.079007428E1,-2.040229797E0,4.755446017E-1,1.343864016E-2
1.079978725E1,-2.064663649E0,4.657710493E-1,7.818844914E-2
1.080949944E1,-2.052446842E0,4.608842432E-1,1.307213157E-1
1.081921246E1,-1.992583752E0,4.132381678E-1,1.649287641E-1
1.082892632E1,-1.888739705E0,3.521534503E-1,1.502684206E-1
1.083863923E1,-1.800777674E0,2.397575527E-1,1.026223376E-1
1.084835147E1,-1.753131628E0,7.727217674E-2,5.619794875E-2
1.085806449E1,-1.734806180E0,-4.978405312E-2,2.565558441E-2
1.086777830E1,-1.748244882E0,-7.177454978E-2,1.954711229E-2
1.087749126E1,-1.780008912E0,-4.123219103E-2,7.085828483E-2
1.088720350E1,-1.815438032E0,8.704573661E-2,1.930277348E-1
1.089691647E1,-1.821546555E0,3.130592108E-1,3.359659910E-1
1.090663033E1,-1.806886196E0,4.608842432E-1,4.593571424E-1
1.091634330E1,-1.834985137E0,3.839175105E-1,5.387672782E-1
1.092605548E1,-1.853310585E0,1.334701329E-1,5.558710098E-1
1.093576850E1,-1.805664539E0,-6.810946763E-2,5.082249045E-1
1.094548236E1,-1.723810911E0,-1.524063945E-1,3.921639323E-1
1.095519533E1,-1.661504507E0,-3.185568452E-1,2.394521236E-1
1.096490751E1,-1.685938478E0,-6.398624778E-1,9.651386738E-2
1.097462053E1,-1.725032687E0,-9.110786915E-1,-7.330167107E-3
1.098433439E1,-1.788560748E0,-1.006370902E0,-3.909422457E-2
1.099404730E1,-1.877744436E0,-1.018587828E0,6.108472589E-3
1.100375955E1,-1.920503736E0,-1.010035992E0,1.221694499E-1
1.101347251E1,-1.861862421E0,-8.805363178E-1,2.528907657E-1
1.102318637E1,-1.776343822E0,-6.142069101E-1,3.188622594E-1
1.103289934E1,-1.715259075E0,-5.201364160E-1,3.335226178E-1
1.104261152E1,-1.651731014E0,-5.042544007E-1,2.614426315E-1
1.105232455E1,-1.577207565E0,-4.504998624E-1,1.307213157E-1
1.106203840E1,-1.491688967E0,-4.248442650E-1,-1.710372418E-2
1.107175132E1,-1.417165637E0,-4.101839364E-1,-1.160609797E-1
1.108146356E1,-1.385401607E0,-3.112266660E-1,-1.881409585E-1
1.109117658E1,-1.347529054E0,-9.743013978E-2,-2.675510943E-1
1.110089038E1,-1.304617047E0,-1.191152167E-2,-3.139754832E-1
1.111060335E1,-1.248419046E0,-7.910472155E-2,-2.687727809E-1
1.112031559E1,-1.178782463E0,-1.230857223E-1,-2.150182426E-1
1.113002856E1,-1.114032745E0,-1.230857223E-1,-1.783674061E-1
1.113974241E1,-1.004080176E0,-1.023169160E-1,-1.380514801E-1
1.114945538E1,-9.344435930E-1,-9.376505762E-2,-1.258345395E-1
1.115916757E1,-8.782456517E-1,-1.401894391E-1,-1.551551968E-1
1.116888059E1,-7.780666947E-1,-1.695101112E-1,-2.028012872E-1
1.117859444E1,-7.120952010E-1,-1.780619770E-1,-2.394521236E-1
1.118830736E1,-6.461237073E-1,-1.792836636E-1,-2.651077211E-1
1.119801960E1,-5.764871240E-1,-1.878355294E-1,-2.993151546E-1
1.120773262E1,-4.824166298E-1,-1.365243644E-1,-3.188622594E-1
1.121744642E1,-3.736858070E-1,-7.024743594E-3,-3.200839758E-1
1.122715939E1,-2.405211031E-1,1.175880954E-1,-3.078670204E-1
1.123687158E1,-1.183516532E-1,2.092151791E-1,-2.748812735E-1
1.124658460E1,-2.428117767E-2,2.922904193E-1,-2.504473627E-1
1.125629845E1,4.291202128E-2,3.631486893E-1,-2.589992285E-1
1.126601137E1,1.430909634E-1,3.888042867E-1,-2.638860047E-1
1.127572361E1,2.396048307E-1,3.826957941E-1,-2.504473627E-1
1.128543663E1,3.275668323E-1,3.778090179E-1,-2.431172132E-1
1.129515048E1,4.179722369E-1,3.778090179E-1,-2.516690791E-1
1.130486340E1,5.364766121E-1,3.997995257E-1,-2.602209449E-1
1.131457564E1,6.464291215E-1,4.596625566E-1,-2.443388999E-1
1.132428861E1,7.368345261E-1,5.146388412E-1,-2.015796006E-1
1.133400246E1,8.296833038E-1,5.854970813E-1,-1.417165697E-1
1.134371543E1,9.396358132E-1,6.306998134E-1,-8.551861346E-2
1.135342762E1,1.045923233E0,6.343649030E-1,-2.932066843E-2
1.136314064E1,1.111894727E0,6.209262609E-1,2.809897438E-2
1.137285449E1,1.197413325E0,5.549547076E-1,7.941014320E-2
1.138256741E1,1.268271565E0,4.743228853E-1,1.148392856E-1
1.139227965E1,1.295148849E0,3.912476599E-1,1.209477559E-1
1.140199262E1,1.325691223E0,3.008422852E-1,8.918370306E-2
1.141170647E1,1.345238328E0,2.031067163E-1,3.176405653E-2
1.142141944E1,1.328134656E0,8.826743066E-2,-8.551862091E-3
1.143113163E1,1.335464835E0,-5.344913527E-2,-2.443389036E-2
1.144084465E1,1.353790283E0,-2.342599183E-1,-3.298575059E-2
1.145055850E1,1.328134656E0,-3.454341292E-1,-3.665083647E-2
1.146027142E1,1.301257372E0,-3.820849657E-1,-3.909422457E-2
1.146998366E1,1.293927193E0,-3.662029207E-1,-4.520269856E-2
1.147969668E1,1.307365894E0,-3.698680103E-1,-5.986303091E-2
1.148941048E1,1.307365894E0,-3.881934285E-1,-7.207997888E-2
1.149912345E1,1.293927193E0,-4.040754735E-1,-7.818844914E-2
1.150883564E1,1.323247910E0,-4.810422063E-1,-9.651386738E-2
1.151854866E1,1.372115612E0,-6.435275674E-1,-1.588202864E-1
1.152826251E1,1.409988165E0,-6.630746722E-1,-2.284568697E-1
1.153797548E1,1.452747464E0,-5.213581324E-1,-2.651077211E-1
1.154768767E1,1.494285107E0,-3.930802047E-1,-2.797680497E-1
1.155740069E1,1.500393629E0,-3.222219348E-1,-2.712161839E-1
1.156711449E1,1.515053868E0,-2.770192325E-1,-2.614426315E-1
1.157682746E1,1.587133884E0,-2.415900975E-1,-2.638860047E-1
1.158653970E1,1.643331885E0,-2.269297540E-1,-2.712161839E-1
1.159625267E1,1.684869409E0,-2.415900975E-1,-2.785463631E-1
1.160596652E1,1.717855215E0,-2.415900975E-1,-2.712161839E-1
1.161567949E1,1.761836171E0,-1.792836636E-1,-2.577775419E-1
1.162539168E1,1.832694530E0,-8.643488586E-2,-2.528907657E-1
1.163510470E1,1.898666024E0,-4.489727318E-2,-2.467822880E-1
1.164481856E1,1.946312070E0,-9.376505762E-2,-2.125748396E-1
1.165453147E1,1.978076100E0,-1.206423342E-1,-1.368297935E-1
1.166424371E1,2.015948772E0,-1.035386100E-1,-5.131116882E-2
1.167395668E1,2.059929609E0,-5.955760926E-2,4.031591862E-2
1.168367053E1,2.070924997E0,-4.581354558E-3,1.136175916E-1
1.169338350E1,2.100245476E0,-2.046338283E-2,1.062874198E-1
1.170309569E1,2.144226551E0,-1.801999472E-2,3.176405653E-2
1.171280871E1,2.161330223E0,8.338065445E-2,-6.352811307E-2
1.172252257E1,2.175990582E0,1.420219839E-1,-1.319430023E-1
1.173223548E1,2.201646328E0,9.681928903E-2,-1.539335102E-1
1.174194772E1,2.249292374E0,3.329117596E-2,-1.319430023E-1
1.175166069E1,2.304268599E0,-9.468132630E-3,-9.162709117E-2
1.176137454E1,2.342141151E0,-4.734066129E-2,-6.719319522E-2
1.177108751E1,2.296938419E0,-9.743013978E-2,-4.398100078E-2
1.178079970E1,2.200424433E0,-1.340809762E-1,-1.954711229E-2
1.179051272E1,2.132009745E0,-1.365243644E-1,-3.542914242E-2
1.180022658E1,2.154000044E0,-7.421794534E-2,-6.474980712E-2
1.180993949E1,2.218750000E0,3.695625812E-2,-8.185353130E-2
1.181965173E1,2.285943270E0,1.395785958E-1,-1.038440317E-1
1.182936470E1,2.354357958E0,1.798945218E-1,-1.600419879E-1
1.183907856E1,2.370239973E0,1.127013192E-1,-2.431172132E-1
1.184879152E1,2.329924107E0,-6.810946763E-2,-3.151971996E-1
1.185850371E1,2.278613091E0,-3.063398898E-1,-3.494046330E-1
1.186821673E1,2.218750000E0,-4.883723855E-1,-3.261924386E-1
1.187793059E1,2.182099104E0,-5.555655956E-1,-2.467822880E-1
1.188764356E1,2.177212238E0,-4.993676245E-1,-1.478250325E-1
1.189735574E1,2.204089642E0,-3.930802047E-1,-6.841489673E-2
1.190706876E1,2.212641478E0,-3.063398898E-1,-3.665083647E-2
1.191678257E1,2.143004894E0,-2.684673667E-1,-5.253286287E-2
1.192649553E1,1.979297876E0,-3.368822634E-1,-1.026223376E-1
1.193620777E1,1.788713455E0,-4.749337435E-1,-1.930277348E-1
1.194592074E1,1.687312841E0,-6.056550741E-1,-3.066453338E-1
1.195563460E1,1.701973200E0,-6.533011198E-1,-3.982724249E-1
1.196534757E1,1.783826709E0,-6.313106418E-1,-4.263713956E-1
1.197505975E1,1.875453830E0,-5.592306852E-1,-4.153761268E-1
1.198477277E1,1.930430055E0,-4.077405334E-1,-4.019374847E-1
1.199448663E1,1.930430055E0,-2.476985604E-1,-3.982724249E-1
1.200419954E1,1.887670755E0,-1.780619770E-1,-4.165978432E-1
1.201391178E1,1.778939962E0,-1.878355294E-1,-4.618005157E-1
1.202362475E1,1.593242407E0,-2.147128135E-1,-4.789042473E-1
1.203333861E1,1.328134656E0,-2.635805905E-1,-4.178195298E-1
1.204305158E1,1.020267606E0,-3.222219348E-1,-3.078670204E-1
1.205276382E1,7.551599145E-1,-3.833066523E-1,-2.040229887E-1
1.206247678E1,5.853443742E-1,-4.297310412E-1,-1.417165697E-1
1.207219064E1,5.584670901E-1,-3.454341292E-1,-1.307213157E-1
1.208190356E1,6.500942111E-1,-1.072036922E-1,-1.588202864E-1
1.209161580E1,7.893673778E-1,1.701209545E-1,-1.637070626E-1
1.210132882E1,9.066500664E-1,3.900259733E-1,-1.111742035E-1
1.211104267E1,9.591829181E-1,5.390726924E-1,-4.520269856E-2
1.212075559E1,9.555178285E-1,6.355865598E-1,3.665083554E-3
1.213046783E1,9.225320816E-1,6.563553810E-1,2.076880634E-2
1.214018080E1,8.883246183E-1,6.416950226E-1,2.321219631E-2
1.214989465E1,8.345700502E-1,6.441384554E-1,3.665083647E-2
1.215960762E1,7.514948249E-1,6.539120078E-1,7.085828483E-2
1.216931980E1,6.452074051E-1,6.649072170E-1,1.087308154E-1
1.217903283E1,5.303681493E-1,6.685723066E-1,1.356080920E-1
1.218874668E1,4.265241027E-1,6.404733658E-1,1.258345395E-1
1.219845960E1,3.410054743E-1,5.635066032E-1,6.597150117E-2
1.220817184E1,2.896943092E-1,4.779879749E-1,-2.687728032E-2
1.221788486E1,2.713688910E-1,3.888042867E-1,-1.123958975E-1
1.222759866E1,2.713688910E-1,3.069507480E-1,-1.747023165E-1
1.223731163E1,2.738122940E-1,2.715215981E-1,-2.015796006E-1
1.224702387E1,2.677038014E-1,2.666348219E-1,-1.795890927E-1
1.225673684E1,2.603736520E-1,2.397575527E-1,-1.319430023E-1
1.226645069E1,2.444916219E-1,2.116585821E-1,-9.529217333E-2
1.227616366E1,2.151709497E-1,1.786728203E-1,-8.674030751E-2
1.228587585E1,1.760767251E-1,1.029277667E-1,-8.063183725E-2
1.229558887E1,1.345391124E-1,1.252236869E-2,-6.474980712E-2
1.230530272E1,9.177979827E-2,-7.543963939E-2,-2.199050039E-2
1.231501569E1,5.390727147E-2,-1.634016484E-1,2.809897438E-2
1.232472788E1,2.092151903E-2,-2.623589039E-1,6.963659078E-2
1.233444090E1,-2.550287358E-2,-3.649812341E-1,8.674030751E-2
1.234415475E1,-6.704048812E-2,-4.883723855E-1,8.185353130E-2
1.235386767E1,-8.536590636E-2,-6.044333577E-1,6.719319522E-2
1.236357991E1,-1.244601309E-1,-6.276455522E-1,5.741964281E-2
1.237329288E1,-1.354553849E-1,-5.812211633E-1,5.253286287E-2
1.238300673E1,-9.880454093E-2,-5.311316848E-1,5.741964281E-2
1.239271970E1,-8.047912270E-2,-4.529432356E-1,7.085828483E-2
1.240243194E1,-1.256818175E-1,-3.258870244E-1,7.207997888E-2
1.241214491E1,-2.197522968E-1,-2.305948436E-1,5.741964281E-2
1.242185876E1,-3.235963285E-1,-1.731752008E-1,3.298575059E-2
1.243157173E1,-3.981196880E-1,-1.218640283E-1,1.466033421E-2
1.244128392E1,-4.005630910E-1,-6.077930331E-2,1.710372418E-2
1.245099694E1,-3.272614181E-1,7.635590620E-3,3.420744836E-2
1.246071080E1,-2.392994165E-1,8.704573661E-2,4.642439261E-2
1.247042371E1,-1.916533262E-1,1.469087601E-1,4.642439261E-2
1.248013595E1,-1.977618039E-1,1.811162084E-1,3.665083647E-2
1.248984897E1,-2.502946556E-1,2.055501044E-1,3.665083647E-2
1.249956277E1,-3.492519259E-1,2.263189107E-1,5.986303091E-2
1.250927574E1,-4.701996744E-1,2.385358512E-1,8.918370306E-2
1.251898798E1,-5.935907960E-1,2.324273884E-1,1.062874198E-1
1.252870095E1,-7.255338430E-1,2.092151791E-1,1.172826737E-1
1.253841480E1,-8.696937561E-1,1.615691036E-1,1.294996142E-1
1.254812777E1,-1.017518878E0,8.948912472E-2,1.392731816E-1
1.255783996E1,-1.139688253E0,3.329117596E-2,1.417165697E-1
1.256755298E1,-1.230093718E0,3.451287001E-2,1.331647038E-1
1.257726684E1,-1.265522838E0,7.238540053E-2,1.221694499E-1
1.258697975E1,-1.232537031E0,9.071081877E-2,1.087308154E-1
1.259669199E1,-1.189777732E0,5.650337040E-2,5.986303091E-2
1.260640501E1,-1.192221165E0,-1.679829881E-2,-6.108472589E-3
1.261611882E1,-1.259414315E0,-5.833591148E-2,-7.574506104E-2
1.262583178E1,-1.363411069E0,-3.390202299E-2,-1.270562261E-1
1.263554402E1,-1.480693698E0,4.062134400E-2,-1.380514801E-1
1.264525705E1,-1.591867924E0,8.460234851E-2,-1.185043678E-1
1.265497085E1,-1.696933627E0,1.130067464E-2,-9.773556143E-2
1.266468382E1,-1.808107853E0,-2.086043358E-1,-9.651386738E-2
1.267439600E1,-1.897291541E0,-4.724903405E-1,-9.162709117E-2
1.268410902E1,-1.951046109E0,-6.239804626E-1,-1.832541823E-2
1.269382288E1,-1.980366826E0,-6.508577466E-1,1.478250325E-1
1.270353585E1,-2.039008141E0,-5.702258945E-1,3.640649617E-1
1.271324803E1,-2.156290770E0,-4.969242513E-1,5.497625470E-1
1.272296106E1,-2.357870340E0,-4.627167881E-1,6.719319820E-1
1.273267491E1,-2.558228254E0,-3.991886973E-1,7.427902818E-1
1.274238783E1,-2.663294077E0,-2.501419485E-1,7.660024762E-1
1.275210007E1,-2.682841063E0,-1.801999472E-2,7.623373866E-1
1.276181309E1,-2.598544121E0,2.360924631E-1,7.183563709E-1
1.277152689E1,-2.460492849E0,5.354076028E-1,6.511631608E-1
1.278123986E1,-2.340766668E0,8.102889061E-1,5.754181147E-1
1.279095210E1,-2.282125473E0,1.043632507E0,5.118899941E-1
1.280066507E1,-2.250361204E0,1.201231122E0,4.508052766E-1
1.281037892E1,-2.153847456E0,1.256207347E0,4.092676640E-1
1.282009189E1,-2.054890156E0,1.274532795E0,4.165978432E-1
1.282980408E1,-2.041451454E0,1.275754452E0,4.275930822E-1
1.283951710E1,-2.048781633E0,1.300188422E0,3.994941115E-1
1.284923095E1,-1.980366826E0,1.388150454E0,3.310792148E-1
1.285894392E1,-1.836206913E0,1.471225619E0,2.174616307E-1
1.286865611E1,-1.717702508E0,1.422357798E0,5.864133686E-2
1.287836913E1,-1.736027956E0,1.287971497E0,-8.918370306E-2
1.288808298E1,-1.871636033E0,1.129151106E0,-1.563768983E-1
1.289779590E1,-1.988918662E0,9.434536099E-1,-1.429382563E-1
1.290750814E1,-2.024347782E0,8.090671897E-1,-8.429691941E-2
1.291722111E1,-2.025569439E0,7.577560544E-1,6.108472589E-3
1.292693496E1,-2.057333469E0,7.760814428E-1,1.466033459E-1
1.293664793E1,-2.133078575E0,7.369872332E-1,3.066453338E-1
1.294636012E1,-2.195384979E0,5.500679612E-1,4.190412164E-1
1.295607314E1,-2.180724621E0,1.737860441E-1,4.385883212E-1
1.296578699E1,-2.080545664E0,-3.723114133E-1,3.542914093E-1
1.297549996E1,-2.006022453E0,-8.658760190E-1,2.028012872E-1
1.298521215E1,-2.009687424E0,-1.062568784E0,8.551861346E-2
1.299492517E1,-2.010909081E0,-9.232956171E-1,6.352811307E-2
1.300463902E1,-1.916838646E0,-6.166502833E-1,1.466033459E-1
1.301435194E1,-1.787339091E0,-2.525853515E-1,3.237490356E-1
1.302406418E1,-1.755575061E0,1.017060652E-1,5.216635466E-1
1.303377720E1,-1.778787255E0,3.533751369E-1,6.609367132E-1
1.304349100E1,-1.709150672E0,4.999784827E-1,6.988092661E-1
1.305320397E1,-1.604084849E0,5.867187977E-1,6.084038615E-1
1.306291621E1,-1.579650998E0,4.840964675E-1,4.556920528E-1
1.307262918E1,-1.623632073E0,2.153236568E-1,3.237490356E-1
1.308234303E1,-1.655396104E0,2.748812549E-3,2.492256761E-1
1.309205600E1,-1.567434072E0,-6.688777357E-2,2.150182426E-1
1.310176819E1,-1.422052383E0,-1.365243644E-1,2.150182426E-1
1.311148121E1,-1.375627995E0,-2.513636351E-1,2.260134816E-1
1.312119507E1,-1.412278891E0,-3.222219348E-1,2.370087355E-1
1.313090798E1,-1.426939249E0,-3.662029207E-1,2.199050188E-1
1.314062022E1,-1.456259847E0,-3.674246371E-1,1.404948682E-1
1.315033324E1,-1.505127668E0,-4.248442650E-1,4.153761268E-2
1.316004710E1,-1.527118206E0,-5.335750580E-1,-6.963659078E-2
1.316976001E1,-1.534448266E0,-5.690042377E-1,-1.575985998E-1
1.317947225E1,-1.524674773E0,-5.421269536E-1,-1.820324808E-1
1.318918522E1,-1.468476772E0,-5.238015056E-1,-1.820324808E-1
1.319889908E1,-1.417165637E0,-4.639385045E-1,-1.771457046E-1
1.320861204E1,-1.419609070E0,-4.224008918E-1,-1.734806150E-1
1.321832423E1,-1.428160906E0,-4.737120569E-1,-1.893626451E-1
1.322803725E1,-1.411057115E0,-5.372401476E-1,-2.125748396E-1
1.323775111E1,-1.420830727E0,-5.531222224E-1,-2.199050188E-1
1.324746408E1,-1.422052383E0,-4.822639227E-1,-2.174616307E-1
1.325717626E1,-1.331494331E0,-3.759764731E-1,-2.211267054E-1
1.326688928E1,-1.216655016E0,-2.611372173E-1,-2.589992285E-1
1.327660314E1,-1.116476059E0,-2.403683960E-1,-2.699944973E-1
1.328631606E1,-1.015075445E0,-2.110477239E-1,-3.017585576E-1
1.329602830E1,-9.307785034E-1,-1.536280811E-1,-3.445178568E-1
1.330574126E1,-8.379297256E-1,-9.376505762E-2,-3.481829464E-1
1.331545512E1,-7.841751575E-1,-3.023693897E-2,-3.628432751E-1
1.332516809E1,-7.120952010E-1,8.857285604E-3,-3.946073353E-1
1.333488027E1,-6.168029904E-1,1.090362370E-1,-3.726168275E-1
1.334459330E1,-5.349494815E-1,1.786728203E-1,-3.164188862E-1
1.335430715E1,-4.469874799E-1,1.664558798E-1,-3.225273490E-1
1.336402012E1,-3.810159862E-1,7.605048269E-2,-2.993151546E-1
1.337373230E1,-3.248180151E-1,-1.924168877E-2,-2.858765125E-1
1.338344533E1,-2.735068500E-1,-9.865183383E-2,-2.895416021E-1
1.339315918E1,-2.087570578E-1,-1.230857223E-1,-2.870981991E-1
1.340287210E1,-1.415638477E-1,-8.643488586E-2,-2.761029601E-1
1.341258434E1,-5.482354015E-2,1.527118147E-3,-2.541124523E-1
1.342229736E1,5.512896553E-2,1.004843712E-1,-2.406738251E-1
1.343201116E1,1.797417998E-1,1.921114624E-1,-2.577775419E-1
1.344172413E1,2.872509360E-1,2.458660156E-1,-2.919849753E-1
1.345143637E1,3.886515796E-1,2.825168669E-1,-3.323009014E-1
1.346114934E1,4.827220440E-1,3.252761662E-1,-3.726168275E-1
1.347086319E1,5.755708218E-1,3.411581814E-1,-4.117110670E-1
1.348057616E1,6.500942111E-1,3.558185399E-1,-4.312581718E-1
1.349028835E1,7.258392572E-1,3.680354655E-1,-4.410317242E-1
1.350000137E1,7.954758406E-1,3.619270027E-1,-4.556920528E-1
1.350971522E1,8.797727823E-1,3.313846290E-1,-4.740174711E-1
1.351942814E1,9.567395449E-1,2.751866877E-1,-5.045598149E-1
1.352914038E1,1.014159203E0,2.422009408E-1,-5.375455618E-1
1.353885340E1,1.081352353E0,3.155026138E-1,-5.497625470E-1
1.354856720E1,1.177866220E0,4.804313779E-1,-5.363239050E-1
1.355828017E1,1.276823521E0,6.441384554E-1,-4.972296655E-1
1.356799236E1,1.361120462E0,7.870767117E-1,-4.275930822E-1
1.357770538E1,1.436865449E0,8.787037730E-1,-3.445178568E-1
1.358741923E1,1.522384048E0,9.336800575E-1,-2.651077211E-1
1.359713220E1,1.587133884E0,8.896990418E-1,-1.930277348E-1
1.360684439E1,1.596907496E0,7.284353375E-1,-1.343863904E-1
1.361655741E1,1.565143347E0,4.853181541E-1,-7.207997888E-2
1.362627126E1,1.527270913E0,2.898470163E-1,-4.398100078E-2
1.363598418E1,1.523605824E0,1.371352077E-1,-4.886778072E-2
1.364569642E1,1.530935884E0,-3.390202299E-2,-4.642439261E-2
1.365540939E1,1.529714227E0,-1.731752008E-1,-2.809897438E-2
1.366512324E1,1.551704764E0,-2.696890533E-1,-2.443389036E-2
1.367483621E1,1.572473526E0,-3.344388604E-1,-2.687728032E-2
1.368454840E1,1.538266063E0,-4.651601911E-1,-2.932066843E-2
1.369426142E1,1.515053868E0,-6.667397618E-1,-4.520269856E-2
1.370397527E1,1.496728539E0,-7.278245091E-1,-5.497625470E-2
1.371368824E1,1.516275644E0,-7.217160463E-1,-4.764608666E-2
1.372340043E1,1.565143347E0,-7.131641507E-1,3.665083554E-3
1.373311345E1,1.618897915E0,-6.838434935E-1,8.551861346E-2
1.374282730E1,1.681204319E0,-5.971031785E-1,1.600419879E-1
1.375254022E1,1.741067410E0,-5.445703268E-1,1.832541823E-1
1.376225246E1,1.803373814E0,-6.227588058E-1,1.123958975E-1
1.377196543E1,1.843689680E0,-6.471926570E-1,1.099525020E-2
1.378167928E1,1.840024710E0,-6.190937161E-1,-1.466033421E-2
1.379139225E1,1.869345307E0,-5.799994469E-1,6.230641901E-2
1.380110444E1,1.967080832E0,-4.700469673E-1,1.637070626E-1
1.381081746E1,2.112462521E0,-3.454341292E-1,2.455606014E-1
1.382053132E1,2.228523493E0,-2.550287247E-1,2.907632887E-1
1.383024423E1,2.315263748E0,-2.024958730E-1,2.370087355E-1
1.383995647E1,2.421551228E0,-1.438545287E-1,1.062874198E-1
1.384966944E1,2.531503677E0,-5.222744122E-2,-2.565558441E-2
1.385938330E1,2.590145111E0,-2.046338283E-2,-1.392731816E-1
1.386909626E1,2.604805470E0,-1.218640283E-1,-2.174616307E-1
1.387880845E1,2.574263096E0,-3.686463237E-1,-2.455606014E-1
1.388852147E1,2.507069826E0,-5.653391480E-1,-2.467822880E-1
1.389823533E1,2.485079288E0,-5.506787896E-1,-2.247917950E-1
1.390794830E1,2.525395393E0,-3.662029207E-1,-1.343863904E-1
1.391766048E1,2.584036589E0,-7.666133344E-2,-4.153761268E-2
1.392737350E1,2.629239321E0,1.701209545E-1,3.909422457E-2
1.393708736E1,2.640234470E0,4.156815708E-1,4.398100078E-2
1.394680027E1,2.593810081E0,6.038225293E-1,-2.565558441E-2
1.395651251E1,2.492409468E0,6.539120078E-1,-1.441599578E-1
1.396622548E1,2.345806122E0,5.549547076E-1,-2.211267054E-1
1.397593934E1,2.212641478E0,3.093941510E-1,-2.626643181E-1
1.398565230E1,2.145448208E0,8.857285604E-3,-2.699944973E-1
1.399536449E1,2.166217089E0,-1.475196183E-1,-2.516690791E-1
1.400507751E1,2.218750000E0,-1.731752008E-1,-2.480039895E-1
1.401479137E1,2.241962194E0,-1.890572309E-1,-2.504473627E-1
1.402450428E1,2.223636627E0,-2.574721277E-1,-2.663294077E-1
1.403421652E1,2.174768925E0,-3.393256664E-1,-3.078670204E-1
1.404392949E1,2.112462521E0,-4.285093546E-1,-3.555130959E-1
1.405364335E1,2.009840250E0,-5.396835804E-1,-4.129327536E-1
1.406335632E1,1.874232054E0,-6.496360302E-1,-4.960079789E-1
1.407306850E1,1.770388126E0,-7.266027927E-1,-5.888567567E-1
1.408278152E1,1.748397589E0,-6.997255087E-1,-6.169557571E-1
1.409249538E1,1.785048366E0,-5.372401476E-1,-5.864133835E-1
1.410220835E1,1.791156888E0,-3.552076817E-1,-4.850127101E-1
1.411192053E1,1.774053097E0,-2.843494117E-1,-3.530697227E-1
1.412163356E1,1.725185394E0,-3.051182032E-1,-2.663294077E-1
1.413134736E1,1.628671527E0,-3.295520842E-1,-2.137965411E-1
1.414106033E1,1.502836943E0,-3.393256664E-1,-1.600419879E-1
1.415077257E1,1.407544851E0,-2.965663373E-1,-9.651386738E-2
1.416048553E1,1.379445791E0,-1.108687744E-1,-7.574506104E-2
1.417019939E1,1.420983434E0,1.151447073E-1,-1.160609797E-1
1.417991236E1,1.467407823E0,2.837385535E-1,-2.028012872E-1
1.418962455E1,1.472294569E0,3.692571819E-1,-3.200839758E-1
1.419933757E1,1.439308882E0,4.095730782E-1,-4.275930822E-1
1.420905142E1,1.373337388E0,5.195255876E-1,-4.923428893E-1
1.421876434E1,1.301257372E0,6.771242023E-1,-4.996730685E-1
1.422847658E1,1.227955699E0,7.418739796E-1,-4.312581718E-1
1.423818955E1,1.122889996E0,6.942279339E-1,-3.042019308E-1
1.424790340E1,1.000720501E0,5.854970813E-1,-1.637070626E-1
1.425761637E1,9.005415440E-1,4.498890042E-1,-2.809897438E-2
1.426732856E1,8.260182142E-1,3.338280320E-1,6.841489673E-2
1.427704158E1,7.600467205E-1,2.568612695E-1,1.246128380E-1
1.428675543E1,6.989619732E-1,2.177670449E-1,1.698155403E-1
1.429646835E1,6.415423155E-1,1.908897758E-1,2.003578991E-1
1.430618059E1,5.914528370E-1,2.006633282E-1,1.856975704E-1
1.431589356E1,5.499152541E-1,2.580829561E-1,1.294996142E-1
1.432560741E1,4.998257756E-1,3.045073450E-1,6.230641901E-2
1.433532038E1,4.277457893E-1,2.861819267E-1,-7.330167107E-3
1.434503257E1,3.373403847E-1,1.969982386E-1,-6.230641901E-2
1.435474559E1,2.469350100E-1,1.053711548E-1,-1.050657257E-1
1.436445944E1,1.748550236E-1,4.550812021E-2,-1.233911440E-1
1.437417236E1,1.137702987E-1,2.107422985E-2,-1.087308154E-1
1.438388460E1,6.734590977E-2,1.374406368E-2,-7.941014320E-2
1.439359762E1,4.657710344E-2,-1.435491070E-2,-5.619794875E-2
1.440331142E1,2.947338112E-2,-4.123219103E-2,-2.809897438E-2
1.441302439E1,7.482878864E-3,-6.566607952E-2,-3.665083554E-3
1.442273658E1,-1.695101149E-2,-1.059819981E-1,2.321219631E-2
1.443244960E1,-4.260659590E-2,-1.414111406E-1,4.886778072E-2
1.444216345E1,-8.414421231E-2,-1.682884246E-1,5.008947477E-2
1.445187637E1,-1.171299592E-1,-2.305948436E-1,4.764608666E-2
1.446158861E1,-9.880454093E-2,-3.063398898E-1,3.787253052E-2
1.447130158E1,-4.993676394E-2,-3.539859951E-1,3.298575059E-2
1.448101543E1,1.114796288E-2,-3.258870244E-1,2.809897438E-2
1.449072840E1,6.490252167E-2,-2.391466945E-1,1.466033421E-2
1.450044059E1,1.101052165E-1,-1.072036922E-1,-7.330167107E-3
1.451015361E1,1.382041872E-1,5.161659420E-2,-2.932066843E-2
1.451986746E1,1.516428292E-1,1.908897758E-1,-2.443389036E-2
1.452958038E1,1.491994411E-1,3.057290614E-1,-4.886778072E-3
1.453929262E1,1.406475753E-1,3.802524209E-1,1.832541823E-2
1.454900564E1,1.137702987E-1,4.034646153E-1,5.131116882E-2
1.455871944E1,6.612421572E-2,3.900259733E-1,8.063183725E-2
1.456843241E1,2.214321308E-2,3.362714052E-1,9.895725548E-2
1.457814460E1,-1.206423342E-2,2.531961799E-1,1.001789495E-1
1.458785762E1,-4.138490185E-2,1.713426560E-1,8.918370306E-2
1.459757147E1,-6.215370819E-2,9.315420687E-2,6.108472496E-2
1.460728439E1,-8.903098851E-2,4.550812021E-2,1.954711229E-2
1.461699663E1,-1.269035190E-1,4.062134400E-2,-2.932066843E-2
1.462670965E1,-1.721062213E-1,7.971556485E-2,-7.818844914E-2
1.463642345E1,-2.197522968E-1,1.310267299E-1,-1.123958975E-1
1.464613642E1,-2.637332976E-1,1.627907902E-1,-1.209477559E-1
1.465584861E1,-3.089359999E-1,1.701209545E-1,-1.099525094E-1
1.466556163E1,-3.516952991E-1,1.530172378E-1,-7.941014320E-2
1.467527548E1,-3.859027624E-1,1.322484314E-1,-3.176405653E-2
1.468498840E1,-4.201101959E-1,1.102579311E-1,2.565558441E-2
1.469470064E1,-4.970769584E-1,1.383569092E-1,7.207997888E-2
1.470441361E1,-5.948125124E-1,1.627907902E-1,7.941014320E-2
1.471412746E1,-6.607840061E-1,1.130067464E-2,4.642439261E-2
1.472384043E1,-7.511894107E-1,-2.049392611E-1,8.551862091E-3
1.473355262E1,-8.831323981E-1,-3.906368315E-1,-2.443389036E-2
1.474326564E1,-1.043174386E0,-5.665608048E-1,-5.741964281E-2
1.475297949E1,-1.253305912E0,-7.388197780E-1,-5.986303091E-2
1.476269241E1,-1.490467310E0,-8.951966763E-1,-8.551862091E-3
1.477240465E1,-1.699377060E0,-9.807152748E-1,6.352811307E-2
1.478211762E1,-1.919282079E0,-9.440644383E-1,1.209477559E-1
1.479183147E1,-2.169729471E0,-8.328902125E-1,1.612636745E-1
1.480154444E1,-2.378639221E0,-7.143858671E-1,1.624853760E-1
1.481125663E1,-2.454384327E0,-6.166502833E-1,1.356080920E-1
1.482096965E1,-2.414068460E0,-5.677825212E-1,1.172826737E-1
1.483068350E1,-2.334658146E0,-5.335750580E-1,1.319430023E-1
1.484039642E1,-2.283347130E0,-5.238015056E-1,1.808107942E-1
1.485010866E1,-2.298007488E0,-5.262449384E-1,2.748812735E-1
1.485982163E1,-2.329771519E0,-3.857500553E-1,3.994941115E-1
1.486953548E1,-2.349318504E0,-6.933116168E-2,5.070032477E-1
1.487924845E1,-2.373752356E0,2.727433145E-1,5.668662786E-1
1.488896064E1,-2.425063610E0,5.256340504E-1,5.693096519E-1
1.489867366E1,-2.447054148E0,6.148177385E-1,4.801259339E-1
1.490838751E1,-2.385969400E0,5.696150661E-1,3.115321100E-1
1.491810043E1,-2.304115772E0,5.573981404E-1,1.478250325E-1
1.492781267E1,-2.284568787E0,6.099309921E-1,9.284878522E-2
1.493752564E1,-2.288233757E0,8.115105629E-1,1.942494214E-1
1.494723949E1,-2.251583099E0,1.094943762E0,3.677300513E-1
1.495695246E1,-2.169729471E0,1.352721214E0,5.412106514E-1
1.496666465E1,-2.032899618E0,1.473669052E0,6.817055345E-1
1.497637767E1,-1.856975675E0,1.407697558E0,7.904363275E-1
1.498609152E1,-1.681051612E0,1.228108406E0,8.319739699E-1
1.499580444E1,-1.575985909E0,1.014311910E0,7.708892226E-1
1.500551668E1,-1.572320819E0,8.848122358E-1,6.230642200E-1
1.501522965E1,-1.652952671E0,8.163973689E-1,3.860554695E-1
1.502494350E1,-1.834985137E0,7.748597264E-1,6.352811307E-2
1.503465647E1,-2.102536201E0,7.430956960E-1,-2.101314515E-1
1.504436866E1,-2.313889503E0,7.528692484E-1,-3.090887070E-1
1.505408168E1,-2.381082535E0,8.872556686E-1,-2.357870489E-1
1.506379553E1,-2.256469727E0,1.028972149E0,-3.176405653E-2
