"Time (s)","Acceleration x (m/s^2)","Acceleration y (m/s^2)","Acceleration z (m/s^2)"
6.495724900E-2,1.184746265E0,-1.327747345E1,-3.549752474E0
7.467115500E-2,1.191924810E0,-1.175234795E1,-4.715655327E0
8.438417600E-2,1.884347759E-2,-1.033519936E1,-5.060520649E0
9.409651900E-2,-1.779063582E0,-9.250652313E0,-4.600799561E0
1.038096960E-1,-3.490829229E0,-9.025427818E0,-4.320839405E0
1.135236030E-1,-4.005585194E0,-9.119047165E0,-4.291826725E0
1.232366760E-1,-2.641077995E0,-9.195617676E0,-6.463313103E0
1.329489670E-1,-6.011967063E-1,-9.315258980E0,-1.012164021E1
1.426621440E-1,2.046461582E0,-9.715159416E0,-1.286530972E1
1.523760510E-1,3.317947626E0,-9.928120613E0,-1.475653744E1
1.620891240E-1,4.115056515E0,-1.012433147E1,-1.520907974E1
1.718014150E-1,4.560420990E0,-9.961619377E0,-1.436142254E1
1.815145920E-1,4.519742966E0,-9.470791817E0,-1.219023514E1
1.912284990E-1,4.361517429E0,-8.740681648E0,-9.281160355E0
2.009415710E-1,3.935595036E0,-7.739883900E0,-6.152245998E0
2.106538630E-1,3.322733402E0,-6.562016964E0,-2.934497833E0
2.203670400E-1,2.032104731E0,-5.118247509E0,-7.701897621E-1
2.300809460E-1,6.460621357E-1,-3.533600807E0,-1.597209126E-1
2.397940190E-1,-9.819545746E-1,-2.614158630E0,1.113858938E0
2.495063630E-1,-2.176571369E0,-2.736192703E0,5.071288586E0
2.592194360E-1,-3.256332397E0,-4.182354927E0,8.389534950E0
2.689333940E-1,-3.955335855E0,-6.416054726E0,1.017787075E1
2.786464670E-1,-4.240380764E0,-8.469993591E0,6.014658928E0
2.883588110E-1,-3.536591768E0,-1.112273693E1,-5.395515919E0
2.980719880E-1,-1.357926846E0,-1.513041592E1,-1.156750298E1
3.077858940E-1,5.886343718E-1,-1.936571121E1,-1.115832996E1
3.174989150E-1,1.232602715E0,-2.238694954E1,-1.019581699E1
3.272112590E-1,1.648056656E-1,-2.299981117E1,-6.839285374E0
3.369244360E-1,-3.260220885E-1,-2.243480682E1,-4.081258297E0
3.466383420E-1,-9.460622668E-1,-2.108704948E1,-4.294219494E0
3.563514150E-1,-2.152642965E0,-1.945185280E1,-5.302196026E0
3.660637070E-1,-3.273082256E0,-1.835294914E1,-5.005486012E0
3.757768840E-1,-4.407878399E0,-1.712483406E1,-4.234398842E0
3.854907900E-1,-4.714458942E0,-1.542742443E1,-3.686143398E0
3.952038630E-1,-3.550948858E0,-1.390229988E1,-2.960819006E0
4.049161550E-1,-2.566900492E0,-1.278664589E1,-2.316850424E0
4.146293320E-1,-2.190928221E0,-1.189143085E1,-1.656132340E0
4.243432380E-1,-1.625923038E0,-1.098395348E1,-9.257232547E-1
4.340563110E-1,-6.876373887E-1,-9.863513947E0,-1.716850251E-1
4.437686030E-1,-2.087737769E-1,-8.532505989E0,2.617149651E-1
4.534817800E-1,-3.116651475E-1,-7.007380962E0,7.238288224E-2
4.631956860E-1,-9.939187169E-1,-5.613861084E0,-1.381855011E-1
4.729087590E-1,-1.515853167E0,-4.550849438E0,-7.836493850E-2
4.826211030E-1,-1.930110574E0,-3.679563046E0,7.776673418E-3
4.923341760E-1,-2.657827854E0,-2.908775091E0,-3.463610709E-1
5.020481340E-1,-3.201297522E0,-2.319542408E0,-1.179661512E0
5.117612070E-1,-3.246761322E0,-1.840977907E0,-2.058425665E0
5.214735510E-1,-2.662613392E0,-1.572682738E0,-2.077568293E0
5.311867280E-1,-1.269392371E0,-1.756929994E0,-1.390229940E0
5.409006340E-1,5.168496966E-1,-1.972583175E0,-1.308874011E0
5.506136550E-1,1.455135226E0,-2.123331070E0,-2.400599241E0
5.603259990E-1,2.012962103E0,-3.064308405E0,-5.424229622E0
5.700391760E-1,2.420041084E0,-3.088236809E0,-7.959724426E0
5.797530820E-1,2.175973177E0,-2.468196630E0,-9.594920158E0
5.894661550E-1,3.056830883E0,-2.874976397E0,-1.147896862E1
5.991784460E-1,4.467100620E0,-3.650849104E0,-1.120618629E1
6.088916240E-1,5.111069202E0,-3.988237143E0,-4.208077908E0
6.186055300E-1,5.132604599E0,-4.498207569E0,1.403689623E0
6.283186030E-1,3.253341436E0,-3.878167391E0,4.010669708E0
6.380308940E-1,-1.848455518E-1,-5.283651352E0,7.487142086E0
6.477440710E-1,-3.318545818E0,-5.156831741E0,4.053740501E0
6.574579780E-1,-1.090080261E1,-7.945965767E0,-1.642044640E1
6.671710510E-1,-9.504889488E0,-1.246361542E1,-5.553741455E0
6.768833940E-1,-5.751149178E0,-1.717986870E1,2.213360928E-2
6.865964670E-1,-4.265206456E-1,-1.826680756E1,7.530212879E0
6.963104260E-1,5.460421085E0,-2.090040779E1,1.223928738E1
7.060234990E-1,7.634300709E0,-1.914287949E1,9.708579063E0
7.157358420E-1,6.956832886E0,-1.705065536E1,3.529413462E0
7.254490190E-1,3.478266716E0,-1.529103374E1,-5.380859971E-1
7.351629260E-1,-1.848455518E-1,-1.439552021E1,-1.481157184E0
7.448759460E-1,-2.492722988E0,-1.469252968E1,-1.857129455E0
7.545882900E-1,-3.048156977E0,-1.576720524E1,-8.228318691E-1
7.643014670E-1,-1.563709617E0,-1.639950943E1,-9.547362328E-1
7.740153740E-1,4.277170449E-2,-1.623649788E1,-1.909771562E0
7.837284460E-1,1.115354419E0,-1.522373581E1,-2.939283609E0
7.934407380E-1,1.017248750E0,-1.370130253E1,-3.940081596E0
8.031539150E-1,5.886343718E-1,-1.191775227E1,-4.552943230E0
8.128678210E-1,3.107678294E-1,-1.034955597E1,-4.866702080E0
8.225808940E-1,-1.872383654E-1,-9.303294182E0,-4.952843666E0
8.322932380E-1,-1.096810102E0,-8.436494827E0,-4.967200756E0
8.420064150E-1,-3.110370398E0,-8.537292480E0,-5.022235394E0
8.517203210E-1,-4.046263218E0,-9.253045082E0,-5.125126839E0
8.614333420E-1,-2.248355865E0,-9.837192535E0,-6.913462639E0
8.711456860E-1,1.316351533E0,-1.076620674E1,-1.008335495E1
8.808588630E-1,4.320839405E0,-1.116102219E1,-1.277438259E1
8.905727690E-1,6.073582172E0,-1.099352455E1,-1.362891960E1
9.002858420E-1,6.123831272E0,-1.018205833E1,-1.273609734E1
9.099981340E-1,5.364708424E0,-8.824430466E0,-1.114158058E1
9.197113110E-1,4.131806374E0,-7.507780075E0,-9.257232666E0
9.294252170E-1,2.566003084E0,-6.406483650E0,-6.877570629E0
9.391382900E-1,1.536491275E0,-5.601896763E0,-4.488337040E0
9.488506340E-1,7.154539824E-1,-4.835894585E0,-2.580060959E0
9.585638110E-1,2.123630047E-2,-4.261318207E0,-1.378265858E0
9.682777170E-1,-1.108774185E0,-3.591028690E0,-5.261218548E-1
9.779907900E-1,-1.329213023E0,-3.279662609E0,1.604686737E0
9.877030820E-1,-8.814560175E-1,-3.684348583E0,6.055336952E0
9.974162590E-1,-1.808076620E0,-4.694717884E0,8.700901031E0
1.007130165E0,-2.818146944E0,-6.219544411E0,8.442177773E0
1.016843238E0,-3.328117132E0,-8.139784813E0,2.650948286E0
1.026555582E0,-3.347259760E0,-1.109162998E1,-6.817749977E0
1.036268759E0,-3.661018610E0,-1.490070438E1,-1.038724327E1
1.045982665E0,-2.351247311E0,-1.895863342E1,-1.002831936E1
1.055695738E0,-1.377069473E0,-2.165683937E1,-1.106022453E1
1.065408030E0,-1.305284739E0,-2.218595314E1,-9.331410408E0
1.075121207E0,-9.939187169E-1,-2.237019920E1,-6.949355125E0
1.084835113E0,-4.552344978E-1,-2.180998039E1,-6.681358814E0
1.094548186E0,-5.294119939E-2,-2.092672920E1,-6.090032578E0
1.104260530E0,-7.977072597E-1,-1.990439606E1,-4.509872437E0
1.113973707E0,-2.186142683E0,-1.825484467E1,-3.130709410E0
1.123687613E0,-3.002693415E0,-1.608814240E1,-2.276172638E0
1.133400686E0,-2.964408159E0,-1.407458305E1,-2.043769598E0
1.143113030E0,-2.753540754E0,-1.258086300E1,-1.967199326E0
1.152826207E0,-2.377867460E0,-1.133599758E1,-1.442872047E0
1.162540113E0,-1.810469389E0,-1.010279655E1,-8.754739761E-1
1.172253186E0,-1.542174220E0,-8.814859390E0,-5.213362575E-1
1.181965478E0,-1.170987606E0,-7.491030216E0,-2.769692242E-1
1.191678707E0,-9.723833203E-1,-6.202794552E0,-4.112663865E-1
1.201392613E0,-1.094417214E0,-5.048855782E0,-4.351946115E-1
1.211105686E0,-1.216451168E0,-3.952344894E0,-7.941179872E-1
1.220817978E0,-1.331605792E0,-2.932703257E0,-1.598704576E0
1.230531155E0,-1.489532113E0,-2.228615284E0,-2.271386862E0
1.240245061E0,-1.613958836E0,-1.795514345E0,-2.414956331E0
1.249958134E0,-1.611566067E0,-1.536790371E0,-1.909771562E0
1.259670478E0,-1.302891970E0,-1.290329576E0,-1.043270707E0
1.269383655E0,-3.619144261E-1,-1.179960608E0,-7.701897621E-1
1.279097561E0,5.407779217E-1,-7.923234105E-1,-2.072782516E0
1.288810738E0,5.982056856E-1,-9.765707254E-1,-5.158626556E0
1.298522978E0,1.408774406E-1,-1.972583175E0,-7.703692436E0
1.308236155E0,-2.691925503E-3,-1.941476464E0,-8.479266167E0
1.317950061E0,1.055533886E0,-2.123331070E0,-1.151007557E1
1.327663134E0,4.021736622E0,-3.236591816E0,-1.361695576E1
1.337375478E0,5.929713726E0,-3.971487284E0,-6.372385979E0
1.347088655E0,6.150152206E0,-4.761716843E0,1.434796333E0
1.356802613E0,4.486243248E0,-4.543671131E0,7.467700481E0
1.366515686E0,1.287637711E0,-5.219045162E0,1.262483120E1
1.376228030E0,-1.994716763E0,-6.456732750E0,9.411869049E0
1.385941207E0,-1.297388458E1,-8.568398476E0,-1.901097679E1
1.395655113E0,-9.722935677E0,-1.167817116E1,-1.239123249E1
1.405368186E0,-5.624030590E0,-1.628914070E1,-3.705285788E0
1.415080530E0,-7.953144312E-1,-1.832184219E1,1.001037312E1
1.424793707E0,4.280161381E0,-2.115165520E1,1.500449371E1
1.434507613E0,7.133901596E0,-1.993789482E1,1.221535969E1
1.444220790E0,6.174080849E0,-1.760369682E1,4.305285931E0
1.453933030E0,3.255734205E0,-1.560927963E1,-2.034198284E0
1.463646259E0,-5.078766346E-1,-1.445773315E1,-3.013461113E0
1.473360165E0,-2.643470764E0,-1.507298851E1,-1.177268744E0
1.483073238E0,-3.096013308E0,-1.594218063E1,-9.930213690E-1
1.492785582E0,-8.718847632E-1,-1.666989899E1,-2.738286495E0
1.502498759E0,9.044869542E-1,-1.668186188E1,-2.776571512E0
1.512212665E0,1.728216171E0,-1.586321735E1,-1.914557219E0
1.521925738E0,1.878963947E0,-1.428784275E1,-2.522633314E0
1.531638134E0,1.627717614E0,-1.230060387E1,-3.712464333E0
1.541351311E0,7.513462901E-1,-1.062951660E1,-4.567300320E0
1.551065217E0,-3.667000830E-1,-9.186046600E0,-5.050949574E0
1.560778290E0,-1.187737346E0,-8.163712502E0,-4.902594566E0
1.570490634E0,-2.109572172E0,-8.477172852E0,-4.837689400E0
1.580203811E0,-2.846860647E0,-9.583254814E0,-5.402694225E0
1.589917769E0,-1.822433591E0,-1.043091202E1,-7.969295979E0
1.599630842E0,2.102692872E-1,-1.092652512E1,-1.171854973E1
1.609343186E0,1.747358680E0,-1.077338505E1,-1.408864021E1
1.619056363E0,2.963510752E0,-1.011236763E1,-1.436860085E1
1.628770321E0,3.171686411E0,-9.008678436E0,-1.335374451E1
1.638483394E0,3.291626692E0,-7.955537319E0,-1.123011494E1
1.648195738E0,3.349054337E0,-6.969096184E0,-8.582157135E0
1.657908915E0,3.090330362E0,-6.286842346E0,-5.699703693E0
1.667622874E0,2.721835852E0,-5.601896763E0,-2.810070992E0
1.677335946E0,2.300399780E0,-4.888536453E0,-7.007979155E-1
1.687048290E0,1.599003673E0,-4.029214382E0,3.717848063E-1
1.696761467E0,3.798605874E-2,-2.994916677E0,3.502494097E-1
1.706475426E0,-1.599601984E0,-2.080260277E0,4.962115884E-1
1.716188499E0,-2.317747831E0,-2.539981127E0,2.787339211E0
1.725900842E0,-3.005086184E0,-4.275674820E0,5.186143875E0
1.735614019E0,-5.099703312E0,-5.822335720E0,5.772684574E0
1.745327978E0,-7.275975227E0,-8.711968422E0,3.989134550E0
1.755041051E0,-7.864908695E0,-1.206132126E1,1.058823988E-1
1.764753394E0,-5.518746376E0,-1.537956810E1,-5.706882000E0
1.774466624E0,-1.393819213E0,-1.912852287E1,-1.059811020E1
1.784180530E0,1.311565876E0,-2.126172447E1,-1.200568867E1
1.793893603E0,2.211865425E0,-2.234866524E1,-1.055743217E1
1.803605999E0,2.106282234E0,-2.216441727E1,-7.291827679E0
1.813319176E0,1.392921925E0,-2.113490486E1,-5.778666496E0
1.823033082E0,3.634099364E-1,-1.975364876E1,-5.223232746E0
1.832746259E0,-1.393819213E0,-1.841994858E1,-4.481158733E0
1.842458551E0,-3.739981890E0,-1.696451378E1,-4.031008720E0
1.852171728E0,-5.087738991E0,-1.560688686E1,-3.619144201E0
1.861885686E0,-4.831707001E0,-1.429023552E1,-3.267399311E0
1.871598759E0,-3.677768469E0,-1.353829098E1,-3.078067303E0
1.881311103E0,-2.360818624E0,-1.326790237E1,-2.446063042E0
1.891024332E0,-9.867402315E-1,-1.266461182E1,-1.249053478E0
1.900738238E0,3.658027649E-1,-1.179302597E1,-2.793620527E-1
1.910451415E0,9.930213690E-1,-1.047637558E1,-8.793623000E-2
1.920163707E0,8.805587292E-1,-8.831609726E0,-5.237290859E-1
1.929876884E0,3.083750308E-1,-7.229913712E0,-9.499505758E-1
1.939590842E0,-4.528416991E-1,-5.683252811E0,-9.523434043E-1
1.949303915E0,-1.286142230E0,-4.385744572E0,-1.021735311E0
1.959016259E0,-2.312962294E0,-3.349054337E0,-7.606185079E-1
1.968729488E0,-3.364009619E0,-2.496910334E0,-3.535395563E-1
1.978443394E0,-3.933800459E0,-1.936690807E0,-3.487538993E-1
1.988156571E0,-3.972085476E0,-1.539183140E0,-9.403793216E-1
1.997868863E0,-3.711267948E0,-1.069890857E0,-1.603490233E0
2.007582040E0,-2.904288530E0,-8.473583460E-1,-2.115853310E0
2.017295999E0,-1.875075698E0,-7.372884750E-1,-3.272184849E0
2.027009071E0,-5.437689424E-1,-5.024927258E-1,-6.379564285E0
2.036721467E0,9.619147182E-1,-1.158425212E0,-1.130429268E1
2.046434644E0,1.864607096E0,-1.500898004E0,-1.440957832E1
2.056148603E0,2.807977438E0,-1.273579836E0,-1.507747459E1
2.065861676E0,4.538885593E0,-2.542374134E0,-1.209183025E1
2.075574019E0,5.599503994E0,-3.741776466E0,-4.799404144E0
2.085287249E0,5.503791332E0,-4.093820572E0,1.786541224E0
2.095001155E0,4.129413605E0,-4.522135735E0,7.501499176E0
2.104714332E0,2.108675003E0,-5.123033047E0,1.170778179E1
2.114426624E0,-4.360919297E-1,-6.605087757E0,1.113320541E1
2.124139853E0,-1.186780167E1,-8.419744492E0,-8.819346428E0
2.133853759E0,-1.233470154E1,-9.885049820E0,-1.004028416E1
2.143566832E0,-7.812266827E0,-1.443380547E1,-8.295019150E0
2.153279228E0,-1.795813441E0,-1.663400650E1,2.358724833E0
2.162992405E0,3.495016575E0,-1.909502411E1,1.003190899E1
2.172706363E0,7.459624767E0,-1.980389786E1,1.220339584E1
2.182419436E0,7.383054256E0,-1.981107521E1,9.119645119E0
2.192131832E0,4.775774956E0,-1.844148445E1,2.255833626E0
2.201845009E0,1.297209024E0,-1.646411514E1,-4.378267288E0
2.211558967E0,-1.025025368E0,-1.588236046E1,-5.606383324E0
2.221272040E0,-1.307677627E0,-1.614078522E1,-3.207578659E0
2.230984436E0,-9.005986452E-1,-1.693819237E1,-1.174875975E0
2.240697613E0,-3.786641955E-1,-1.711765480E1,1.633101404E-1
2.250411571E0,1.313061416E-1,-1.642343712E1,-7.773682475E-1
2.260124644E0,5.670989752E-1,-1.501316738E1,-3.808476448E0
2.269836988E0,8.997012973E-1,-1.345454216E1,-7.133901596E0
2.279550217E0,1.069890857E0,-1.194646645E1,-8.656334877E0
2.289264176E0,6.149554253E-1,-1.055533886E1,-7.318149090E0
2.298977249E0,-4.791627228E-1,-9.320044518E0,-5.376373291E0
2.308689592E0,-1.937289000E0,-8.762217522E0,-4.813760757E0
2.318402821E0,-2.906681299E0,-8.405387878E0,-5.091627598E0
2.328116728E0,-2.882753134E0,-8.113463402E0,-6.757929325E0
2.337829905E0,-2.832503796E0,-7.687242031E0,-1.009531879E1
2.347542196E0,-1.999502420E0,-6.990631580E0,-1.303520012E1
2.357255426E0,-5.820540786E-1,-6.430411816E0,-1.427288818E1
2.366969384E0,1.244566917E0,-6.411269188E0,-1.371506119E1
2.376682457E0,3.166900873E0,-6.384948254E0,-1.150768185E1
2.386394801E0,4.323232174E0,-6.198009014E0,-8.749654770E0
2.396108030E0,4.660919189E0,-5.819942951E0,-5.922235966E0
2.405821988E0,4.105485439E0,-5.079962254E0,-3.889832258E0
2.415535061E0,3.133401155E0,-4.407280445E0,-2.520240545E0
2.425247405E0,1.895713687E0,-3.674777269E0,-1.282552958E0
2.434960634E0,4.737788737E-1,-3.102593660E0,-6.161518395E-2
2.444674592E0,-5.006981492E-1,-3.128914595E0,2.191227436E0
2.454387665E0,-1.970788598E0,-4.292424679E0,3.474378586E0
2.464100061E0,-4.245166302E0,-6.253343105E0,2.962015390E0
2.473813238E0,-6.253642082E0,-8.953642845E0,2.337189436E0
2.483527196E0,-7.900801182E0,-1.216182041E1,1.130608678E0
2.493240269E0,-7.122834682E0,-1.600200081E1,-1.577169180E0
2.502952613E0,-2.387438774E0,-2.001925087E1,-6.427420616E0
2.512665842E0,1.871785522E0,-2.255235291E1,-1.252044487E1
2.522379801E0,3.111865759E0,-2.315803719E1,-1.409821224E1
2.532092874E0,2.207079887E0,-2.353849602E1,-1.053111172E1
2.541805269E0,6.699903607E-1,-2.327528572E1,-8.048258781E0
2.551518446E0,-1.142273664E0,-2.200409698E1,-6.564110756E0
2.561232405E0,-2.233999014E0,-2.029711723E1,-5.244768143E0
2.570945478E0,-3.582055569E0,-1.844387627E1,-4.052544117E0
2.580657874E0,-4.606482506E0,-1.638036728E1,-2.723929405E0
2.590371051E0,-3.986442566E0,-1.435484219E1,-1.785344839E0
2.600085009E0,-2.564507723E0,-1.327747345E1,-1.469193101E0
2.609798082E0,-1.599601984E0,-1.215464211E1,-1.229910851E0
2.619510478E0,-6.586244106E-1,-1.088106155E1,-5.691927075E-1
2.629223655E0,5.473581702E-2,-9.556933403E0,-2.362912297E-1
2.638937613E0,1.671984792E-1,-8.233104706E0,-1.525424421E-1
2.648650790E0,1.600200087E-1,-6.801299095E0,2.162513435E-1
2.658363082E0,-3.140579760E-1,-5.489434242E0,8.003991842E-1
2.668076259E0,-1.010668516E0,-4.304389000E0,1.266999602E0
2.677790217E0,-1.920539260E0,-3.150450230E0,1.379761338E0
2.687503394E0,-2.770290375E0,-2.199901342E0,1.427617788E0
2.697215686E0,-3.163012505E0,-1.646860242E0,9.343972206E-1
2.706928915E0,-3.167798042E0,-1.342971683E0,-7.357929647E-2
2.716642821E0,-3.045764208E0,-9.957132936E-1,-1.155733347E0
2.726355999E0,-2.380260229E0,-8.449655175E-1,-1.713560104E0
2.736068290E0,-9.484550953E-1,-9.000003934E-1,-1.191625714E0
2.745781519E0,5.144568682E-1,-4.187439680E-1,-1.933699846E0
2.755495426E0,1.156032443E0,-1.498505235E0,-3.741178274E0
2.765208603E0,2.164009094E0,-6.990033388E-1,-6.894320011E0
2.774920894E0,2.599502802E0,-2.895315289E-1,-1.030588722E1
2.784634124E0,2.985046148E0,-1.103390336E0,-1.302084351E1
2.794348030E0,5.321637630E0,-1.896012783E0,-1.716730690E1
2.804061207E0,6.075974941E0,-3.116950512E0,-9.614062309E0
2.813773499E0,5.534897804E0,-4.754538536E0,-2.881855726E0
2.823486728E0,3.090330362E0,-6.083153248E0,3.852743626E0
2.833200686E0,-4.384847581E-1,-7.464709282E0,1.260808182E1
2.842913759E0,-4.922634602E0,-8.453244209E0,1.253629684E1
2.852626103E0,-1.380239964E1,-1.133839035E1,-8.912666321E0
2.862339332E0,-8.300702095E0,-1.202064323E1,-1.171615696E1
2.872053290E0,-3.096013308E0,-1.373719501E1,-1.179661512E0
2.881766363E0,2.820539773E-1,-1.730668831E1,7.597211838E0
2.891478759E0,3.734298944E0,-1.921257210E1,1.069741249E1
2.901191936E0,5.625824928E0,-1.907827377E1,1.037198925E1
2.910905894E0,5.261816978E0,-1.877199364E1,7.448557854E0
2.920618967E0,3.229114056E0,-1.787647820E1,1.815255046E0
2.930331363E0,7.010970116E-1,-1.632263947E1,-4.397409916E0
2.940044540E0,-4.863412082E-1,-1.616949844E1,-5.407480240E0
2.949758499E0,-4.743770957E-1,-1.711047745E1,-4.019044876E0
2.959471571E0,-7.447660714E-2,-1.799612045E1,-2.154138565E0
2.969183967E0,1.408774406E-1,-1.784537125E1,-1.012163997E0
2.978897144E0,-2.255235314E-1,-1.656461334E1,-1.715952992E0
2.988611103E0,-5.126622319E-1,-1.471645737E1,-3.784548044E0
2.998324280E0,-7.761718631E-1,-1.277946758E1,-5.460421085E0
3.008036571E0,-1.130309582E0,-1.102223873E1,-6.226423740E0
3.017749749E0,-1.415354609E0,-9.779765129E0,-6.087639809E0
3.027463707E0,-1.362712502E0,-8.582756042E0,-5.400301456E0
3.037176884E0,-1.319641709E0,-7.684848785E0,-5.065306664E0
3.046889176E0,-1.599601984E0,-8.276175499E0,-5.393123150E0
3.056602405E0,-7.522436380E-1,-8.537292480E0,-6.515954971E0
3.066316311E0,2.437688112E-1,-8.292924881E0,-9.104091644E0
3.076029488E0,1.529312730E0,-8.144570351E0,-1.276002598E1
3.085741780E0,2.501396894E0,-7.900203228E0,-1.500329685E1
3.095455009E0,3.126222849E0,-7.536494255E0,-1.518036556E1
3.105168967E0,3.863810301E0,-7.388139248E0,-1.322901917E1
3.114882040E0,4.261018753E0,-7.378567696E0,-1.010967541E1
3.124594384E0,4.036093712E0,-7.325626373E0,-6.576074600E0
3.134307613E0,3.375375509E0,-6.937989235E0,-2.886641502E0
3.144021571E0,2.475075960E0,-6.147759438E0,-3.559323549E-1
3.153734644E0,1.237388372E0,-5.058426857E0,3.239283562E-1
3.163447040E0,-3.499503136E-1,-4.065106392E0,-1.980060786E-1
3.173160217E0,-1.647458434E0,-3.404089212E0,1.274178028E-1
3.182874176E0,-2.519043922E0,-4.199104786E0,1.841576099E0
3.192587249E0,-3.488436222E0,-5.953940868E0,4.128217220E0
3.202299644E0,-4.386343002E0,-7.737491131E0,5.705685616E0
3.212012821E0,-5.195715427E0,-1.006929684E1,5.171787262E0
3.221726780E0,-4.056133270E0,-1.317458248E1,2.617149651E-1
3.231439853E0,-6.825526357E-1,-1.688046646E1,-6.360421658E0
3.241152249E0,1.055533886E0,-2.009103584E1,-1.339681530E1
3.250865426E0,-3.164508045E-1,-2.128086662E1,-1.726092529E1
3.260579384E0,-2.171785593E0,-2.203041840E1,-1.329870987E1
3.270292457E0,-2.973979473E0,-2.333749771E1,-8.824131966E0
3.280004853E0,-3.493520975E0,-2.348585320E1,-7.162615299E0
3.289718030E0,-3.548556089E0,-2.254039001E1,-5.453242779E0
3.299431988E0,-3.452543974E0,-2.060100746E1,-3.281756163E0
3.309145165E0,-2.492722988E0,-1.857548141E1,-2.142174482E0
3.318857457E0,-2.025823355E0,-1.590868092E1,-2.273779631E0
3.328570634E0,-1.274178028E0,-1.357926846E1,-2.661715984E0
3.338284592E0,-1.099202871E0,-1.164945698E1,-2.307279348E0
3.347997769E0,-8.982058167E-1,-9.987940788E0,-1.263410330E0
3.357710061E0,-8.934201598E-1,-8.493922234E0,-4.950151742E-1
3.367423290E0,-1.211665511E0,-7.256234646E0,-8.075776696E-2
3.377137196E0,-1.520638824E0,-6.178866386E0,-4.007977992E-2
3.386850374E0,-1.573280931E0,-5.271687508E0,2.162513435E-1
3.396562665E0,-1.585245013E0,-4.479064941E0,7.980063558E-1
3.406275894E0,-1.558923960E0,-3.736990690E0,1.453938842E0
3.415989801E0,-1.479960799E0,-3.150450230E0,1.932802439E0
3.425702978E0,-1.389033556E0,-2.528017044E0,1.626222134E0
3.435415269E0,-1.666600943E0,-1.711466432E0,6.780661345E-1
3.445128499E0,-1.676172256E0,-9.454640746E-1,-6.457630396E-1
3.454842405E0,-9.269196987E-1,-3.421736360E-1,-1.627418518E0
3.464555582E0,1.863410622E-1,-5.192425251E-1,-1.605883121E0
3.474267874E0,7.657032609E-1,-1.472184181E0,-1.311266780E0
3.483981103E0,1.397707582E0,-1.579861164E0,-1.531705618E0
3.493695009E0,2.259721994E0,-8.856434822E-1,-2.347957134E0
3.503408186E0,3.722334623E0,-1.057926655E0,-5.627918720E0
3.513120478E0,4.296911240E0,-3.016452074E0,-1.163958645E1
3.522833707E0,4.543671131E0,-2.927917719E0,-1.669113350E1
3.532547613E0,4.138985157E0,-3.061915636E0,-1.197697449E1
3.542260790E0,2.525325298E0,-4.723432064E0,-2.582453728E0
3.551973082E0,2.892324328E-1,-7.131807804E0,2.009372711E0
3.561686311E0,-3.093620539E0,-8.769395828E0,5.629115105E0
3.571400217E0,-6.371189594E0,-1.118016434E1,4.123431683E0
3.581113394E0,-7.400402069E0,-1.279382420E1,2.282154560E-1
3.590825686E0,-3.967299938E0,-1.365583897E1,-2.161317110E0
3.600538915E0,3.107678294E-1,-1.344018555E1,3.981956005E0
3.610252821E0,2.487040043E0,-1.609053612E1,6.718447685E0
3.619965999E0,4.584349155E0,-1.756780434E1,6.268298149E0
3.629678290E0,3.674478292E0,-1.733779526E1,4.736293316E0
3.639391519E0,8.829515576E-1,-1.712722588E1,2.014158487E0
3.649105426E0,-1.403390527E0,-1.652872086E1,-2.089532375E0
3.658818603E0,-2.188535452E0,-1.655743599E1,-4.967200756E0
3.668530894E0,-4.001995921E-1,-1.784537125E1,-3.777369738E0
3.678244124E0,1.450349569E0,-1.897538185E1,-1.182054400E0
3.687958030E0,1.792822361E0,-1.844387627E1,-4.304089844E-1
3.697671207E0,1.349851131E0,-1.681346703E1,-1.790130496E0
3.707383499E0,-9.870393202E-3,-1.453191090E1,-4.342374802E0
3.717096728E0,-1.546959877E0,-1.255214977E1,-7.117151737E0
3.726810634E0,-2.178964138E0,-1.113470078E1,-8.342875481E0
3.736523811E0,-2.653042078E0,-1.021316528E1,-7.638787270E0
3.746236103E0,-3.234797001E0,-9.806086540E0,-5.888736725E0
3.755949332E0,-3.653840065E0,-9.686445236E0,-4.193720818E0
3.765663238E0,-3.349652529E0,-9.355937004E0,-3.849154234E0
3.775376415E0,-2.198106766E0,-8.838788033E0,-5.910272121E0
3.785088707E0,-6.394818425E-1,-8.065607071E0,-9.429815292E0
3.794801936E0,3.753740489E-1,-7.052844524E0,-1.238644600E1
3.804515842E0,1.060319543E0,-6.085546017E0,-1.403599834E1
3.814229019E0,2.197508574E0,-5.786443233E0,-1.355952740E1
3.823941311E0,3.466302633E0,-5.796014786E0,-1.164197922E1
3.833654540E0,4.141377926E0,-5.872584820E0,-9.175876617E0
3.843368446E0,4.043272018E0,-5.977869034E0,-6.432206154E0
3.853081624E0,3.107080221E0,-6.006583214E0,-3.801297903E0
3.862793915E0,1.740180254E0,-5.609075546E0,-1.558026671E0
3.872507092E0,3.705884218E-1,-4.744967461E0,-3.511467278E-1
3.882221051E0,-1.106381416E0,-4.041178226E0,1.256231871E-2
3.891934228E0,-1.515853167E0,-4.297210217E0,1.406082392E0
3.901646519E0,-2.145464659E0,-5.762515068E0,3.991527319E0
3.911359696E0,-3.143869877E0,-7.471887589E0,5.373083115E0
3.921073655E0,-3.555734396E0,-9.375079155E0,4.851148605E0
3.930786832E0,-2.516651154E0,-1.177866936E1,1.099501967E0
3.940499124E0,-1.310070395E0,-1.592064571E1,-5.070092201E0
3.950212301E0,6.771687865E-1,-1.936092567E1,-9.051449776E0
3.959926259E0,1.718644857E0,-2.109901237E1,-1.138325596E1
3.969639436E0,5.527420044E-1,-2.158744812E1,-1.110808086E1
3.979351728E0,-7.091727853E-1,-2.180280113E1,-9.116056442E0
3.989064905E0,-1.036989570E0,-2.149652100E1,-9.020342827E0
3.998778863E0,-1.700100541E0,-2.080439568E1,-9.642776489E0
4.008492040E0,-2.830111027E0,-2.019631958E1,-8.005187988E0
4.018204332E0,-3.687339783E0,-1.922692871E1,-4.519443989E0
4.027917509E0,-3.656233072E0,-1.768026733E1,-2.434098721E0
4.037631467E0,-2.224427700E0,-1.561406517E1,-1.945663929E0
4.047344540E0,-6.562315822E-1,-1.388554955E1,-1.775773525E0
4.057056936E0,-2.422732860E-2,-1.202782249E1,-1.275374413E0
4.066770113E0,-2.901297435E-2,-1.021555805E1,-8.419744968E-1
4.076484071E0,-6.490531564E-2,-8.424530029E0,-3.367897868E-1
4.086197144E0,-1.537388563E-1,-6.887740135E0,-6.640082598E-2
4.095909540E0,-2.542374134E-1,-5.520540714E0,2.090728730E-1
4.105622717E0,-6.801598072E-1,-4.251746655E0,6.134598851E-1
4.115336676E0,-1.142273664E0,-3.401696444E0,1.046859860E0
4.125049749E0,-1.616351724E0,-2.726621389E0,1.020538807E0
4.134762092E0,-2.116750717E0,-2.250150681E0,4.794618487E-1
4.144475321E0,-2.528615236E0,-1.800299883E0,-2.913261652E-1
4.154189280E0,-2.492722988E0,-1.393221021E0,-1.205982566E0
4.163902353E0,-1.668993831E0,-1.081854939E0,-2.048555374E0
4.173614696E0,1.360917836E-1,-7.827520967E-1,-2.125424623E0
4.183327926E0,1.967498422E0,-4.019941986E-1,-1.337587833E0
4.193041832E0,1.036391258E0,-1.567897081E0,-5.691927075E-1
4.202755009E0,1.455135226E0,-7.827520967E-1,-1.292124271E0
4.212467301E0,1.567897081E0,-1.244267747E-1,-2.953640461E0
4.222180530E0,2.027318954E0,3.735794425E-1,-6.279065609E0
4.231894436E0,2.499004126E0,-1.252044439E0,-1.176879883E1
4.241607613E0,3.621836185E0,-1.136889815E0,-1.717926979E1
4.251319905E0,5.168497086E0,-2.233400822E0,-1.236491108E1
4.261033082E0,4.445565224E0,-3.464209080E0,-4.663012981E0
4.270747040E0,2.353041887E0,-5.376971722E0,2.526521683E0
4.280460113E0,9.062815458E-2,-6.413661957E0,7.503891945E0
4.290172509E0,-6.560222149E0,-9.489934921E0,6.608377934E0
4.299885686E0,-1.002682400E1,-1.265264797E1,-1.924128532E0
4.309599644E0,-7.347760201E0,-1.477149200E1,-4.672584534E0
4.319312717E0,-1.901396751E0,-1.510409451E1,5.084748194E-2
4.329025113E0,1.785643935E0,-1.699322891E1,6.866802692E0
4.338738290E0,4.960321426E0,-1.972971916E1,9.433403969E0
4.348452249E0,6.722336292E0,-1.964567184E1,9.653543472E0
4.358165321E0,5.628218174E0,-1.913330841E1,6.728019238E0
4.367877665E0,2.365005970E0,-1.764676857E1,1.875374764E-1
4.377590894E0,-1.472782373E0,-1.697169304E1,-6.420242310E0
4.387304801E0,-2.787040234E0,-1.754866219E1,-7.397111893E0
4.397017978E0,-3.103191853E0,-1.867149353E1,-4.825725079E0
4.406730269E0,-2.023430586E0,-1.932742691E1,-1.802094579E0
4.416443499E0,-6.203392744E-1,-1.882702827E1,-5.309075117E-1
4.426157405E0,-3.858426586E-2,-1.719901085E1,-1.045663476E0
4.435870582E0,-1.776670814E-1,-1.488634777E1,-3.458825111E0
4.445582874E0,1.166501082E-2,-1.248993587E1,-5.991927147E0
4.455296051E0,3.559323773E-2,-1.074467087E1,-6.836892605E0
4.465010009E0,-9.915258884E-1,-1.015304565E1,-6.448956013E0
4.474723186E0,-2.253141642E0,-9.329615593E0,-5.426921844E0
4.484435478E0,-2.373081923E0,-8.216354370E0,-4.121936321E0
4.494148655E0,-1.659422517E0,-7.931309700E0,-3.468396425E0
4.503862613E0,-7.235297561E-1,-8.405387878E0,-4.820939541E0
4.513575686E0,7.387840003E-2,-7.993822098E0,-8.400302887E0
4.523288030E0,-4.576273263E-2,-6.880561352E0,-1.309023571E1
4.533001259E0,3.538386524E-1,-6.025725842E0,-1.666002846E1
4.542715217E0,2.008176327E0,-5.872584820E0,-1.708116531E1
4.552428290E0,4.067200184E0,-6.162116528E0,-1.430160141E1
4.562140634E0,5.316852093E0,-6.597909451E0,-1.000199890E1
4.571853863E0,5.139782906E0,-6.430411816E0,-6.066104412E0
4.581567769E0,4.225126743E0,-5.769693375E0,-3.082852840E0
4.591280946E0,2.982653379E0,-4.898108006E0,-9.906286001E-1
4.600993238E0,2.063211441E0,-4.579862595E0,6.684948206E-1
4.610706415E0,1.476670623E0,-4.424029827E0,1.592722535E0
4.620420374E0,1.385743380E0,-4.443172455E0,2.918944597E0
4.630133446E0,4.426721931E-1,-5.475077152E0,4.176073551E0
4.639845842E0,-1.465603828E0,-6.705586433E0,4.604389191E0
4.649559019E0,-3.342474222E0,-7.759026527E0,4.343571186E0
4.659272978E0,-4.431806564E0,-1.005733299E1,1.901695848E0
4.668986051E0,-4.431806564E0,-1.368215942E1,-2.522633314E0
4.678698394E0,-2.023430586E0,-1.695255089E1,-6.611967087E0
4.688411624E0,-7.498508096E-1,-1.945424652E1,-1.149093246E1
4.698125530E0,-7.881359458E-1,-2.084776688E1,-1.354995632E1
4.707838707E0,-1.187737346E0,-2.207588196E1,-1.168265724E1
4.717550999E0,-1.338784218E0,-2.324657059E1,-1.007617569E1
4.727264228E0,-1.446461320E0,-2.333749771E1,-8.955737114E0
4.736978134E0,-2.100000858E0,-2.239412880E1,-7.452147007E0
4.746691311E0,-2.938086987E0,-2.068475533E1,-5.807380676E0
4.756403603E0,-3.153441191E0,-1.856112480E1,-3.669393539E0
4.766116780E0,-2.815753937E0,-1.637797356E1,-2.386242390E0
4.775830738E0,-2.162214279E0,-1.415863037E1,-2.383849621E0
4.785543811E0,-1.714457393E0,-1.227667522E1,-2.259422779E0
4.795256207E0,-1.554138303E0,-1.059601688E1,-1.368694544E0
4.804969384E0,-1.367498159E0,-9.116654396E0,-4.782654345E-1
4.814683290E0,-7.953144312E-1,-7.857132435E0,-8.315058798E-2
4.824396467E0,-5.916253924E-1,-6.597909451E0,-2.811566554E-2
4.834108759E0,-6.179464459E-1,-5.324329376E0,-8.554340899E-2
4.843821988E0,-7.115656137E-1,-4.347459793E0,-3.152543902E-1
4.853535894E0,-1.013061285E0,-3.593421459E0,-2.434697002E-1
4.863248967E0,-1.489532113E0,-3.042773008E0,4.172484577E-1
4.872961363E0,-1.920539260E0,-2.554338217E0,8.267202377E-1
4.882674540E0,-2.111965179E0,-2.219043970E0,5.297111273E-1
4.892388499E0,-2.521436930E0,-1.809871197E0,-1.716850251E-1
4.902101571E0,-2.674577475E0,-1.398006678E0,-1.050449133E0
4.911813915E0,-2.167000055E0,-1.189531922E0,-1.481157184E0
4.921527144E0,-8.144569993E-1,-1.081854939E0,-1.549352705E-1
4.931241051E0,7.322037220E-1,-3.852444589E-1,8.219345808E-1
4.940954228E0,1.447956800E0,-3.900300860E-1,-1.105484009E0
4.950666519E0,3.351447105E0,-1.465005636E0,-2.520240545E0
4.960379696E0,4.445565224E0,-6.125625968E-1,-2.898605585E0
4.970093655E0,4.526921272E0,-4.283152521E-1,-8.062616348E0
4.979806728E0,4.062414646E0,-2.252543449E0,-2.173550415E1
4.989519124E0,4.873880386E0,-1.498505235E0,-2.503430939E1
4.999232301E0,2.937189817E0,-2.496910334E0,-1.292752361E1
5.008946259E0,7.202396393E-1,-5.870192051E0,-2.374278307E0
5.018659332E0,-2.655434847E0,-8.039285660E0,8.791828156E0
5.028371676E0,-7.568199158E0,-1.079970551E1,1.565564060E1
5.038084905E0,-1.051765156E1,-1.403629780E1,8.327322006E0
5.047798811E0,-8.300702095E0,-1.521177197E1,-2.850749016E0
5.057511988E0,-7.307082415E-1,-1.547288895E1,-4.148257256E0
5.067224280E0,4.263411522E0,-1.544896030E1,4.566103935E0
5.076937457E0,6.672086716E0,-1.826441574E1,8.356036186E0
5.086651415E0,9.228817940E0,-1.892513275E1,8.554639816E0
5.096364488E0,8.098807335E0,-1.869781494E1,5.183751106E0
5.106076884E0,3.911666870E0,-1.748644829E1,7.238288224E-2
5.115790061E0,-2.829512656E-1,-1.668186188E1,-4.962415218E0
5.125503967E0,-2.387438774E0,-1.691426468E1,-6.326921940E0
5.135217144E0,-2.909074068E0,-1.751276970E1,-4.837689400E0
5.144929436E0,-2.686541557E0,-1.785494423E1,-2.501097918E0
5.154642613E0,-2.552543640E0,-1.645454407E1,-1.127019525E0
5.164356571E0,-2.554936409E0,-1.432134247E1,-1.888236165E0
5.174069644E0,-1.812862277E0,-1.222403336E1,-3.281756163E0
5.183782040E0,-7.881359458E-1,-1.141974640E1,-4.344767570E0
5.193495217E0,-6.777670383E-1,-1.102941704E1,-4.478765965E0
5.203209176E0,-6.059823632E-1,-9.281759262E0,-3.920938969E0
5.212922249E0,-4.983053207E-1,-8.091927528E0,-4.299005032E0
5.222634592E0,-2.183450609E-1,-7.833203793E0,-5.079663277E0
5.232347821E0,-2.279163599E-1,-8.968000412E0,-5.596812248E0
5.242061728E0,-2.662015148E-2,-9.729516029E0,-6.925426960E0
5.251774905E0,9.954141974E-1,-9.830014229E0,-9.937392235E0
5.261487196E0,2.594717026E0,-1.027298546E1,-1.232423306E1
5.271200374E0,3.542873144E0,-9.971191406E0,-1.293948746E1
5.280914332E0,3.803690672E0,-9.214759827E0,-1.250848007E1
5.290627405E0,3.449553013E0,-8.283353806E0,-1.068185902E1
5.300339749E0,2.784049034E0,-7.174878597E0,-8.263912201E0
5.310052978E0,2.120938063E0,-6.229115486E0,-5.745167255E0
5.319766884E0,1.943570137E0,-5.566004753E0,-2.975175858E0
5.329480061E0,2.067996979E0,-4.768895626E0,-9.954141974E-1
5.339192353E0,2.063211441E0,-3.708276987E0,-3.200400174E-1
5.348905530E0,1.060319543E0,-2.595016241E0,-1.150947690E0
5.358619488E0,-3.858426511E-1,-1.821835399E0,-1.167697430E0
5.368332561E0,-1.918146491E0,-1.864906192E0,7.402794957E-1
5.378044905E0,-2.734398127E0,-3.284448147E0,2.909373283E0
5.387758134E0,-3.534198999E0,-5.752943993E0,3.067598581E0
5.397472040E0,-4.633102894E0,-8.307282448E0,-1.214357466E-1
5.407185217E0,-5.791827202E0,-1.141496086E1,-4.435695171E0
5.416897509E0,-5.585745335E0,-1.579143333E1,-6.619145870E0
5.426610686E0,-1.319641709E0,-2.066082764E1,-6.710072994E0
5.436324644E0,2.199901342E0,-2.367040062E1,-9.640383720E0
5.446037717E0,3.648157120E0,-2.403171539E1,-9.963713646E0
5.455750061E0,2.796013355E0,-2.319153595E1,-7.952546120E0
5.465463290E0,1.433599830E0,-2.183630180E1,-8.565407753E0
5.475177196E0,-5.102694035E-1,-2.035693932E1,-8.381160736E0
5.484890374E0,-2.870789051E0,-1.903520393E1,-6.137889385E0
5.494602665E0,-5.051846981E0,-1.730908012E1,-3.968795538E0
5.504315842E0,-5.777470112E0,-1.475474262E1,-2.800499916E0
5.514029801E0,-3.629911900E0,-1.294217968E1,-2.647359133E0
5.523742874E0,-2.016252279E0,-1.177149105E1,-2.376671076E0
5.533455217E0,-1.601994753E0,-1.090499020E1,-1.280160069E0
5.543168446E0,-1.680957913E0,-1.001426220E1,-8.973085321E-3
5.552882353E0,-1.700100541E0,-8.740681648E0,6.708876491E-1
5.562595530E0,-1.740778446E0,-7.296912670E0,5.895316601E-1
5.572307821E0,-1.599601984E0,-5.941977024E0,3.502494097E-1
5.582020999E0,-1.384247899E0,-4.740181446E0,-1.477568001E-1
5.591734957E0,-1.609173179E0,-3.784847260E0,-6.409773827E-1
5.601448030E0,-2.116750717E0,-3.126521826E0,-8.515457511E-1
5.611160374E0,-2.681756020E0,-2.745764017E0,-4.878367186E-1
5.620873603E0,-2.930908680E0,-2.614158630E0,-5.644070506E-1
5.630587509E0,-2.777468920E0,-2.458625317E0,-1.651346684E0
5.640300686E0,-2.483151674E0,-2.168794632E0,-2.307279348E0
5.650012978E0,-1.688136339E0,-2.178365946E0,-1.632204175E0
5.659726155E0,-6.323033571E-1,-2.300399780E0,-6.242275834E-1
5.669440113E0,-2.183450572E-2,-1.912762642E0,-1.249053478E0
5.679153186E0,-4.815555513E-1,-1.500898004E0,-2.496312141E0
5.688865530E0,-7.713862062E-1,-1.754537225E0,-4.859224796E0
5.698578759E0,-1.704886183E-2,-2.724228621E0,-8.383553505E0
5.708292665E0,1.505384564E0,-2.990130901E0,-1.428485203E1
5.718005842E0,4.091128349E0,-4.797609329E0,-1.425613785E1
5.727718134E0,6.064010620E0,-6.442375660E0,-4.526622295E0
5.737431311E0,6.391827583E0,-7.450352192E0,4.714757919E0
5.747145269E0,5.989534378E0,-7.328019142E0,1.078116131E1
5.756858342E0,6.446862221E0,-5.965905190E0,1.206939697E1
5.766570686E0,5.726323605E0,-4.323531628E0,-7.547860146E0
5.776283915E0,-8.106883049E0,-6.835097790E0,-1.818246078E1
5.785997821E0,-1.207388401E1,-9.229117393E0,6.804589629E-1
5.795710894E0,-1.081944656E1,-1.583450413E1,3.876671791E0
5.805423290E0,-4.719244480E0,-1.723011780E1,7.592426300E0
5.815136467E0,2.264507532E0,-1.950688934E1,7.977670670E0
5.824850426E0,5.769394398E0,-1.973450470E1,3.546163082E0
5.834563499E0,5.474778175E0,-1.809452438E1,9.224331379E-1
5.844275842E0,2.776870728E0,-1.722293854E1,1.523330688E0
5.853989019E0,3.035893738E-1,-1.670578957E1,7.621139884E-1
5.863702978E0,5.712864175E-2,-1.675364685E1,-2.075773627E-1
5.873416051E0,1.658824325E0,-1.712483406E1,-1.143769264E0
5.883128394E0,2.705085993E0,-1.709133339E1,-2.333600283E0
5.892841624E0,2.700300455E0,-1.629392624E1,-2.446063042E0
5.902555530E0,1.316351533E0,-1.489352608E1,-2.560918331E0
5.912268707E0,-7.235297561E-1,-1.307408428E1,-3.576073408E0
5.921980999E0,-2.186142683E0,-1.075424194E1,-5.134698391E0
5.931694176E0,-3.067299604E0,-9.176474571E0,-6.001498222E0
5.941408134E0,-3.014657497E0,-8.534899712E0,-5.510670662E0
5.951121207E0,-2.995514870E0,-7.660920620E0,-3.995116472E0
5.960833551E0,-3.048156977E0,-6.605087757E0,-2.446063042E0
5.970546780E0,-3.888336897E0,-6.794120789E0,-2.750250578E0
5.980260686E0,-3.689732552E0,-8.108677864E0,-3.887439489E0
5.989973863E0,-1.283749342E0,-8.532505989E0,-7.456932545E0
5.999686155E0,1.591825247E0,-9.046963692E0,-1.267597771E1
6.009399332E0,4.160520554E0,-9.947262764E0,-1.573579979E1
6.019113290E0,5.874678612E0,-1.095045376E1,-1.578365612E1
6.028826363E0,6.391827583E0,-1.131206894E1,-1.400010586E1
6.038538707E0,5.951249123E0,-1.080927753E1,-1.218066406E1
6.048251884E0,5.106283665E0,-9.530612946E0,-1.008574772E1
6.057965842E0,4.136591911E0,-8.762217522E0,-7.318149090E0
6.067678915E0,3.190829039E0,-8.201997757E0,-4.512265205E0
6.077391259E0,1.876571178E0,-6.595516682E0,-2.659323215E0
6.087104488E0,5.934200287E-1,-5.214259624E0,-2.187638044E0
6.096818394E0,-7.067800164E-1,-4.077070713E0,-1.744666815E0
6.106531571E0,-1.786242127E0,-4.163212299E0,6.349952817E-1
6.116243863E0,-2.703291416E0,-5.673681736E0,3.558426380E0
6.125957040E0,-3.232404232E0,-7.756633759E0,6.174977779E0
6.135670999E0,-3.378366470E0,-1.037587738E1,6.656234264E0
6.145384071E0,-2.657827854E0,-1.303579903E1,2.722733021E0
6.155096415E0,-6.370890141E-1,-1.577199173E1,-3.434896946E0
6.164809644E0,5.240281820E-1,-1.895863342E1,-6.499205589E0
6.174523551E0,5.096712112E-1,-2.118515396E1,-1.021017456E1
6.184236624E0,-1.800599098E-1,-2.198495483E1,-1.319791222E1
6.193949019E0,-1.456032634E0,-2.196312141E1,-1.261376476E1
6.203662196E0,-1.247856975E0,-2.213091660E1,-1.099053383E1
6.213376103E0,-1.240379453E0,-2.157309151E1,-8.974879265E0
6.223089280E0,-1.671386600E0,-2.019153404E1,-6.185745716E0
6.232801571E0,-2.813361168E0,-1.844387627E1,-3.710071564E0
6.242514749E0,-4.331307888E0,-1.626760483E1,-1.849951029E0
6.252228707E0,-4.429413795E0,-1.378983688E1,-8.300103545E-1
6.261941780E0,-3.206083298E0,-1.189621735E1,-1.174875975E0
6.271654124E0,-2.495115757E0,-1.020598698E1,-1.380658627E0
6.281367353E0,-2.123929262E0,-8.740681648E0,-4.112663865E-1
6.291081259E0,-1.623530149E0,-7.438388348E0,4.938187599E-1
6.300794436E0,-8.288139701E-1,-6.178866386E0,6.732804775E-1
6.310506728E0,-2.518445849E-1,-5.034498692E0,7.187440991E-1
6.320219905E0,2.841476910E-2,-4.043570995E0,7.187440991E-1
6.329933811E0,2.844468057E-1,-3.361018419E0,8.650053740E-1
6.339646988E0,-6.729813665E-2,-2.702693224E0,6.445665956E-1
6.349359280E0,-1.252642632E0,-2.166401863E0,-6.640082598E-2
6.359072457E0,-2.519043922E0,-1.610967875E0,-8.324031830E-1
6.368786415E0,-2.894717216E0,-1.172782183E0,-1.718345761E0
6.378499488E0,-2.449652195E0,-8.593224287E-1,-2.125424623E0
6.388211832E0,-1.453639746E0,-6.245267391E-1,-1.861915112E0
6.397925061E0,5.359922647E-1,-7.253243923E-1,-7.103692293E-1
6.407638967E0,1.685145378E0,5.772684515E-2,-1.788634956E-1
6.417352040E0,8.327022791E-1,-1.685145378E0,4.606183618E-2
6.427064436E0,1.167996526E0,-2.185544491E0,-1.174875975E0
6.436777613E0,8.542376757E-1,-1.060319543E0,-4.610371113E0
6.446491519E0,1.534098387E0,-2.266900301E0,-1.184058380E1
6.456204696E0,3.703192234E0,-2.382055044E0,-1.530718517E1
6.465916988E0,6.193223000E0,-3.995415688E0,-1.245344543E1
6.475630165E0,3.777369738E0,-4.390530586E0,-4.007080555E0
6.485344124E0,-1.575673699E0,-5.254937649E0,2.368296146E0
6.495057196E0,-4.561018944E0,-7.481459141E0,3.718745470E0
6.504769540E0,-8.281558990E0,-1.108205891E1,-4.256233275E-1
6.514482769E0,-9.145966530E0,-1.474038601E1,-4.160520434E-1
6.524196676E0,-3.074477911E0,-1.731147385E1,-2.929712296E0
6.533909749E0,1.613360643E0,-1.757976913E1,8.207680702E0
6.543622092E0,4.845166683E0,-2.108465576E1,1.036959648E1
6.553335321E0,6.150152206E0,-2.031626129E1,9.023932457E0
6.563049228E0,4.847559452E0,-1.804427528E1,5.602794170E0
6.572762405E0,3.133401155E0,-1.683500290E1,-1.238285750E-1
6.582474696E0,6.364908218E-1,-1.550399494E1,-3.782155275E0
6.592187874E0,-8.120641708E-1,-1.612882042E1,-2.484348059E0
6.601901780E0,2.030908167E-1,-1.758694649E1,-1.457229018E0
6.611614957E0,1.194317579E0,-1.833141518E1,-1.466800332E0
6.621327249E0,1.313958764E0,-1.787887192E1,-1.332802176E0
6.631040426E0,1.079462171E0,-1.643540192E1,-2.091925144E0
6.640754384E0,6.149554253E-1,-1.431894970E1,-3.726821184E0
6.650467457E0,2.222333997E-1,-1.255214977E1,-4.830510616E0
6.660179801E0,-4.695914388E-1,-1.147717381E1,-5.139483929E0
6.669893030E0,-1.642672777E0,-9.791728973E0,-5.101198673E0
6.679606936E0,-2.245963097E0,-7.861917973E0,-5.426921844E0
6.689320009E0,-2.456830740E0,-6.973881721E0,-5.582455158E0
6.699032405E0,-2.940479994E0,-7.131807804E0,-5.618347645E0
6.708745582E0,-2.279462576E0,-8.379066467E0,-6.944569588E0
6.718459488E0,-6.490531564E-1,-8.554041862E0,-9.997213364E0
6.728172665E0,8.327022791E-1,-8.927322388E0,-1.188365459E1
6.737884957E0,2.367398977E0,-9.485149384E0,-1.241755295E1
6.747598134E0,3.504587889E0,-9.477970123E0,-1.314048481E1
6.757312092E0,4.591527462E0,-9.075976372E0,-1.330110264E1
6.767025165E0,5.592325687E0,-8.530113220E0,-1.239601803E1
6.776737509E0,5.747859001E0,-8.175676346E0,-1.015513897E1
6.786450686E0,4.989035130E0,-7.754240990E0,-6.992425919E0
6.796164644E0,3.545265913E0,-7.165307522E0,-3.530609846E0
6.805877717E0,1.766501307E0,-6.317949295E0,-5.285146832E-1
6.815590061E0,-3.571287692E-1,-5.000999451E0,1.734796353E-2
6.825303290E0,-2.205285072E0,-4.160819530E0,-9.571290612E-1
6.835017196E0,-3.246761322E0,-4.788038254E0,7.043871880E-1
6.844730269E0,-4.080061913E0,-7.105486870E0,4.434498787E0
6.854442665E0,-5.432604790E0,-8.824430466E0,6.965207577E0
6.864155842E0,-6.222535133E0,-1.085713387E1,6.852446079E0
6.873869749E0,-5.523531914E0,-1.291825104E1,3.833600998E0
6.883582926E0,-2.083251238E0,-1.742872238E1,-4.064807594E-1
6.893295217E0,2.271686077E0,-1.958106613E1,-4.794618607E0
6.903008394E0,3.231507063E0,-2.093151474E1,-9.898808479E0
6.912722353E0,1.565504193E0,-2.086212349E1,-1.406949806E1
6.922435426E0,-8.790631890E-1,-2.081636047E1,-1.455314732E1
6.932147769E0,-2.291426897E0,-2.101765633E1,-1.248694515E1
6.941860946E0,-3.538984776E0,-2.083550262E1,-8.728119850E0
6.951574905E0,-4.838885784E0,-1.995225334E1,-5.400301456E0
6.961287978E0,-5.480461121E0,-1.797458458E1,-2.714358091E0
6.971000321E0,-4.503591537E0,-1.525274849E1,-1.418943882E0
6.980713551E0,-2.367997169E0,-1.341386509E1,-1.967199326E0
6.990427457E0,-1.558923960E0,-1.193450165E1,-1.938485503E0
7.000140530E0,-1.288534999E0,-1.045005512E1,-8.467600942E-1
7.009852926E0,-9.891330600E-1,-8.953642845E0,2.018944174E-1
7.019566103E0,-4.025924206E-1,-7.625028610E0,8.123632669E-1
7.029280009E0,-4.576273263E-2,-6.449554443E0,1.180858016E0
7.038993186E0,1.384846121E-1,-5.276473045E0,1.406082392E0
7.048705478E0,-1.393819153E-1,-4.388137817E0,1.463510156E0
7.058418655E0,-6.705885530E-1,-3.748954773E0,1.714756489E0
7.068132613E0,-1.566102386E0,-3.179163933E0,1.626222134E0
7.077845686E0,-2.473580360E0,-2.690729141E0,8.027920127E-1
7.087558030E0,-3.115155935E0,-2.041975021E0,-8.467600942E-1
7.097271207E0,-2.837289333E0,-1.405185103E0,-2.896212816E0
7.106985165E0,-1.812862277E0,-8.521439433E-1,-4.098007679E0
7.116698238E0,3.320041299E-2,-7.875377536E-1,-3.365504980E0
7.126410582E0,1.843071699E0,-6.005984545E-1,-2.640180588E0
7.136123811E0,1.761715651E0,-1.112961650E0,-2.685644388E0
7.145837717E0,2.793620348E0,-2.461018085E0,-2.716751099E0
7.155550790E0,3.169293642E0,-1.512862086E0,-2.484348059E0
7.165263186E0,2.685943365E0,-1.689931035E0,-4.940879822E0
7.174976363E0,2.060818434E0,-3.720241070E0,-1.045663452E1
7.184690269E0,2.048854351E0,-3.579064369E0,-1.752413559E1
7.194403446E0,4.378566265E0,-4.651647091E0,-1.678445435E1
7.204115738E0,5.848357677E0,-5.522933960E0,-8.630014420E0
7.213828915E0,5.044070244E0,-7.785347462E0,-3.032902777E-1
7.223542874E0,2.712264538E0,-8.417351723E0,1.094417286E1
7.233255946E0,2.126621157E-1,-1.094327545E1,1.745354652E1
7.242968290E0,-5.952146530E0,-1.546810246E1,5.205286503E0
7.252681519E0,-9.313464165E0,-1.297807217E1,-1.052632618E1
7.262395426E0,-4.443770885E0,-1.261914825E1,-7.102495670E0
7.272108499E0,-1.362712502E0,-1.585125351E1,4.652245522E0
7.281820894E0,7.034898400E-1,-1.838166428E1,1.090828037E1
7.291534071E0,3.107080221E0,-1.753430557E1,1.014676476E1
7.301247978E0,2.798406124E0,-1.685653877E1,5.056931496E0
7.310961155E0,4.953143001E-1,-1.547288895E1,-4.878367186E-1
7.320673446E0,-2.531008244E0,-1.407458305E1,-5.534598827E0
7.330386624E0,-3.613162279E0,-1.442423439E1,-7.030711174E0
7.340100582E0,-2.483151674E0,-1.573849201E1,-3.521038532E0
7.349813655E0,-3.523431420E-1,-1.663400650E1,-1.668096542E0
7.359525999E0,1.098604679E0,-1.616710663E1,-1.974377751E0
7.369239176E0,1.325922847E0,-1.481217003E1,-3.217149973E0
7.378953134E0,7.800601721E-1,-1.331336594E1,-4.873880386E0
7.388666207E0,-1.369891018E-1,-1.172842026E1,-6.233602047E0
7.398378551E0,-6.299105883E-1,-1.033041382E1,-6.590431690E0
7.408091780E0,-1.108774185E0,-9.554540634E0,-5.570491314E0
7.417805686E0,-1.820040703E0,-9.377471924E0,-3.554538012E0
7.427518759E0,-2.279462576E0,-1.039262676E1,-1.933699846E0
7.437231155E0,-1.367498159E0,-1.099591732E1,-2.343171597E0
7.446944332E0,7.944171429E-1,-1.120170021E1,-7.253542900E0
7.456658290E0,2.628216505E0,-1.096241760E1,-1.423699570E1
7.466371363E0,3.418446302E0,-1.030409241E1,-1.908036804E1
7.476083707E0,3.684049606E0,-9.336793900E0,-2.044009018E1
7.485796884E0,4.177269936E0,-8.589934349E0,-1.757199287E1
7.495510842E0,4.773382187E0,-8.101499557E0,-1.192911816E1
7.505223915E0,4.950749874E0,-7.584350586E0,-6.207281113E0
7.514936259E0,4.488636017E0,-6.794120789E0,-2.237887383E0
7.524649488E0,3.291626692E0,-5.410470963E0,-5.979065299E-1
7.534363394E0,1.924427629E0,-4.089034557E0,-2.937189937E-1
7.544076571E0,7.034898400E-1,-3.088236809E0,1.923231184E-1
7.553788863E0,-1.704886109E-1,-2.750549555E0,1.642971873E0
7.563502040E0,-7.737790346E-1,-2.695514679E0,4.549354076E0
7.573215946E0,-4.384847581E-1,-3.669991732E0,7.020242691E0
7.582929124E0,-1.022632599E0,-5.338686466E0,6.850052834E0
7.592641415E0,-3.208476067E0,-7.057630539E0,3.031706333E0
7.602354592E0,-5.650351524E0,-1.062473106E1,-4.701298237E0
7.612068551E0,-6.258427620E0,-1.460608864E1,-9.910772324E0
7.621781624E0,-4.589733124E0,-1.923889160E1,-1.087567806E1
7.631493967E0,-3.680161238E0,-2.233670044E1,-1.183340549E1
7.641207196E0,-2.916252613E0,-2.308116722E1,-9.477671623E0
7.650921103E0,-2.097608089E0,-2.288256264E1,-7.035496712E0
7.660634280E0,-1.982752681E0,-2.157787704E1,-7.744370461E0
7.670346571E0,-2.404188633E0,-1.982304001E1,-8.084151268E0
7.680059749E0,-2.471187592E0,-1.852762604E1,-5.637490273E0
7.689773707E0,-2.636292458E0,-1.710569000E1,-3.389433384E0
7.699486780E0,-3.383152008E0,-1.563799286E1,-2.242672920E0
7.709199124E0,-4.649852753E0,-1.330858040E1,-1.615454435E0
7.718912353E0,-3.720839262E0,-1.144128132E1,-2.321636200E0
7.728626259E0,-2.636292458E0,-1.072522926E1,-2.254637241E0
7.738339332E0,-2.076072693E0,-9.779765129E0,-1.136590719E0
7.748051728E0,-1.374676585E0,-8.810073853E0,1.369891018E-1
7.757764905E0,-8.599206209E-1,-7.593921661E0,9.726824164E-1
7.767478811E0,-7.019943595E-1,-6.315556049E0,1.264606714E0
7.777191988E0,-5.724828243E-1,-5.094319344E0,1.504188180E0
7.786904280E0,-4.241278172E-1,-4.004986763E0,1.540080428E0
7.796617457E0,-3.834498227E-1,-3.004487991E0,7.597211599E-1
7.806331415E0,-8.623134494E-1,-2.242972136E0,9.152546525E-2
7.816044488E0,-1.329213023E0,-1.577468276E0,-5.739783049E-1
7.825756832E0,-1.537388563E0,-9.143573642E-1,-1.387837172E0
7.835470061E0,-1.101595759E0,-4.211367965E-1,-1.988734722E0
7.845183967E0,5.479564071E-1,-4.857429862E-1,-1.560419440E0
7.854897144E0,1.713859200E0,-1.299900889E0,-1.404586911E0
7.864609436E0,2.666501760E0,-2.085045815E0,-2.922533751E0
7.874322613E0,3.664906979E0,-1.749751568E0,-4.222434521E0
7.884036571E0,3.648157120E0,-1.634896040E0,-6.178566933E0
7.893749644E0,2.841476917E0,-3.152842999E0,-9.338588715E0
7.903461988E0,2.683550596E0,-2.798406124E0,-1.697587967E1
7.913175217E0,5.206781864E0,-3.859024763E0,-1.740210152E1
7.922889124E0,6.066403389E0,-3.875774384E0,-5.362016678E0
7.932602301E0,4.869094849E0,-6.087938786E0,3.821636915E0
7.942314592E0,2.805584431E0,-6.674479485E0,1.212203979E1
7.952027769E0,1.983051747E-1,-8.300103188E0,1.457109356E1
7.961741728E0,-7.201797962E0,-1.142213917E1,7.235297561E-1
7.971454801E0,-6.720541477E0,-1.100548840E1,-9.951749802E0
7.981167144E0,-2.736790895E0,-1.012911701E1,-5.376373291E0
7.990880374E0,-1.762313843E0,-1.547528172E1,4.865505695E0
8.000594280E0,-6.299105883E-1,-1.929631996E1,9.488439560E0
8.010307353E0,1.246959686E0,-1.969831467E1,9.141180992E0
8.020019749E0,1.735394597E0,-1.936092567E1,6.694519520E0
8.029732926E0,7.082754970E-1,-1.828834343E1,2.026122570E0
8.039446884E0,-3.427718580E-1,-1.713679695E1,-2.469991207E0
8.049159957E0,-9.197412133E-1,-1.628674698E1,-5.012664318E0
8.058872301E0,-3.810569942E-1,-1.636361694E1,-3.868296862E0
8.068585478E0,8.344969153E-2,-1.690439415E1,-2.273779631E0
8.078299436E0,4.450650215E-1,-1.621257019E1,-1.088734269E0
8.088012509E0,7.178468108E-1,-1.508973789E1,-1.429711580E-1
8.097724905E0,6.269195080E-1,-1.388794231E1,-9.906286001E-1
8.107438082E0,3.346960545E-1,-1.286800194E1,-3.461217880E0
8.117152040E0,-3.762713671E-1,-1.217139149E1,-5.781059742E0
8.126865113E0,-1.956431627E0,-1.125912762E1,-6.889534473E0
8.136577457E0,-3.239582777E0,-9.566504478E0,-7.523931503E0
8.146290686E0,-3.881158352E0,-8.740681648E0,-7.590930939E0
8.156004592E0,-4.005585194E0,-9.655338287E0,-6.588038921E0
8.165717769E0,-2.257927179E0,-1.023230743E1,-6.243173599E0
8.175430061E0,2.602194622E-2,-1.040219784E1,-7.887939930E0
8.185143238E0,1.819143414E0,-1.055055332E1,-1.102642632E1
8.194857196E0,2.350649118E0,-9.968798637E0,-1.420828152E1
8.204570269E0,2.441576481E0,-9.119047165E0,-1.559701633E1
8.214282613E0,2.467897415E0,-8.431708336E0,-1.485225010E1
8.223995842E0,2.549253464E0,-7.916952610E0,-1.195543957E1
8.233709749E0,2.637787819E0,-7.608278751E0,-7.856832981E0
8.243422926E0,2.810370207E0,-7.486244678E0,-4.009473324E0
8.253135217E0,2.702693224E0,-6.770192623E0,-1.160519004E0
8.262848394E0,1.919641972E0,-5.597111225E0,6.326025128E-1
8.272562353E0,7.657032609E-1,-5.518147945E0,1.760220170E0
8.282275426E0,4.426721931E-1,-4.785645485E0,1.944766641E0
8.291987821E0,1.645065658E-2,-4.376173496E0,1.628614902E0
8.301700999E0,-4.504488707E-1,-4.486243248E0,2.100300074E0
8.311414957E0,-1.513460279E0,-5.712265968E0,3.287738323E0
8.321128030E0,-2.899502754E0,-7.143772125E0,4.391427994E0
8.330840374E0,-3.500699520E0,-8.637790680E0,3.685245991E0
8.340553603E0,-3.084049225E0,-1.266700459E1,5.679962635E-1
8.350267509E0,-5.365904570E-1,-1.579861164E1,-2.728715181E0
8.359980686E0,2.106282234E0,-1.881984901E1,-7.090531826E0
8.369692978E0,2.592324257E0,-1.943988991E1,-1.022692394E1
8.379406155E0,6.795616150E-1,-1.888684845E1,-1.053829002E1
8.389120113E0,-6.442674994E-1,-1.868824387E1,-1.021256733E1
8.398833186E0,-1.604387641E0,-1.880309868E1,-9.472886086E0
8.408545530E0,-2.827718258E0,-1.824527359E1,-8.350053787E0
8.418258759E0,-3.591626883E0,-1.730668831E1,-6.477670193E0
8.427972717E0,-3.447758436E0,-1.575763416E1,-4.179363728E0
8.437685790E0,-2.789433002E0,-1.465394497E1,-2.596810818E0
8.447398134E0,-2.018645048E0,-1.305494118E1,-2.479562521E0
8.457111363E0,-1.147059321E0,-1.164945698E1,-2.929712296E0
8.466825269E0,-7.761718631E-1,-1.056012440E1,-2.731107950E0
8.476538446E0,-7.115656137E-1,-9.516255379E0,-1.924128532E0
8.486250738E0,-6.466603279E-1,-8.388637543E0,-1.045663476E0
8.495963915E0,-7.307082415E-1,-7.272984505E0,-6.720840335E-1
8.505677874E0,-1.185344458E0,-6.068796635E0,-4.351946115E-1
8.515390946E0,-1.568495274E0,-4.893322468E0,-3.152543902E-1
8.525103342E0,-1.726421595E0,-3.894917011E0,-4.399802685E-1
8.534816519E0,-2.310569286E0,-2.769692183E0,-8.228318691E-1
8.544530478E0,-2.803789854E0,-1.762014747E0,-9.017950296E-1
8.554243551E0,-3.452543974E0,-1.000499010E0,-1.536491275E0
8.563955894E0,-3.723232031E0,-6.149554253E-1,-2.747857809E0
8.573669124E0,-3.385545015E0,-6.340979934E-1,-3.233899832E0
8.583383030E0,-1.613958836E0,-9.861420393E-1,-2.158924341E0
8.593096207E0,5.407779217E-1,-1.096211910E0,-2.352742910E0
8.602808499E0,1.960319996E0,-1.467398524E0,-3.897010803E0
8.612521676E0,3.827918053E0,-2.865405083E0,-6.635895252E0
8.622235634E0,4.105485439E0,-2.865405083E0,-1.093549824E1
8.631948811E0,4.684847832E0,-2.750549555E0,-1.707159233E1
8.641661103E0,6.243472576E0,-4.022035599E0,-1.278634644E1
8.651374280E0,7.208378315E0,-5.209474087E0,-2.233101845E0
8.661088238E0,5.893821239E0,-5.973083496E0,4.532604218E0
8.670801311E0,3.629014730E0,-5.582754135E0,1.228953743E1
8.680513707E0,3.035295486E0,-4.977071285E0,8.387142181E0
8.690226884E0,-8.578568459E0,-5.932405472E0,-7.442575932E0
8.699940842E0,-1.356521034E1,-8.108677864E0,-8.797810555E0
8.709653915E0,-1.248096275E1,-1.413470268E1,1.587936878E0
8.719366259E0,-5.444568634E0,-1.764676857E1,4.307679176E0
8.729079488E0,2.398505688E0,-1.972971916E1,6.799803734E0
8.738793394E0,8.204091072E0,-2.057947159E1,9.038289070E0
8.748506571E0,9.066105843E0,-1.999771690E1,6.335297108E0
8.758218863E0,6.269793510E0,-1.789083672E1,2.200798512E0
8.767932092E0,2.012962103E0,-1.644018745E1,-3.487538993E-1
8.777645999E0,-2.470589429E-1,-1.589910984E1,-8.778668046E-1
8.787359176E0,-9.939187169E-1,-1.643300819E1,3.789632916E-1
8.797071467E0,-1.190130115E0,-1.695733643E1,-3.104687333E-1
8.806784644E0,-4.671986103E-1,-1.684457397E1,-2.948854923E0
8.816498603E0,-6.370890141E-1,-1.588953876E1,-4.162613869E0
8.826211676E0,-1.489532113E0,-1.483609867E1,-3.856332779E0
8.835924071E0,-2.437688112E0,-1.353829098E1,-3.576073408E0
8.845637249E0,-2.638685226E0,-1.200867939E1,-4.277469635E0
8.855351207E0,-2.569293261E0,-1.083320522E1,-4.631906509E0
8.865064280E0,-2.095215321E0,-1.004776096E1,-4.476373196E0
8.874776676E0,-1.877468467E0,-9.497113228E0,-4.397409916E0
8.884489853E0,-1.855933070E0,-9.276973724E0,-4.145864487E0
8.894203811E0,-1.456032634E0,-9.073583603E0,-5.089234829E0
8.903916884E0,-4.719842672E-1,-9.064012527E0,-7.653144360E0
8.913629228E0,9.044869542E-1,-8.927322388E0,-1.141914749E1
8.923342457E0,2.173580170E0,-8.515756607E0,-1.434945869E1
8.933056415E0,3.102294445E0,-7.986643791E0,-1.470868111E1
8.942769488E0,4.428815842E0,-7.550850868E0,-1.298734379E1
8.952481832E0,5.518147945E0,-7.002595425E0,-1.060289669E1
8.962195061E0,5.642574787E0,-6.049654007E0,-8.768797874E0
8.971908967E0,5.120640278E0,-4.919643402E0,-7.416254520E0
8.981622144E0,4.048057556E0,-4.234996796E0,-5.603990555E0
8.991334436E0,2.388934374E0,-3.751347780E0,-2.328814745E0
9.001047665E0,7.680960894E-1,-3.823132277E0,1.709970832E0
9.010761571E0,-2.279163599E-1,-4.311567307E0,4.934897423E0
9.020474749E0,-7.115656137E-1,-5.549254894E0,7.992027760E0
9.030187040E0,-1.704886079E0,-5.779264927E0,8.619544983E0
9.039900217E0,-4.319344044E0,-5.884549141E0,4.305285931E0
9.049614176E0,-7.474878788E0,-7.138986588E0,-2.556132793E0
9.059327249E0,-8.597710609E0,-1.146281719E1,-7.662715435E0
9.069039644E0,-7.283154011E0,-1.594457340E1,-9.573384285E0
9.078752821E0,-3.584448338E0,-2.040000916E1,-8.732905388E0
9.088466780E0,7.226324677E-1,-2.345235443E1,-8.182256699E0
9.098179853E0,3.863810301E0,-2.407239342E1,-7.569395542E0
9.107892249E0,3.576372623E0,-2.252094841E1,-6.757929325E0
9.117605426E0,2.142473459E0,-2.085494423E1,-6.611967087E0
9.127319384E0,-1.345962733E-1,-1.943271065E1,-5.778666496E0
9.137032457E0,-2.889931440E0,-1.861167336E1,-4.301397800E0
9.146744853E0,-5.628816128E0,-1.772094536E1,-3.394218922E0
9.156458030E0,-6.414260387E0,-1.631067467E1,-2.596810818E0
9.166171988E0,-4.065704823E0,-1.495334721E1,-2.259422779E0
9.175885061E0,-2.018645048E0,-1.378744411E1,-2.352742910E0
9.185597457E0,-2.685943544E-1,-1.318415356E1,-1.957628012E0
9.195310634E0,8.303094506E-1,-1.221446228E1,-8.443672657E-1
9.205024592E0,1.270887971E0,-1.085234833E1,-1.375873014E-2
9.214737665E0,1.266102314E0,-9.238688469E0,5.847460628E-1
9.224450009E0,8.973084688E-1,-7.680063248E0,6.397809386E-1
9.234163238E0,4.761717021E-1,-6.068796635E0,4.148556292E-1
9.243877196E0,-5.533402413E-2,-4.680361271E0,8.913264424E-2
9.253590269E0,-6.227321029E-1,-3.473780155E0,-4.160520434E-1
9.263302613E0,-1.245165110E0,-2.336591244E0,-8.252246976E-1
9.273015842E0,-2.133500576E0,-1.366899967E0,-1.363908887E0
9.282729801E0,-2.887538671E0,-3.373879790E-1,-1.916949987E0
9.292442874E0,-3.387937784E0,7.088736892E-1,-2.501097918E0
9.302155217E0,-3.141477108E0,1.484447360E0,-2.166102648E0
9.311868446E0,-1.692921996E0,1.010369420E0,-1.625025630E0
9.321582353E0,-4.719842672E-1,-1.884347759E-2,-2.118246317E0
9.331295530E0,1.695913076E-1,-9.092725813E-2,-3.145066261E0
9.341007821E0,3.083750308E-1,-4.486542661E-3,-4.653441906E0
9.350721051E0,5.551348329E-1,-1.742573142E0,-7.715656757E0
9.360434957E0,2.455933332E0,-3.011666298E0,-1.449093437E1
9.370148134E0,6.911369324E0,-4.388137817E0,-2.364108849E1
9.379860426E0,7.550551891E0,-4.567898273E0,-1.090917778E1
9.389573655E0,6.300900459E0,-7.447959423E0,4.724328995E0
9.399287561E0,3.258127213E0,-9.920941353E0,1.506909943E1
9.409000738E0,7.489534616E-1,-1.130967617E1,2.151655960E1
9.418713030E0,-1.360319614E0,-1.434287834E1,2.164577293E1
9.428426259E0,-9.289535522E0,-1.521416473E1,-1.969592094E0
9.438140165E0,-7.290332317E0,-9.621838570E0,-1.755763435E1
9.447853342E0,-1.963610053E0,-1.170927715E1,-7.263113976E0
9.457565634E0,5.575276613E-1,-1.433809280E1,-9.032905847E-2
9.467278863E0,2.204686880E0,-1.477627850E1,5.828018665E0
9.476992769E0,2.609073877E0,-1.577677727E1,7.791030407E0
9.486705946E0,1.091426253E0,-1.675604057E1,4.513461590E0
9.496418238E0,-1.879861236E0,-1.632503319E1,-1.323230863E0
9.506131467E0,-2.969193697E0,-1.632263947E1,-5.306981564E0
9.515845374E0,-1.882254124E0,-1.706501198E1,-5.216054440E0
9.525558551E0,-2.303091735E-1,-1.785015869E1,-3.094816923E0
9.535270842E0,1.203888893E0,-1.796022797E1,-1.636989832E0
9.544984071E0,1.783251047E0,-1.714876175E1,-1.835594058E0
9.554697978E0,1.610967875E0,-1.530539131E1,-3.726821184E0
9.564411155E0,1.613360643E0,-1.332293701E1,-5.615954876E0
9.574123446E0,1.721037745E0,-1.194646645E1,-6.168995857E0
9.583836676E0,1.630110383E0,-1.119691467E1,-5.991927147E0
9.593550582E0,1.038784146E0,-1.038305569E1,-6.279065609E0
9.603263759E0,-3.379862010E-2,-1.012911701E1,-6.116353989E0
9.612976051E0,-2.018645048E0,-1.010758209E1,-5.814558983E0
9.622689280E0,-2.983550787E0,-9.822835922E0,-7.792226791E0
9.632403186E0,-3.170190811E0,-9.272188187E0,-1.041117096E1
9.642116363E0,-2.516651154E0,-8.469993591E0,-1.120140076E1
9.651828655E0,-1.250249863E0,-7.644171238E0,-1.124686432E1
9.661541884E0,6.675975323E-1,-7.208378315E0,-1.103599739E1
9.671255790E0,2.621038198E0,-6.835097790E0,-1.000678444E1
9.680968967E0,4.067200184E0,-6.351448536E0,-8.440980911E0
9.690681259E0,4.658526421E0,-5.848656654E0,-6.372385979E0
9.700394488E0,4.182055950E0,-5.269294739E0,-4.557728767E0
9.710108394E0,2.970689297E0,-4.673182487E0,-3.286541939E0
9.719821571E0,1.656431437E0,-4.026821613E0,-2.005484581E0
9.729533863E0,1.217348501E-1,-3.502494097E0,-4.965107143E-2
9.739247040E0,-1.192523003E0,-3.081058264E0,2.643769979E0
9.748960999E0,-2.025823355E0,-2.786442041E0,5.025825024E0
9.758674176E0,-2.595614433E0,-3.035594702E0,5.863911152E0
9.768386467E0,-4.269094467E0,-4.440779686E0,1.178465128E0
9.778099696E0,-6.445366859E0,-6.832705021E0,-6.439384937E0
9.787813603E0,-7.898408413E0,-1.102702427E1,-9.791131020E0
9.797526780E0,-5.439783096E0,-1.633460426E1,-9.041878700E0
9.807239071E0,-8.910273314E-1,-2.179083824E1,-7.502396107E0
9.816952301E0,8.374879360E-1,-2.521915436E1,-5.639883041E0
9.826666207E0,1.120140076E0,-2.470918465E1,-3.980759621E0
9.836379384E0,1.033998489E0,-2.247069740E1,-5.790630817E0
9.846091676E0,1.983051747E-1,-2.051725769E1,-1.004028416E1
9.855804905E0,-1.190130115E0,-1.889402580E1,-1.071775150E1
9.865518811E0,-2.509472847E0,-1.836969948E1,-7.730013371E0
9.875231988E0,-3.371187925E0,-1.776401711E1,-4.016652107E0
9.884944280E0,-3.603590965E0,-1.649761391E1,-2.038984060E0
9.894657509E0,-2.119143486E0,-1.497009659E1,-1.818844318E0
9.904371415E0,-6.729813665E-2,-1.369890976E1,-1.904985905E0
9.914084592E0,1.077069283E0,-1.252582836E1,-1.385444283E0
9.923796884E0,1.065105200E0,-1.079491997E1,-7.845467329E-1
9.933510113E0,7.585247755E-1,-9.039784431E0,-5.907281041E-1
9.943224019E0,3.490529954E-1,-7.258627415E0,-7.055835724E-1
9.952937196E0,-2.422732860E-1,-5.484648705E0,-8.611170650E-1
9.962649488E0,-1.221236825E0,-4.065106392E0,-8.946165442E-1
9.972362717E0,-2.205285072E0,-2.944667339E0,-1.048056364E0
9.982076624E0,-2.887538671E0,-2.025225163E0,-1.687239051E0
9.991789801E0,-3.263510942E0,-1.184746265E0,-2.321636200E0
1.000150209E1,-3.301796198E0,-5.742774606E-1,-3.109174013E0
1.001121532E1,-2.767897606E0,-1.076770201E-1,-3.186043262E0
1.002092923E1,-1.408176184E0,-2.273181528E-1,-1.885843396E0
1.003064240E1,3.681955934E-1,-6.269195080E-1,-1.208375454E0
1.004035470E1,1.730608940E0,-9.909276962E-1,-2.582453728E0
1.005006793E1,2.393719912E0,-1.505683661E0,-4.009473324E0
1.005978183E1,2.266900301E0,-2.750549555E0,-4.967200756E0
1.006949501E1,2.494218588E0,-3.667598963E0,-5.905486107E0
1.007920730E1,3.119044304E0,-3.703491211E0,-8.634799957E0
1.008892053E1,4.629812717E0,-4.447957993E0,-1.251326561E1
1.009863444E1,5.757430553E0,-4.349852562E0,-5.714060307E0
1.010834761E1,5.649753571E0,-4.692325115E0,2.186441660E0
1.011805990E1,4.644169807E0,-5.491827011E0,6.866802692E0
1.012777313E1,3.404089212E0,-4.883750916E0,1.037677479E1
1.013748704E1,1.984248161E0,-4.907679081E0,8.042277336E0
1.014720022E1,-9.497711182E0,-7.718348503E0,-1.469910908E1
1.015691251E1,-9.576674461E0,-1.028973579E1,-1.230030441E1
1.016662574E1,-6.957729816E0,-1.479063511E1,-4.232006073E0
1.017633964E1,-3.320938826E0,-1.670100403E1,2.756232500E0
1.018605282E1,3.394817114E-1,-1.738804436E1,9.292227745E0
1.019576511E1,3.229114056E0,-1.854198265E1,1.077876854E1
1.020547834E1,3.969094515E0,-1.798894119E1,8.751151085E0
1.021519225E1,2.815155745E0,-1.665075493E1,4.154538155E0
1.022490543E1,1.706680775E0,-1.535324764E1,-1.589133382E0
1.023461772E1,7.345965505E-1,-1.486720562E1,-5.517848969E0
1.024433095E1,6.077769399E-1,-1.617428398E1,-5.599205017E0
1.025404485E1,2.916252613E-1,-1.741197205E1,-3.830011845E0
1.026375803E1,4.304089844E-1,-1.768505287E1,-2.309672117E0
1.027347032E1,4.160520434E-1,-1.760848236E1,-1.928914189E0
1.028318355E1,-1.920240223E-1,-1.630588913E1,-3.133102179E0
1.029289746E1,-1.635494232E0,-1.418495178E1,-5.857629776E0
1.030261063E1,-2.741576433E0,-1.183370399E1,-7.765905857E0
1.031232293E1,-3.263510942E0,-1.013150978E1,-7.660322666E0
1.032203616E1,-2.832503796E0,-9.461220741E0,-6.176174164E0
1.033175006E1,-1.621137381E0,-8.747860909E0,-4.275076866E0
1.034146324E1,-2.279163599E-1,-8.295317650E0,-2.893819809E0
1.035117553E1,8.853443861E-1,-9.367900848E0,-2.850749016E0
1.036088876E1,1.096211910E0,-9.568898201E0,-5.412265778E0
1.037060266E1,1.791625917E-1,-8.453244209E0,-1.151964664E1
1.038031584E1,-4.193421602E-1,-7.263412952E0,-1.606600952E1
1.039002813E1,4.256233275E-1,-6.923632145E0,-1.678684807E1
1.039974136E1,1.945963025E0,-7.407281399E0,-1.455075455E1
1.040945527E1,3.495016575E0,-8.053643227E0,-1.066032410E1
1.041916845E1,4.426422596E0,-8.211568832E0,-6.856035233E0
1.042888074E1,4.634598255E0,-7.613064289E0,-4.138685703E0
1.043859397E1,4.119842529E0,-6.629015923E0,-2.611167669E0
1.044830787E1,2.922832966E0,-5.417649746E0,-2.484348059E0
1.045802105E1,1.299601793E0,-4.278067589E0,-1.627418518E0
1.046773334E1,-9.221340418E-1,-3.320340633E0,1.049252748E0
1.047744657E1,-2.732005358E0,-2.831905603E0,3.661317825E0
1.048716048E1,-3.766302824E0,-3.715455294E0,4.700400829E0
1.049687366E1,-4.712066174E0,-5.070391178E0,2.581556559E0
1.050658595E1,-5.741578102E0,-7.103094101E0,-1.268195987E0
1.051629918E1,-6.330511570E0,-1.132403278E1,-4.098007679E0
1.052601308E1,-6.141179085E0,-1.546092415E1,-4.936093807E0
1.053572626E1,-2.844467878E0,-2.006710815E1,-4.909772873E0
1.054543855E1,4.136592150E-1,-2.322264290E1,-5.477170944E0
1.055515178E1,2.321935177E0,-2.375414848E1,-7.320541859E0
1.056486569E1,2.537289381E0,-2.269831467E1,-8.165507317E0
1.057457886E1,2.400898457E0,-2.126411819E1,-9.051449776E0
1.058429116E1,1.742573142E0,-1.962892151E1,-9.319445610E0
1.059400438E1,3.275175989E-1,-1.829552269E1,-8.050651550E0
1.060371829E1,-1.436890006E0,-1.701954842E1,-5.761917114E0
1.061343147E1,-3.031407118E0,-1.583211136E1,-3.626322746E0
1.062314376E1,-3.129513025E0,-1.475952816E1,-2.228316069E0
1.063285699E1,-1.812862277E0,-1.379940796E1,-1.914557219E0
1.064257089E1,-5.605186820E-1,-1.312194061E1,-1.847558141E0
1.065228407E1,2.126621157E-1,-1.206371403E1,-1.546062589E0
1.066199636E1,1.261316657E0,-1.087866879E1,-1.007378340E0
1.067170959E1,1.905285001E0,-9.648159981E0,-5.835496187E-1
1.068142350E1,1.890928149E0,-8.077570915E0,-2.578266263E-1
1.069113668E1,1.606182218E0,-6.327520370E0,-2.362912297E-1
1.070084897E1,8.159525394E-1,-4.735395908E0,-1.932204217E-1
1.071056220E1,-3.451646566E-1,-3.396910906E0,-4.247260094E-2
1.072027610E1,-1.700100541E0,-2.178365946E0,-2.195414752E-1
1.072998928E1,-3.086441994E0,-1.132104158E0,-6.314060688E-1
1.073970157E1,-4.010370731E0,-3.278166950E-1,-1.615454435E0
1.074941480E1,-3.818944931E0,9.840483218E-2,-2.683251381E0
1.075912871E1,-2.461616278E0,3.376871049E-1,-2.908176899E0
1.076884188E1,-3.882354796E-1,8.644071817E-1,-3.013461113E0
1.077855418E1,3.299104273E-1,-3.541377485E-1,-3.482753277E0
1.078826741E1,1.416850090E0,-4.498506486E-1,-4.325624943E0
1.079798131E1,2.305185556E0,-3.086741269E-1,-4.667798996E0
1.080769449E1,2.400898457E0,-1.783550143E0,-6.133103371E0
1.081740678E1,2.599502802E0,-1.551147223E0,-9.446564674E0
1.082712001E1,4.696811676E0,-2.379662037E0,-1.160130119E1
1.083683392E1,5.163711071E0,-2.530410051E0,-3.430111170E0
1.084654709E1,4.220340729E0,-3.921238184E0,2.500200510E0
1.085625938E1,2.137687922E0,-4.785645485E0,7.350451946E0
1.086597261E1,2.365903407E-1,-7.134200573E0,1.491356659E1
1.087568652E1,-2.033001900E0,-6.875775814E0,8.641080856E0
1.088539970E1,-8.604888916E0,-1.425912952E1,-1.691605949E1
1.089511199E1,-4.419842720E0,-1.537956810E1,-1.195304680E1
1.090482522E1,-6.801598072E-1,-1.461805248E1,-4.785047054E0
1.091453912E1,-9.361918271E-2,-1.824048615E1,7.745566845E0
1.092425230E1,1.481456280E0,-2.163769722E1,1.369023609E1
1.093396459E1,2.740978241E0,-2.062493515E1,1.016829967E1
1.094367777E1,1.919641972E0,-1.757258987E1,1.894517303E0
1.095339173E1,-2.422732860E-2,-1.513998699E1,-3.104388237E0
1.096310491E1,-1.034596682E0,-1.418495178E1,-4.878666401E0
1.097281720E1,-1.546959877E0,-1.442662716E1,-3.999902248E0
1.098253043E1,-1.319641709E0,-1.578874111E1,-1.644168258E0
1.099224433E1,-4.815555513E-1,-1.638275909E1,-5.979065299E-1
1.100195751E1,-1.824527234E-1,-1.599960899E1,-4.806582630E-1
1.101166980E1,-5.174478889E-1,-1.490309811E1,-1.282552958E0
1.102138298E1,-8.024929166E-1,-1.357448292E1,-3.241078377E0
1.103109694E1,-8.958129883E-1,-1.223360443E1,-4.936093807E0
1.104081011E1,-9.795617461E-1,-1.067976570E1,-5.371587753E0
1.105052240E1,-1.599601984E0,-9.253045082E0,-5.192125797E0
1.106023558E1,-2.600399971E0,-8.166105270E0,-4.801796913E0
1.106994954E1,-3.347259760E0,-7.620242596E0,-4.184149265E0
1.107966272E1,-3.244368315E0,-8.235497475E0,-4.907380104E0
1.108937501E1,-1.657029629E0,-9.286544800E0,-6.726822853E0
1.109908824E1,1.910070658E0,-9.956833839E0,-9.432208061E0
1.110880214E1,5.391029358E0,-1.029930687E1,-1.221655560E1
1.111851532E1,7.450053215E0,-1.024187946E1,-1.406471252E1
1.112822761E1,8.034200668E0,-9.849157333E0,-1.436381531E1
1.113794079E1,7.064509869E0,-9.066405296E0,-1.292752361E1
1.114765475E1,5.161318302E0,-8.292924881E0,-1.048086262E1
1.115736793E1,3.008974552E0,-7.715955734E0,-7.703692436E0
1.116708022E1,9.332008362E-1,-7.136593342E0,-5.060520649E0
1.117679339E1,3.320041299E-2,-6.672086716E0,-2.922533751E0
1.118650735E1,2.796611488E-1,-5.886941910E0,-1.828415632E0
1.119622053E1,1.863410622E-1,-4.816751957E0,-1.646561027E0
1.120593282E1,-3.978067636E-1,-4.323531628E0,-3.152543902E-1
1.121564600E1,-1.326820135E0,-4.158426762E0,3.575176239E0
1.122535996E1,-1.834397674E0,-5.369792938E0,6.912266254E0
1.123507313E1,-2.428116798E0,-7.361518860E0,7.022635460E0
1.124478543E1,-2.432902336E0,-9.774979591E0,1.439581871E0
1.125449860E1,-1.144666553E0,-1.241785240E1,-5.280660629E0
1.126421256E1,-8.599206209E-1,-1.607857132E1,-7.990831375E0
1.127392563E1,-1.206879973E0,-1.979671860E1,-9.432208061E0
1.128363803E1,-2.440080881E0,-2.206152534E1,-1.116072273E1
1.129335121E1,-2.832503796E0,-2.253321075E1,-1.031545830E1
1.130306517E1,-1.592423439E0,-2.203998947E1,-8.594121933E0
1.131277834E1,3.179463148E-1,-2.107269096E1,-7.500003338E0
1.132249063E1,5.455635786E-1,-1.967677879E1,-6.034997940E0
1.133220381E1,-8.718847632E-1,-1.792672729E1,-3.844368696E0
1.134191777E1,-2.600399971E0,-1.590628815E1,-2.123031855E0
1.135163084E1,-3.399901867E0,-1.347368526E1,-1.584347725E0
1.136134324E1,-3.558127165E0,-1.161595726E1,-1.634596944E0
1.137105642E1,-3.725624800E0,-1.040698433E1,-1.411765337E0
1.138077037E1,-3.359223843E0,-9.253045082E0,-6.505486369E-1
1.139048345E1,-2.720041037E0,-8.230711937E0,-1.501496136E-1
1.140019584E1,-1.788634896E0,-7.308876991E0,-2.697907388E-1
1.140990902E1,-1.113559842E0,-6.329913139E0,-8.395816684E-1
1.141962298E1,-9.747761488E-1,-5.367400169E0,-6.361917257E-1
1.142933605E1,-1.053739309E0,-4.543671131E0,-4.710869491E-1
1.143904845E1,-1.264606714E0,-3.770490170E0,-1.534098387E0
1.144876162E1,-1.743171334E0,-3.131307602E0,-2.702394009E0
1.145847558E1,-2.040180445E0,-2.535195589E0,-3.748655796E0
1.146818866E1,-1.537388563E0,-2.118545294E0,-4.371088982E0
1.147790105E1,-1.992024779E-1,-1.742573142E0,-4.069293976E0
1.148761423E1,1.347458243E0,-1.634896040E0,-2.386242390E0
1.149732819E1,2.807977438E0,-1.196710467E0,-1.615454435E0
1.150704126E1,3.145365477E0,-1.788335800E0,-4.447658956E-1
1.151675366E1,1.167996526E0,-4.301996231E0,-4.471587241E-1
1.152646683E1,1.409671664E0,-4.538885593E0,-6.523133755E0
1.153618079E1,3.315554857E0,-3.533600807E0,-1.507268906E1
1.154589386E1,5.431707382E0,-4.251746655E0,-1.389721489E1
1.155560626E1,6.743871689E0,-5.973083496E0,-3.403790236E0
1.156531944E1,5.798108578E0,-6.504589081E0,6.919445038E0
1.157503339E1,4.694418907E0,-5.424828053E0,1.192552853E1
1.158474647E1,3.514159203E0,-2.896811008E0,9.725627899E0
1.159445886E1,-2.899502754E0,2.300100774E-1,-1.323230863E0
1.160417204E1,-1.044108200E1,2.722134829E0,-2.576950264E1
1.161388600E1,-1.591167259E1,-7.225128174E0,-1.396421337E1
1.162359907E1,-1.493480206E1,-1.534128284E1,9.486045837E0
1.163331142E1,-6.349654198E0,-2.082832527E1,6.170192242E0
1.164302464E1,6.207580090E0,-2.164248276E1,3.206382275E0
1.165273860E1,1.026072216E1,-2.208306122E1,6.416952133E0
1.166245168E1,8.929715157E0,-2.030190277E1,4.668995380E0
1.167216402E1,6.525825500E0,-1.725165367E1,1.066002488E0
1.168187725E1,3.166900873E0,-1.604028702E1,1.985444546E0
1.169159116E1,1.548455358E0,-1.534367657E1,1.018146038E0
1.170130433E1,-3.116651475E-1,-1.526949883E1,-8.204390407E-1
1.171101662E1,-4.384847581E-1,-1.571695614E1,-2.405385017E0
1.172072985E1,7.992027402E-1,-1.601157188E1,-4.023830414E0
1.173044376E1,1.179960608E0,-1.564517212E1,-3.861118555E0
1.174015694E1,6.867401004E-1,-1.445773315E1,-3.887439489E0
1.174986923E1,-3.762713671E-1,-1.276032448E1,-5.484349728E0
1.175958246E1,-1.017846942E0,-1.089063358E1,-7.061817646E0
1.176929642E1,-1.223629713E0,-9.119047165E0,-7.049853802E0
1.177900949E1,-1.743171334E0,-7.847560883E0,-5.522634506E0
1.178872183E1,-2.080858469E0,-7.213163853E0,-3.779762506E0
1.179843506E1,-2.392224550E0,-7.258627415E0,-2.970390320E0
1.180814897E1,-2.076072693E0,-8.130212784E0,-3.303291559E0
1.181786214E1,-9.723833203E-1,-8.898608208E0,-5.201697350E0
1.182757444E1,7.680960894E-1,-9.609575272E0,-8.208578110E0
1.183728767E1,2.032104731E0,-9.916155815E0,-1.074168015E1
1.184700157E1,2.839084148E0,-9.901799202E0,-1.245344543E1
1.185671475E1,2.930011272E0,-9.660123825E0,-1.269751358E1
1.186642704E1,2.724228621E0,-9.018249512E0,-1.162522984E1
1.187614027E1,2.496611357E0,-8.187641144E0,-9.592526436E0
1.188585418E1,2.424826622E0,-7.354340553E0,-6.812964439E0
1.189556735E1,2.566003084E0,-6.590730667E0,-4.603192329E0
1.190527964E1,2.568396091E0,-5.752943993E0,-3.760619879E0
1.191499287E1,2.113460541E0,-4.764110088E0,-4.066901207E0
1.192470678E1,1.589432478E0,-3.708276987E0,-3.547359467E0
1.193441996E1,5.264210105E-1,-3.356232882E0,-4.280161560E-1
1.194413225E1,-9.005986452E-1,-3.500101328E0,4.343571186E0
1.195384548E1,-2.085644007E0,-4.004986763E0,7.755138397E0
1.196355938E1,-3.883551121E0,-5.012963295E0,7.025028229E0
1.197327256E1,-5.039882660E0,-7.012166977E0,2.545365095E-1
1.198298485E1,-5.109274387E0,-1.017697334E1,-8.000402451E0
1.199269808E1,-5.198108196E0,-1.461805248E1,-8.950951576E0
1.200241199E1,-2.466402054E0,-2.020110512E1,-6.576074600E0
1.201212516E1,5.240281820E-1,-2.436940384E1,-5.376373291E0
1.202183746E1,2.647359133E0,-2.546112823E1,-6.786643028E0
1.203155069E1,3.382553816E0,-2.440529633E1,-8.002795219E0
1.204126459E1,2.889333248E0,-2.259781647E1,-9.963713646E0
1.205097777E1,7.513462901E-1,-2.102962112E1,-9.958928108E0
1.206069006E1,-1.958824396E0,-1.959542274E1,-6.987640381E0
1.207040329E1,-4.534698009E0,-1.810648918E1,-3.738785267E0
1.208011720E1,-5.916254044E0,-1.569542122E1,-2.000698805E0
1.208983037E1,-4.472484589E0,-1.322722435E1,-1.938485503E0
1.209954267E1,-3.196511984E0,-1.174995518E1,-2.259422779E0
1.210925589E1,-2.380260229E0,-1.020598698E1,-1.500598907E0
1.211896980E1,-1.525424480E0,-8.697610855E0,-6.960122585E-1
1.212868298E1,-5.461617708E-1,-7.543672562E0,2.042872310E-1
1.213839527E1,3.514458239E-1,-6.399304867E0,9.990034699E-1
1.214810850E1,6.604190469E-1,-5.321936607E0,1.257428288E0
1.215782241E1,4.016951025E-1,-4.294817448E0,1.156929731E0
1.216753558E1,-1.585244983E-1,-3.337090254E0,1.128215909E0
1.217724787E1,-1.115952611E0,-2.530410051E0,9.248259664E-1
1.218696105E1,-2.186142683E0,-1.931905150E0,2.210369855E-1
1.219667501E1,-3.285046339E0,-1.242473125E0,-7.701897621E-1
1.220638819E1,-3.637090445E0,-6.125625968E-1,-1.775773525E0
1.221610048E1,-3.244368315E0,-2.321037948E-1,-1.684846282E0
1.222581366E1,-1.690529227E0,-5.431707501E-1,-5.667998791E-1
1.223552761E1,5.862415433E-1,-4.761717021E-1,-5.955137610E-1
1.224524079E1,4.737788737E-1,-2.142473459E0,-1.555633783E0
1.225495308E1,6.293123364E-1,-3.090629578E0,-4.133900166E0
1.226466626E1,1.654038668E0,-3.904488325E0,-6.652645111E0
1.227438022E1,2.946761131E0,-4.160819530E0,-9.990034103E0
1.228409339E1,4.574777603E0,-4.878965378E0,-1.409581947E1
1.229380569E1,5.407779217E0,-5.563611984E0,-1.431595898E1
1.230351886E1,5.441278458E0,-5.829514027E0,-5.907878876E0
1.231323282E1,5.271388054E0,-6.935596466E0,4.172484577E-1
1.232294600E1,4.270590305E0,-6.597909451E0,5.923731327E0
1.233265829E1,3.344268799E0,-6.650551319E0,1.177238846E1
1.234237147E1,1.412064433E0,-9.128618240E0,1.221057415E1
1.235208543E1,-8.061419487E0,-1.100309563E1,-1.369352531E1
1.236179850E1,-7.659126282E0,-1.052662468E1,-8.807381630E0
1.237151089E1,-5.602495193E0,-1.303101349E1,-4.421338081E0
1.238122407E1,-3.316153049E0,-1.529103374E1,5.188536644E0
1.239093803E1,-7.235297561E-1,-1.670100403E1,1.210768223E1
1.240065110E1,2.008176327E0,-1.695255089E1,1.013001442E1
1.241036350E1,3.428017616E0,-1.603789330E1,3.527020693E0
1.242007668E1,3.200400352E0,-1.432134247E1,-4.878367186E-1
1.242979063E1,1.134497046E0,-1.392144203E1,-2.599203587E0
1.243950371E1,-7.115656137E-1,-1.415863037E1,-4.311268330E0
1.244921610E1,-1.226022482E0,-1.535803318E1,-4.610371113E0
1.245892928E1,-4.815555513E-1,-1.647847176E1,-3.525824070E0
1.246864324E1,1.325922847E0,-1.702912140E1,-2.324028969E0
1.247835642E1,1.785643935E0,-1.702194214E1,-2.300100803E0
1.248806871E1,6.436693072E-1,-1.618385506E1,-3.516252756E0
1.249778188E1,-7.115656137E-1,-1.457258892E1,-5.474778175E0
1.250749584E1,-8.431708813E-1,-1.280578899E1,-6.367599964E0
1.251720892E1,1.384846121E-1,-1.123759270E1,-6.274280071E0
1.252692131E1,1.067497969E0,-1.016261673E1,-5.910272121E0
1.253663449E1,1.608574986E0,-1.022273636E1,-5.414658546E0
1.254634845E1,2.211865425E0,-1.024427223E1,-4.770689964E0
1.255606152E1,1.613360643E0,-1.071087265E1,-5.060520649E0
1.256577392E1,5.312066078E-1,-1.054337502E1,-7.092924595E0
1.257548709E1,-8.264211416E-1,-9.784550667E0,-1.101924706E1
1.258520105E1,-1.144666553E0,-8.661719322E0,-1.375573921E1
1.259491412E1,-6.490531564E-1,-7.687242031E0,-1.368395424E1
1.260462652E1,6.430710852E-2,-7.026523590E0,-1.152921772E1
1.261433970E1,1.096211910E0,-6.593123913E0,-9.003593445E0
1.262405366E1,2.312364101E0,-6.332305908E0,-6.635895252E0
1.263376673E1,3.624228954E0,-6.052046776E0,-4.316053867E0
1.264347912E1,4.229912281E0,-5.683252811E0,-2.865106106E0
1.265319230E1,4.038486481E0,-5.118247509E0,-2.201995134E0
1.266290626E1,2.324328184E0,-4.268496513E0,-4.878367186E-1
1.267261933E1,1.884347759E-2,-3.452244759E0,1.810469389E0
1.268233173E1,-2.169392824E0,-3.176771164E0,3.835993767E0
1.269204491E1,-3.344866991E0,-3.191128016E0,5.969195366E0
1.270175886E1,-4.647459984E0,-3.868596077E0,3.527020693E0
1.271147194E1,-5.377569675E0,-5.487041473E0,-4.330410957E0
1.272118433E1,-5.815755367E0,-8.324031830E0,-1.018146038E1
1.273089751E1,-5.013561726E0,-1.265982628E1,-9.829416275E0
1.274061147E1,-2.360818624E0,-1.799612045E1,-7.655537128E0
1.275032454E1,3.705884218E-1,-2.181476593E1,-5.836094379E0
1.276003694E1,1.263709426E0,-2.333989143E1,-4.215256214E0
1.276975011E1,1.230209947E0,-2.210698891E1,-4.708476543E0
1.277946407E1,1.144068360E0,-2.018914223E1,-7.181757927E0
1.278917714E1,8.590233326E-1,-1.874088669E1,-8.965308189E0
1.279888954E1,-2.422732860E-1,-1.803470421E1,-7.473682404E0
1.280860272E1,-2.497508526E0,-1.759651947E1,-4.727619171E0
1.281831668E1,-4.805386066E0,-1.674646759E1,-2.589632273E0
1.282802975E1,-5.035097122E0,-1.552553082E1,-1.811665893E0
1.283774214E1,-2.993122101E0,-1.467338657E1,-2.134995937E0
1.284745532E1,-1.654636860E0,-1.348804188E1,-2.266601324E0
1.285716928E1,-1.444068432E0,-1.184566879E1,-2.190030813E0
1.286688235E1,-1.192523003E0,-1.010997486E1,-2.134995937E0
1.287659475E1,-1.336391449E0,-8.170890808E0,-2.295315027E0
1.288630793E1,-1.446461320E0,-6.418447495E0,-2.185245275E0
1.289602188E1,-1.633101463E0,-4.819144726E0,-2.077568293E0
1.290573496E1,-1.645065546E0,-3.567100286E0,-1.995913148E0
1.291544730E1,-1.791027784E0,-2.532802820E0,-1.658525229E0
1.292516053E1,-2.358425856E0,-1.740180254E0,-1.213161111E0
1.293487449E1,-2.875574589E0,-9.646066427E-1,-1.399801254E0
1.294458756E1,-2.839682341E0,-4.019941986E-1,-2.204387903E0
1.295429996E1,-2.358425856E0,4.815555736E-2,-3.121138096E0
1.296401313E1,-8.790631890E-1,3.858426586E-2,-3.760619879E0
1.297372709E1,8.781659007E-1,-1.033998489E0,-4.426123619E0
1.298344017E1,2.298007011E0,-2.604587555E0,-5.335695267E0
1.299315256E1,3.294019461E0,-4.342673779E0,-6.994818687E0
1.300286574E1,3.700799227E0,-5.575575829E0,-6.839285374E0
1.301257970E1,4.234697819E0,-6.087938786E0,-6.389135361E0
1.302229277E1,6.188437462E0,-6.643373013E0,-1.068664455E1
1.303200517E1,7.643871784E0,-6.662515640E0,-8.067401886E0
1.304171834E1,8.661419868E0,-7.105486870E0,1.971087605E-1
1.305143230E1,7.871489048E0,-7.174878597E0,7.951349735E0
1.306114537E1,4.136591911E0,-7.881060600E0,1.549053574E1
1.307085777E1,2.125723839E0,-4.819144726E0,8.068897247E0
1.308057095E1,-6.909873486E0,7.375875711E-1,-1.547468281E1
1.309028490E1,-1.358196068E1,-3.660420418E0,-1.497458363E1
1.309999798E1,-1.697229195E1,-9.415757179E0,-2.493919373E0
1.310971037E1,-1.205234814E1,-1.436919880E1,4.698008060E0
1.311942355E1,7.896314859E-1,-1.774008751E1,5.116752148E0
1.312913751E1,9.695717812E0,-1.953560257E1,5.167001247E0
1.313885058E1,9.573683739E0,-1.806581116E1,4.951647282E0
1.314856298E1,4.897809029E0,-1.527428436E1,1.750648856E0
1.315827616E1,3.346960545E-1,-1.335404396E1,3.693920076E-1
1.316799011E1,-2.064108610E0,-1.308126259E1,-5.572285652E-1
1.317770319E1,-2.052144527E0,-1.387837124E1,-2.259422779E0
1.318741558E1,-2.255235314E-1,-1.539631844E1,-2.369492531E0
1.319712876E1,1.627717614E0,-1.672971916E1,-2.613560438E0
1.320684272E1,1.924427629E0,-1.685893059E1,-2.070389748E0
1.321655579E1,1.761715651E0,-1.654068565E1,-1.371087432E0
1.322626819E1,1.886142492E0,-1.537478256E1,-1.261017561E0
1.323598136E1,2.424826622E0,-1.363908863E1,-2.111067772E0
1.324569532E1,2.235793591E0,-1.189382362E1,-3.611965895E0
1.325540839E1,1.175175071E0,-1.034477043E1,-4.689334393E0
1.326512079E1,-1.001097202E0,-9.075976372E0,-5.781059742E0
1.327483397E1,-3.251546860E0,-8.733503342E0,-6.324529171E0
1.328454793E1,-3.785445452E0,-9.279366493E0,-6.360421658E0
1.329426100E1,-1.451246977E0,-9.942477226E0,-6.578467846E0
1.330397339E1,2.029711723E0,-1.084995556E1,-7.730013371E0
1.331368657E1,4.553242207E0,-1.110598755E1,-9.783952713E0
1.332340053E1,5.812465191E0,-1.082124138E1,-1.130668545E1
1.333311360E1,6.039783478E0,-1.033759212E1,-1.160847950E1
1.334282600E1,5.965605736E0,-9.674481392E0,-1.106022453E1
1.335253918E1,5.357530117E0,-8.982357025E0,-9.566205978E0
1.336225313E1,4.162913322E0,-8.539685249E0,-7.473682404E0
1.337196621E1,2.415255308E0,-7.589136124E0,-5.608776093E0
1.338167860E1,1.366600871E0,-6.361020088E0,-3.743870020E0
1.339139178E1,9.499505758E-1,-5.077569485E0,-2.070389748E0
1.340110574E1,-6.346961856E-1,-3.983451605E0,9.008977413E-1
1.341081892E1,-2.499901533E0,-3.045166016E0,4.063312054E0
1.342053121E1,-3.246761322E0,-2.563909531E0,6.938886642E0
1.343024438E1,-2.339283228E0,-2.961417198E0,6.570092678E0
1.343995834E1,-2.818146944E0,-3.696312666E0,2.672483683E0
1.344967142E1,-4.273880482E0,-5.922834396E0,-1.526919961E0
1.345938381E1,-4.517948151E0,-8.826823235E0,-4.406980991E0
1.346909699E1,-4.245166302E0,-1.263350582E1,-6.353243351E0
1.347881095E1,-3.632304668E0,-1.717986870E1,-7.480860710E0
1.348852412E1,-2.238784790E0,-2.138375854E1,-6.884748936E0
1.349823642E1,-3.882354796E-1,-2.383311081E1,-5.974878311E0
1.350794959E1,1.096211910E0,-2.402214432E1,-5.821737289E0
1.351766355E1,2.008176327E0,-2.308116722E1,-5.778666496E0
1.352737662E1,1.778465390E0,-2.170708847E1,-5.797809124E0
1.353708902E1,2.940180898E-1,-2.032343864E1,-5.271089077E0
1.354680220E1,-1.420140266E0,-1.835534286E1,-3.949652910E0
1.355651616E1,-2.327319145E0,-1.599242973E1,-2.491526604E0
1.356622933E1,-2.226820469E0,-1.385683632E1,-1.658525229E0
1.357594162E1,-2.052144527E0,-1.226949692E1,-1.179661512E0
1.358565480E1,-2.624328136E0,-1.110838032E1,-8.180462122E-1
1.359536876E1,-2.729612350E0,-1.036869907E1,-3.463610709E-1
1.360508194E1,-2.262712955E0,-9.195617676E0,-8.793623000E-2
1.361479423E1,-2.121536493E0,-7.596314430E0,-4.615156651E-1
1.362450741E1,-2.571686029E0,-6.035296917E0,-1.158126116E0
1.363422136E1,-3.131905794E0,-4.627718925E0,-1.428515077E0
1.364393454E1,-3.584448338E0,-3.464209080E0,-1.926521301E0
1.365364683E1,-3.605983734E0,-2.563909531E0,-2.989532709E0
1.366336001E1,-3.062513828E0,-2.085045815E0,-3.497110367E0
1.367307397E1,-2.289033890E0,-1.807478428E0,-3.466003656E0
1.368278704E1,-1.530210137E0,-1.484148264E0,-2.845963478E0
1.369249944E1,-1.441675663E0,-8.904291391E-1,-2.369492531E0
1.370221261E1,-1.640279889E0,-1.914258152E-1,-2.807678223E0
1.371192657E1,-1.135095239E0,-2.362912335E-2,-3.597608805E0
1.372163975E1,-3.643072546E-1,-3.445664644E-1,-4.531407833E0
1.373135204E1,4.905286431E-1,-1.259222865E0,-6.456134796E0
1.374106522E1,1.721037745E0,-2.420340061E0,-9.139984131E0
1.375077918E1,4.031308174E0,-4.136891365E0,-1.200568867E1
1.376049235E1,5.688038349E0,-6.416054726E0,-8.009973526E0
1.377020464E1,6.724729061E0,-8.402995110E0,-4.926223755E-1
1.377991782E1,7.201199532E0,-9.327222824E0,5.997909069E0
1.378963178E1,7.579265594E0,-9.212367058E0,1.050598717E1
1.379934496E1,9.161818504E0,-7.897810459E0,5.255835056E0
1.380905725E1,4.766203403E0,-5.879763603E0,-7.614859104E0
1.381877048E1,-8.195417404E0,-5.925227165E0,-9.230911255E0
1.382848438E1,-1.605284882E1,-8.180462837E0,8.913264275E-1
1.383819756E1,-1.407518101E1,-1.241785240E1,3.824029684E0
1.384790985E1,-6.591329098E0,-1.539153290E1,4.173680782E0
1.385762308E1,6.508477330E-1,-1.724686813E1,3.000599623E0
1.386733699E1,3.322733402E0,-1.794347763E1,1.920838356E0
1.387705016E1,2.269293070E0,-1.622453308E1,1.731506228E0
1.388676246E1,4.088735580E-1,-1.478584957E1,1.923231244E0
1.389647569E1,-6.972087026E-1,-1.374437332E1,6.326025128E-1
1.390618959E1,-3.786641955E-1,-1.365344620E1,-3.897309899E-1
1.391590277E1,9.595218897E-1,-1.436680603E1,-1.289731383E0
1.392561506E1,1.325922847E0,-1.510888004E1,-2.314457655E0
1.393532829E1,7.657032609E-1,-1.565235043E1,-2.857927561E0
1.394504220E1,-3.523431420E-1,-1.617428398E1,-3.542573929E0
1.395475537E1,-1.089631557E0,-1.619342804E1,-4.560121536E0
1.396446766E1,-1.278963685E0,-1.536521149E1,-5.429314613E0
1.397418089E1,-7.235297561E-1,-1.389751434E1,-5.565705299E0
1.398389480E1,-7.208377868E-2,-1.176670551E1,-6.018248081E0
1.399360798E1,-3.858426586E-2,-9.662516594E0,-6.381957054E0
1.400332027E1,5.712864175E-2,-8.496614456E0,-5.970092297E0
1.401303350E1,3.059822023E-1,-8.376673698E0,-6.066104412E0
1.402274740E1,2.724826932E-1,-8.640183449E0,-6.101996899E0
1.403246058E1,3.777668774E-1,-8.953642845E0,-7.104888439E0
1.404217287E1,1.931606054E0,-9.389435768E0,-8.970093727E0
1.405188610E1,3.332304716E0,-9.535398483E0,-1.043509960E1
1.406160006E1,3.394518137E0,-9.341579437E0,-1.171376419E1
1.407131313E1,2.941975355E0,-8.889037132E0,-1.218784237E1
1.408102548E1,2.812762976E0,-8.383852005E0,-1.092353439E1
1.409073871E1,2.525325298E0,-7.766204834E0,-8.639585495E0
1.410045266E1,2.386541367E0,-6.918846607E0,-6.305386543E0
1.411016574E1,2.803191662E0,-6.166902065E0,-4.277469635E0
1.411987808E1,2.558824778E0,-5.568397522E0,-2.058425665E0
1.412959131E1,1.443171144E0,-4.926821709E0,6.999006122E-2
1.413930527E1,-4.408775866E-1,-3.897309780E0,1.372582912E0
1.414901834E1,-1.707278967E0,-3.401696444E0,3.438486099E0
1.415873074E1,-2.147857428E0,-3.660420418E0,6.828517437E0
1.416844392E1,-3.854837179E0,-4.742574692E0,4.377070904E0
1.417815787E1,-6.222535133E0,-6.258128643E0,-4.248755932E0
1.418787095E1,-7.494021416E0,-9.140582085E0,-8.283054352E0
1.419758334E1,-7.532306671E0,-1.332772255E1,-6.903891563E0
1.420729652E1,-5.432604790E0,-1.872413635E1,-5.536991596E0
1.421701048E1,-2.339283228E0,-2.338296127E1,-3.097209692E0
1.422672355E1,9.595218897E-1,-2.574587440E1,-1.000199914E0
1.423643595E1,3.638586044E0,-2.503251457E1,-2.580060959E0
1.424614912E1,3.739084482E0,-2.268156624E1,-6.434599400E0
1.425586308E1,2.577967405E0,-2.087408829E1,-8.484051704E0
1.426557616E1,-2.494517565E-1,-1.977039719E1,-7.267899513E0
1.427528855E1,-4.111168385E0,-1.864038658E1,-4.694119930E0
1.428500173E1,-6.117250919E0,-1.689243126E1,-2.630609512E0
1.429471569E1,-4.185346127E0,-1.485524082E1,-1.665703654E0
1.430442886E1,-1.319641709E0,-1.351914883E1,-1.459621787E0
1.431414116E1,-2.662015148E-2,-1.186750317E1,-5.907281041E-1
1.432385433E1,7.866404206E-2,-1.037348461E1,7.139584422E-1
1.433356829E1,-5.653043389E-1,-8.877073288E0,1.638186216E0
1.434328147E1,-1.147059321E0,-7.344769001E0,1.772184253E0
1.435299376E1,-1.271785259E0,-5.815157413E0,1.066002488E0
1.436270699E1,-1.601994753E0,-4.459922314E0,1.298106313E-1
1.437242089E1,-2.198106766E0,-3.215056419E0,-4.304089844E-1
1.438213407E1,-3.136691332E0,-2.116152525E0,-1.751845241E0
1.439184636E1,-3.878765583E0,-1.333400369E0,-3.463610888E0
1.440155959E1,-4.161417484E0,-4.977070987E-1,-4.945665359E0
1.441127350E1,-3.708875179E0,9.840483218E-2,-5.120341301E0
1.442098668E1,-2.217249393E0,2.443670183E-1,-4.086043835E0
1.443069897E1,-7.929216027E-1,2.324029058E-1,-3.142673492E0
1.444041220E1,-4.265206456E-1,3.544368446E-1,-3.049353361E0
1.445012616E1,-9.005986452E-1,-8.832506537E-1,-1.641775489E0
1.445983923E1,-4.480560422E-1,-2.870190859E0,-2.082353830E0
1.446955157E1,1.567897081E0,-3.583850145E0,-5.261518002E0
1.447926480E1,4.229912281E0,-3.634099483E0,-1.010010433E1
1.448897876E1,7.828418255E0,-4.756931305E0,-1.174726391E1
1.449869183E1,1.109611702E1,-6.123831272E0,-8.321339607E0
1.450840423E1,9.544969559E0,-7.541279793E0,2.016551256E0
1.451811741E1,6.920940399E0,-9.025427818E0,7.810173035E0
1.452783136E1,4.830809593E0,-9.885049820E0,6.251548290E0
1.453754444E1,-3.093620539E0,-1.055055332E1,-2.824428082E0
1.454725683E1,-1.335224915E1,-7.467102051E0,6.326025128E-1
1.455697001E1,-1.357956791E1,-1.074706364E1,7.668996453E-1
1.456668397E1,-9.047561646E0,-1.238913822E1,-3.631108403E-1
1.457639704E1,-3.096013308E0,-1.351197052E1,3.847957850E0
1.458610944E1,2.786442041E0,-1.582732582E1,3.026920557E0
1.459582261E1,4.514957428E0,-1.537956810E1,1.676471353E0
1.460553657E1,3.075973511E0,-1.431177139E1,2.083550215E0
1.461524975E1,-9.604191780E-1,-1.438355637E1,-1.445264935E0
1.462496204E1,-2.636292458E0,-1.442901993E1,-3.389433384E0
1.463467522E1,-1.353141189E0,-1.608096504E1,-2.553740025E0
1.464438918E1,1.800000787E0,-1.771855164E1,-2.046162367E0
1.465410235E1,2.970689297E0,-1.775444412E1,-2.484348059E0
1.466381464E1,2.563610315E0,-1.709851265E1,-2.879462957E0
1.467352787E1,9.882357717E-1,-1.608575058E1,-2.314457655E0
1.468324178E1,-7.926224917E-2,-1.459173203E1,-1.869093537E0
1.469295496E1,-3.858426511E-1,-1.276511097E1,-2.527418852E0
1.470266725E1,-7.642077208E-1,-1.060319519E1,-4.133900166E0
1.471238048E1,-1.743171334E0,-8.499007225E0,-5.263910770E0
1.472209438E1,-2.947658300E0,-6.849454880E0,-5.287838936E0
1.473180756E1,-3.507878065E0,-6.873383045E0,-4.349553585E0
1.474151985E1,-2.734398127E0,-7.821239948E0,-3.858725548E0
1.475123308E1,-1.420140266E0,-8.893822670E0,-5.050949574E0
1.476094704E1,1.983051747E-1,-9.626625061E0,-9.190233231E0
1.477066011E1,1.321137190E0,-9.815657616E0,-1.347817135E1
1.478037251E1,1.550848126E0,-9.746265411E0,-1.592244053E1
1.479008569E1,1.938784599E0,-9.918548584E0,-1.555394554E1
1.479979964E1,2.707478762E0,-1.028495026E1,-1.308305645E1
1.480951272E1,3.241078377E0,-1.011954594E1,-1.031306553E1
1.481922511E1,4.115056515E0,-9.856335640E0,-7.835297585E0
1.482893829E1,5.063212872E0,-9.873085022E0,-4.131507397E0
1.483865225E1,5.393422127E0,-9.559326172E0,-1.270588875E0
1.484836532E1,4.162913322E0,-8.489136696E0,-2.745763958E-1
1.485807772E1,1.907677889E0,-6.774978161E0,2.473580390E-1
1.486779089E1,-3.164508045E-1,-5.259723186E0,3.622135222E-1
1.487750485E1,-1.604387641E0,-4.658825874E0,1.221535921E0
1.488721803E1,-2.250748873E0,-5.489434242E0,2.533699989E0
1.489693032E1,-2.849253654E0,-7.217949390E0,2.205584288E0
1.490664355E1,-3.639483213E0,-9.504291534E0,-1.325623751E0
1.491635746E1,-4.700101852E0,-1.223121166E1,-4.478765965E0
1.492607063E1,-5.027918816E0,-1.530060482E1,-5.749952793E0
1.493578293E1,-4.905884743E0,-1.840798378E1,-6.130710602E0
1.494549616E1,-4.211667061E0,-2.059382820E1,-5.895915031E0
1.495521011E1,-3.232404232E0,-2.118515396E1,-5.596812248E0
1.496492319E1,-2.121536493E0,-2.060339928E1,-6.080461502E0
1.497463553E1,-1.274178028E0,-1.933939171E1,-6.803392887E0
1.498434876E1,-1.676172256E0,-1.804666901E1,-6.295815468E0
1.499406272E1,-2.657827854E0,-1.679193115E1,-4.696512699E0
1.500377579E1,-3.445365429E0,-1.546092415E1,-2.953640461E0
1.501348819E1,-3.562912941E0,-1.391426373E1,-1.873879194E0
1.502320136E1,-2.942872763E0,-1.235563850E1,-1.737488389E0
1.503291532E1,-2.684148788E0,-1.076381397E1,-1.672882080E0
1.504262839E1,-2.624328136E0,-9.095118523E0,-1.294517040E0
1.505234079E1,-2.473580360E0,-7.569993496E0,-8.635098934E-1
1.506205397E1,-2.207678080E0,-6.380162239E0,-5.763711333E-1
