"Time (s)","Gyroscope x (rad/s)","Gyroscope y (rad/s)","Gyroscope z (rad/s)"
1.669914150E-1,-7.321004272E-1,4.544703662E-1,6.239804626E-1
1.767045920E-1,-1.487107635E0,3.726168275E-1,4.871506989E-1
1.864184990E-1,-2.155374527E0,2.076880634E-1,3.246653080E-1
1.961315710E-1,-2.712467194E0,-4.413371533E-2,1.583621502E-1
2.058438630E-1,-3.143725395E0,-2.823641598E-1,5.650337320E-3
2.155570400E-1,-3.435710430E0,-4.973823726E-1,-1.238492802E-1
2.252709460E-1,-3.628738165E0,-7.148439884E-1,-1.934858710E-1
2.349840190E-1,-3.815657377E0,-1.010494113E0,-2.179197669E-1
2.446963630E-1,-4.008685112E0,-1.563921690E0,-2.338017821E-1
2.544094360E-1,-4.086873531E0,-2.256622553E0,-2.680092454E-1
2.641233940E-1,-4.049001217E0,-2.708649397E0,-2.582356930E-1
2.738364670E-1,-3.934161663E0,-2.829597235E0,-1.067455560E-1
2.835488110E-1,-3.882850647E0,-2.533947229E0,2.499892414E-1
2.932619880E-1,-3.990359783E0,-1.701973200E0,7.656970620E-1
3.029758940E-1,-4.100312233E0,-9.103151560E-1,1.189625025E0
3.126889150E-1,-4.062439919E0,-3.764346242E-1,1.328898191E0
3.224012590E-1,-4.012350082E0,-2.115058601E-1,1.215280652E0
3.321144360E-1,-3.888959169E0,-5.755708218E-1,1.019809484E0
3.418283420E-1,-3.578648567E0,-9.567395449E-1,7.840224504E-1
3.515414150E-1,-3.210918665E0,-9.457442760E-1,6.056550741E-1
3.612537070E-1,-2.893278122E0,-5.609105229E-1,5.506787896E-1
3.709668840E-1,-2.579302549E0,-3.558185324E-2,5.506787896E-1
3.806807900E-1,-2.254331827E0,4.911212027E-1,5.751127005E-1
3.903938630E-1,-1.953794956E0,8.967237473E-1,6.007682681E-1
4.001061550E-1,-1.692352295E0,1.001789451E0,5.482354164E-1
4.098193320E-1,-1.419914484E0,9.578084946E-1,4.419479966E-1
4.195332380E-1,-1.085170150E0,9.590302110E-1,3.503209054E-1
4.292463110E-1,-6.771242023E-1,1.006676316E0,2.634278834E-1
4.389586030E-1,-2.238755226E-1,1.043327093E0,1.412584335E-1
4.486717800E-1,2.452551723E-1,1.053100705E0,-7.788302377E-3
4.583856860E-1,6.814001203E-1,1.062874198E0,-1.201841980E-1
4.680987590E-1,1.062568784E0,1.103190184E0,-1.580567211E-1
4.778111030E-1,1.395022392E0,1.141062737E0,-1.568350345E-1
4.875241760E-1,1.665016890E0,1.079977989E0,-1.385096163E-1
4.972381340E-1,1.872704983E0,9.052756429E-1,-9.086353332E-2
5.069512070E-1,2.010756493E0,6.707102656E-1,-2.855710872E-2
5.166635510E-1,2.090166569E0,3.836120665E-1,3.863608837E-2
5.263767280E-1,2.191567183E0,7.437065244E-2,9.483403713E-2
5.360906340E-1,2.406585455E0,-5.512896553E-2,1.058292910E-1
5.458036550E-1,2.690018654E0,1.710372269E-1,8.139539510E-2
5.555159990E-1,2.912367105E0,7.269082665E-1,6.551336497E-2
5.652291760E-1,2.887933016E0,1.514901161E0,2.641914412E-2
5.749430820E-1,2.583731174E0,2.146517277E0,1.298050396E-2
5.846561550E-1,2.029081821E0,2.249139547E0,3.741439432E-2
5.943684460E-1,1.253305912E0,1.830098391E0,-8.108997345E-2
6.040816240E-1,4.993676245E-1,9.297095537E-1,-3.950654566E-1
6.137955300E-1,3.124483824E-1,2.186833173E-1,-7.151494026E-1
6.235086030E-1,6.435275674E-1,4.178195298E-1,-8.996253014E-1
6.332208940E-1,9.843803644E-1,1.138619304E0,-9.167290330E-1
6.429340710E-1,1.129762053E0,1.216807723E0,-9.240592122E-1
6.526479780E-1,5.971031785E-1,-5.390727147E-2,-8.568660021E-1
6.623610510E-1,-4.559974670E-1,-1.303700805E0,-4.805840850E-1
6.720733940E-1,-2.238755226E-1,-1.618897915E0,-1.714953631E-1
6.817864670E-1,5.751127005E-1,-6.757497787E-1,4.150707126E-1
6.915004260E-1,1.377918720E0,2.431172132E-1,9.611681700E-1
7.012134990E-1,2.004647970E0,1.207950488E-1,8.866447806E-1
7.109258420E-1,2.255095482E0,-6.720846891E-1,3.784198761E-1
7.206390190E-1,1.996096134E0,-1.436865449E0,-1.214058921E-1
7.303529260E-1,1.636917949E0,-1.741067410E0,-3.400892019E-1
7.400659460E-1,1.541625738E0,-1.535822749E0,-3.144336343E-1
7.497782900E-1,1.644248128E0,-9.555178285E-1,-1.421747059E-1
7.594914670E-1,1.977770686E0,-2.982461751E-1,1.542389300E-2
7.692053740E-1,2.435906172E0,1.734806150E-1,3.206948051E-3
7.789184460E-1,2.813409805E0,3.506263196E-1,-1.531699449E-1
7.886307380E-1,3.062635422E0,4.410317242E-1,-3.217637837E-1
7.983439150E-1,3.190913439E0,6.291726828E-1,-3.633013964E-1
8.080578210E-1,3.209238768E0,8.967237473E-1,-2.924431264E-1
8.177708940E-1,3.113946676E0,1.064095974E0,-2.057028115E-1
8.274832380E-1,2.907480240E0,1.038440347E0,-1.421747059E-1
8.371964150E-1,2.631377220E0,8.735115528E-1,-4.321744293E-2
8.469103210E-1,2.357717752E0,6.658235192E-1,1.840177327E-1
8.566233420E-1,2.136590958E0,5.387672782E-1,4.712686539E-1
8.663356860E-1,1.845827699E0,5.424323678E-1,6.765133142E-1
8.760488630E-1,1.343711257E0,6.291726828E-1,7.082774043E-1
8.857627690E-1,6.740699410E-1,7.831062078E-1,5.934380889E-1
8.954758420E-1,-7.727217674E-2,8.295305967E-1,3.869717419E-1
9.051881340E-1,-8.506048322E-1,6.059604883E-1,1.546970755E-1
9.149013110E-1,-1.604390383E0,2.101314515E-1,-6.032116711E-2
9.246152170E-1,-2.298312902E0,-2.139492482E-1,-2.191414535E-1
9.343282900E-1,-2.876174212E0,-6.171084642E-1,-2.838912606E-1
9.440406340E-1,-3.314762592E0,-9.249754548E-1,-2.765611112E-1
9.537538110E-1,-3.649507046E0,-1.139993668E0,-2.252499312E-1
9.634677170E-1,-3.914614677E0,-1.362342119E0,-1.556133330E-1
9.731807900E-1,-4.132076263E0,-1.649440289E0,-4.810422286E-2
9.828930820E-1,-4.289827824E0,-2.045269251E0,6.872031838E-3
9.926062590E-1,-4.242181301E0,-2.391008854E0,-6.276455522E-2
1.002320165E0,-3.976921082E0,-2.409334183E0,-1.140757278E-1
1.012033238E0,-3.636068344E0,-2.101467371E0,-3.833066672E-2
1.021745582E0,-3.446705580E0,-1.538266063E0,1.779092699E-1
1.031458759E0,-3.531002522E0,-9.408574700E-1,5.079194903E-1
1.041172665E0,-3.638511658E0,-6.012263894E-1,8.744278550E-1
1.050885738E0,-3.637290001E0,-2.909159958E-1,1.080894232E0
1.060598030E0,-3.669054031E0,3.038965166E-2,1.099219680E0
1.070311207E0,-3.645841837E0,-1.481304597E-2,1.043021679E0
1.080025113E0,-3.498016834E0,-3.397837877E-1,9.061918855E-1
1.089738186E0,-3.279333591E0,-4.802786708E-1,6.997255087E-1
1.099450530E0,-2.977575064E0,-3.324536085E-1,4.993676245E-1
1.109163707E0,-2.563420534E0,3.649812192E-2,3.344388604E-1
1.118877613E0,-2.093068123E0,5.008947253E-1,2.328855246E-1
1.128590686E0,-1.642262816E0,8.564078808E-1,1.608055383E-1
1.138303030E0,-1.268424392E0,9.333745837E-1,8.506047726E-2
1.148016207E0,-9.300149679E-1,8.661814332E-1,1.664558798E-2
1.157730113E0,-5.549547076E-1,7.867712975E-1,-3.710897267E-2
1.167443186E0,-1.444653720E-1,7.562289238E-1,-8.353336155E-2
1.177155478E0,2.672456801E-1,7.488987446E-1,-1.189625040E-1
1.186868707E0,6.618530154E-1,7.293516397E-1,-1.568350345E-1
1.196582613E0,1.023474574E0,7.183563709E-1,-1.983726472E-1
1.206295686E0,1.337602735E0,7.232431769E-1,-2.130329758E-1
1.216007978E0,1.588050127E0,7.464553714E-1,-1.983726472E-1
1.225721155E0,1.750535488E0,7.745543122E-1,-1.653869003E-1
1.235435061E0,1.855601311E0,8.087617755E-1,-1.189625040E-1
1.245148134E0,1.942341566E0,7.867712975E-1,-7.620319724E-2
1.254860478E0,2.047407389E0,5.998520255E-1,-3.588727489E-2
1.264573655E0,2.214779377E0,3.054236174E-1,-4.581354442E-4
1.274287561E0,2.455453157E0,1.991362125E-1,3.130592033E-2
1.284000738E0,2.687575340E0,4.593571424E-1,8.139539510E-2
1.293712978E0,2.733999729E0,1.094638348E0,1.253764033E-1
1.303426155E0,2.521424770E0,1.714037418E0,1.620272398E-1
1.313140061E0,2.087723255E0,1.795890927E0,2.316638231E-1
1.322853134E0,1.335159421E0,1.341420531E0,1.962346882E-1
1.332565478E0,5.042544007E-1,6.548282504E-1,-9.575030953E-2
1.342278655E0,2.806843221E-1,2.932066917E-1,-4.329380095E-1
1.351992613E0,6.484143734E-1,6.682668924E-1,-6.406260729E-1
1.361705686E0,1.119988441E0,1.298661232E0,-7.371399403E-1
1.371418030E0,1.511083364E0,1.035996914E0,-8.434273601E-1
1.381131207E0,1.200773001E0,-1.122889996E0,-9.387195110E-1
1.390845113E0,-5.283828825E-2,-2.746521950E0,-6.882721782E-1
1.400558186E0,-1.102579311E-1,-2.180877447E0,-2.875563502E-1
1.410270530E0,6.679614782E-1,-3.837648034E-1,4.676035643E-1
1.419983707E0,1.698002696E0,6.120689511E-1,1.067455530E0
1.429697613E0,2.525089741E0,4.117110670E-1,9.819369912E-1
1.439410790E0,2.837843657E0,-4.546230733E-1,4.016320705E-1
1.449123030E0,2.453009844E0,-1.482068181E0,-1.250709742E-1
1.458836259E0,1.826280594E0,-2.088028669E0,-4.121691883E-1
1.468550165E0,1.508640051E0,-1.974411011E0,-4.097257853E-1
1.478263238E0,1.590493560E0,-1.434422135E0,-2.069245130E-1
1.487975582E0,1.955780268E0,-6.562026739E-1,-1.511846948E-2
1.497688759E0,2.356496096E0,1.000262350E-1,-2.855710872E-2
1.507402665E0,2.696127176E0,5.094466209E-1,-2.081461996E-1
1.517115738E0,2.968564987E0,5.803049207E-1,-4.060607255E-1
1.526828134E0,3.100507975E0,6.157340407E-1,-5.086830258E-1
1.536541311E0,3.100507975E0,7.831062078E-1,-4.928010404E-1
1.546255217E0,2.984447002E0,9.785773158E-1,-3.852919042E-1
1.555968290E0,2.752325058E0,1.045770526E0,-2.130329758E-1
1.565680634E0,2.482330561E0,9.016105533E-1,-9.009997360E-3
1.575393811E0,2.236769915E0,6.267293096E-1,1.950129867E-1
1.585107769E0,2.027860165E0,3.811686933E-1,3.955236077E-1
1.594820842E0,1.739540339E0,2.993151546E-1,5.494571328E-1
1.604533186E0,1.267966151E0,4.214846194E-1,6.337540150E-1
1.614246363E0,6.386408210E-1,5.143333673E-1,6.361974478E-1
1.623960321E0,-1.102579311E-1,3.811686933E-1,5.433486104E-1
1.633673394E0,-9.251281619E-1,4.016320780E-2,4.052971601E-1
1.643385738E0,-1.710677743E0,-3.629959822E-1,2.365505993E-1
1.653098915E0,-2.387496471E0,-6.904101372E-1,6.795676053E-2
1.662812874E0,-2.899386406E0,-8.602256775E-1,-4.566083103E-2
1.672525946E0,-3.229243994E0,-8.883246183E-1,-9.697200358E-2
1.682238290E0,-3.423493385E0,-8.761076927E-1,-1.287360638E-1
1.691951467E0,-3.546884537E0,-9.286405444E-1,-1.605001241E-1
1.701665426E0,-3.673940897E0,-1.119224906E0,-1.482831687E-1
1.711378499E0,-3.842534781E0,-1.474738002E0,-1.043021679E-1
1.721090842E0,-3.946378708E0,-1.868123651E0,-1.165191159E-1
1.730804019E0,-3.902397633E0,-2.003731728E0,-1.568350345E-1
1.740517978E0,-3.782671690E0,-1.913326383E0,-7.788302377E-3
1.750231051E0,-3.669054031E0,-1.749619246E0,3.747547865E-1
1.759943394E0,-3.556658268E0,-1.526049137E0,9.123004079E-1
1.769656624E0,-3.443040609E0,-1.015380859E0,1.375322580E0
1.779370530E0,-3.421050072E0,-2.872509360E-1,1.520704269E0
1.789083603E0,-3.550549746E0,1.073564067E-1,1.418081880E0
1.798795999E0,-3.640954971E0,7.925742865E-2,1.161526084E0
1.808509176E0,-3.523672342E0,-1.968455315E-1,8.145648241E-1
1.818223082E0,-3.251234531E0,-2.738122940E-1,5.115845799E-1
1.827936259E0,-2.896943092E0,-1.969982497E-2,2.806843221E-1
1.837648551E0,-2.518217802E0,3.237490356E-1,1.339282542E-1
1.847361728E0,-2.172478199E0,6.499415040E-1,9.972081333E-2
1.857075686E0,-1.846285820E0,9.394831061E-1,1.498102844E-1
1.866788759E0,-1.542083859E0,1.076312900E0,2.231119573E-1
1.876501103E0,-1.268424392E0,1.017671585E0,2.684673667E-1
1.886214332E0,-9.776610136E-1,8.796200752E-1,2.524326444E-1
1.895928238E0,-6.270347238E-1,6.865923405E-1,1.815743446E-1
1.905641415E0,-2.409792393E-1,4.459185004E-1,5.573981255E-2
1.915353707E0,1.462979168E-1,2.663294077E-1,-9.208522737E-2
1.925066884E0,5.030327439E-1,2.174616307E-1,-2.276933193E-1
1.934780842E0,8.292251825E-1,3.384093940E-1,-3.168770075E-1
1.944493915E0,1.145644069E0,6.267293096E-1,-3.339807391E-1
1.954206259E0,1.418234587E0,9.309312105E-1,-2.887780368E-1
1.963919488E0,1.633252859E0,1.066539288E0,-2.008160353E-1
1.973633394E0,1.812842011E0,9.614735842E-1,-9.941539168E-2
1.983346571E0,1.965553761E0,6.792621613E-1,-9.009997360E-3
1.993058863E0,2.081614733E0,3.066453338E-1,5.329642445E-2
2.002772040E0,2.185458899E0,-1.137702987E-1,8.750387281E-2
2.012485999E0,2.321066856E0,-4.277457893E-1,8.994726092E-2
2.022199071E0,2.471335411E0,-3.972034156E-1,9.727742523E-2
2.031911467E0,2.481108904E0,1.330119967E-1,1.314848661E-1
2.041624644E0,2.178128719E0,1.044548869E0,1.595838517E-1
2.051338603E0,1.590493560E0,1.732362866E0,2.035648525E-1
2.061051676E0,8.487722874E-1,1.786117435E0,1.718007922E-1
2.070764019E0,2.782409191E-1,1.529561520E0,-6.398624927E-2
2.080477249E0,2.159345001E-1,1.349972486E0,-3.620797098E-1
2.090191155E0,5.580089688E-1,1.529561520E0,-5.636593103E-1
2.099904332E0,9.513946176E-1,1.856975675E0,-7.273663878E-1
2.109616624E0,1.294843435E0,1.585759521E0,-9.326110482E-1
2.119329853E0,1.256971002E0,-6.856760383E-2,-1.060889006E0
2.129043759E0,3.564293683E-1,-2.096580505E0,-6.723901033E-1
2.138756832E0,-1.527118147E-3,-2.715979576E0,-2.142546773E-1
2.148469228E0,3.356605768E-1,-1.392884493E0,4.199574888E-1
2.158182405E0,1.025918007E0,-1.320957243E-1,1.062568784E0
2.167896363E0,1.766417503E0,1.281252056E-1,1.183516622E0
2.177609436E0,2.432240963E0,-8.811471611E-2,6.960604787E-1
2.187321832E0,2.699792147E0,-6.586460471E-1,8.628217876E-2
2.197035009E0,2.487217426E0,-1.144880533E0,-3.376458287E-1
2.206748967E0,2.052294016E0,-1.124111652E0,-4.573718905E-1
2.216462040E0,1.789629698E0,-7.356128097E-1,-3.816268146E-1
2.226174436E0,1.899582267E0,-1.614163816E-1,-3.009949923E-1
2.235887613E0,2.267312288E0,3.518480062E-1,-2.948864996E-1
2.245601571E0,2.719339371E0,5.754181147E-1,-3.461976945E-1
2.255314644E0,3.061413765E0,5.766398311E-1,-3.840702176E-1
2.265026988E0,3.178696394E0,6.291726828E-1,-3.571929336E-1
2.274740217E0,3.067522287E0,8.405258060E-1,-2.961082160E-1
2.284454176E0,2.784089088E0,9.761339426E-1,-2.777827978E-1
2.294167249E0,2.498212576E0,8.637380004E-1,-2.948864996E-1
2.303879592E0,2.311293364E0,6.157340407E-1,-2.826695740E-1
2.313592821E0,2.142699480E0,3.420744538E-1,-1.763821393E-1
2.323306728E0,1.944784999E0,1.085781008E-1,-2.901524538E-3
2.333019905E0,1.635696292E0,-2.214321308E-2,1.950129867E-1
2.342732196E0,1.110214949E0,-1.969982497E-2,4.260659516E-1
2.352445426E0,3.613161445E-1,-1.359135192E-2,6.325323582E-1
2.362159384E0,-5.158604980E-1,-8.078455180E-2,7.705838084E-1
2.371872457E0,-1.386928678E0,-1.919587553E-1,7.950177193E-1
2.381584801E0,-2.121167183E0,-3.055763543E-1,7.046123147E-1
2.391298030E0,-2.670929670E0,-3.947600424E-1,5.445703268E-1
2.401011988E0,-3.038659573E0,-4.815003574E-1,3.405473530E-1
2.410725061E0,-3.274446726E0,-5.364766121E-1,1.339282542E-1
2.420437405E0,-3.429601908E0,-5.548020005E-1,-4.566083103E-2
2.430150634E0,-3.518785715E0,-5.829010010E-1,-1.653869003E-1
2.439864592E0,-3.584757090E0,-6.586460471E-1,-2.130329758E-1
2.449577665E0,-3.582313776E0,-7.685985565E-1,-2.582356930E-1
2.459290061E0,-3.545662880E0,-7.966975570E-1,-2.863346636E-1
2.469003238E0,-3.587200642E0,-7.197307944E-1,-1.788255423E-1
2.478717196E0,-3.681271076E0,-8.199097514E-1,1.094943732E-1
2.488430269E0,-3.724030256E0,-1.219403863E0,5.714476109E-1
2.498142613E0,-3.585978746E0,-1.456412554E0,1.054016948E0
2.507855842E0,-3.348970175E0,-1.019045949E0,1.278808713E0
2.517569801E0,-3.303767443E0,-1.736333370E-1,1.220167398E0
2.527282874E0,-3.375847340E0,3.261924386E-1,1.032026410E0
2.536995269E0,-3.306210756E0,1.930277348E-1,7.779139876E-1
2.546708446E0,-3.114404678E0,-7.223268598E-2,5.042544007E-1
2.556422405E0,-2.851740360E0,-1.198787764E-1,3.405473530E-1
2.566135478E0,-2.535321474E0,3.771981969E-2,2.757975459E-1
2.575847874E0,-2.177365065E0,3.249707520E-1,2.855710983E-1
2.585561051E0,-1.803526521E0,6.022953987E-1,3.576510847E-1
2.595275009E0,-1.472447276E0,6.426113248E-1,3.869717419E-1
2.604988082E0,-1.192679286E0,5.351021886E-1,3.429907262E-1
2.614700478E0,-9.068027735E-1,4.618005157E-1,2.597627938E-1
2.624413655E0,-5.561764240E-1,4.422534108E-1,1.583621502E-1
2.634127613E0,-1.615691036E-1,5.131117105E-1,4.963133857E-2
2.643840790E0,2.440334857E-1,6.438329816E-1,-5.054761097E-2
2.653553082E0,6.374191046E-1,7.562289238E-1,-1.580567211E-1
2.663266259E0,1.028361320E0,8.160919547E-1,-2.521272004E-1
2.672980217E0,1.398687482E0,8.185353279E-1,-3.107685447E-1
2.682693394E0,1.723658204E0,7.806627750E-1,-3.132119179E-1
2.692405686E0,1.998539567E0,6.939224601E-1,-2.582356930E-1
2.702118915E0,2.194010735E0,5.448757410E-1,-1.898207814E-1
2.711832821E0,2.281972647E0,2.980934680E-1,-1.409530044E-1
2.721545999E0,2.283194304E0,-7.101099193E-2,-1.140757278E-1
2.731258290E0,2.286859512E0,-4.338542521E-1,-1.067455560E-1
2.740971519E0,2.405363798E0,-5.267030597E-1,-1.018587798E-1
2.750685426E0,2.597169876E0,-1.919587553E-1,-7.131642103E-2
2.760398603E0,2.755990028E0,5.326588154E-1,-5.787777901E-2
2.770110894E0,2.707122326E0,1.524674773E0,-7.253811508E-2
2.779824124E0,2.297854662E0,2.250361204E0,-8.597674966E-2
2.789538030E0,1.491536260E0,2.232035875E0,-1.262926757E-1
2.799251207E0,3.955236077E-1,1.450151443E0,-4.060607255E-1
2.808963499E0,-7.605048269E-2,7.427902818E-1,-7.689039707E-1
2.818676728E0,5.955760926E-2,1.070204377E0,-1.010799527E0
2.828390686E0,2.843494117E-1,1.519788027E0,-1.110978484E0
2.838103759E0,7.375980616E-1,6.071822047E-1,-1.158624530E0
2.847816103E0,9.538379908E-1,-1.835137844E0,-9.839222431E-1
2.857529332E0,2.061609477E-1,-3.606595039E0,-6.113054156E-1
2.867243290E0,4.611896724E-2,-2.896790504E0,-2.716743052E-1
2.876956363E0,7.571451664E-1,-1.065470338E0,3.344388604E-1
2.886668759E0,1.491536260E0,-2.347180545E-1,8.524373770E-1
2.896381936E0,2.107270241E0,-2.115058601E-1,8.548807502E-1
2.906095894E0,2.498212576E0,-6.305471063E-1,4.883723855E-1
2.915808967E0,2.460340023E0,-1.427091956E0,3.130592033E-2
2.925521363E0,2.107270241E0,-2.092915535E0,-3.254288733E-1
2.935234540E0,1.712663054E0,-2.064816475E0,-4.622586668E-1
2.944948499E0,1.619814277E0,-1.392884493E0,-4.219427407E-1
2.954661571E0,1.906912446E0,-4.253024161E-1,-3.620797098E-1
2.964373967E0,2.404142141E0,3.909422457E-1,-3.779617548E-1
2.974087144E0,2.895263195E0,8.075400591E-1,-4.610369802E-1
2.983801103E0,3.206795454E0,9.028322697E-1,-5.123481154E-1
2.993514280E0,3.277653694E0,9.089407325E-1,-4.879142344E-1
3.003226571E0,3.173809528E0,9.504783154E-1,-4.109475017E-1
3.012939749E0,2.949017763E0,9.455915689E-1,-3.266505599E-1
3.022653707E0,2.676579952E0,8.539644480E-1,-2.374668717E-1
3.032366884E0,2.444458008E0,7.342383862E-1,-1.250709742E-1
3.042079176E0,2.259982109E0,6.536065936E-1,3.985778242E-2
3.051792405E0,2.079171419E0,6.132906675E-1,2.084516287E-1
3.061506311E0,1.823837161E0,5.864133835E-1,3.271087110E-1
3.071219488E0,1.359593272E0,5.155550838E-1,4.101839364E-1
3.080931780E0,6.129852533E-1,3.713951409E-1,4.175141156E-1
3.090645009E0,-3.142809272E-1,1.490467340E-1,3.759764731E-1
3.100358967E0,-1.270867705E0,-9.910997003E-2,3.246653080E-1
3.110072040E0,-2.102841616E0,-3.080197275E-1,2.560977042E-1
3.119784384E0,-2.741787910E0,-4.839437306E-1,1.681357026E-1
3.129497613E0,-3.177932978E0,-6.476507783E-1,7.773031294E-2
3.139211571E0,-3.406389713E0,-8.223531246E-1,3.206948051E-3
3.148924644E0,-3.501681805E0,-1.025154471E0,-4.932591692E-2
3.158637040E0,-3.594530582E0,-1.269493341E0,-6.642963737E-2
3.168350217E0,-3.749686003E0,-1.539487839E0,-3.100049868E-2
3.178064176E0,-3.907284498E0,-1.815590739E0,3.130592033E-2
3.187777249E0,-4.014793396E0,-2.017170429E0,5.940489471E-2
3.197489644E0,-4.059996128E0,-2.059929609E0,9.239064902E-2
3.207202821E0,-4.041670799E0,-1.981741190E0,2.451024652E-1
3.216916780E0,-3.948822021E0,-1.852241635E0,5.384618640E-1
3.226629853E0,-3.903619289E0,-1.695864677E0,8.060129285E-1
3.236342249E0,-3.879185438E0,-1.295148849E0,8.805363178E-1
3.246055426E0,-3.985472918E0,-4.350759685E-1,8.341119289E-1
3.255769384E0,-4.205530643E0,4.312581718E-1,9.123004079E-1
3.265482457E0,-4.142002583E0,7.806627750E-1,1.038134933E0
3.275194853E0,-3.811992407E0,7.794411182E-1,1.012479305E0
3.284908030E0,-3.484578133E0,6.267293096E-1,9.098569751E-1
3.294621988E0,-3.152277231E0,3.200839758E-1,7.852441669E-1
3.304335165E0,-2.683146477E0,6.948387623E-2,6.618530154E-1
3.314047457E0,-2.108950138E0,1.404948682E-1,5.421269536E-1
3.323760634E0,-1.589730024E0,3.762819171E-1,4.333961308E-1
3.333474592E0,-1.184127450E0,5.766398311E-1,3.112266660E-1
3.343187769E0,-8.237275481E-1,7.403468490E-1,1.779092699E-1
3.352900061E0,-4.547757804E-1,8.466343284E-1,5.329642445E-2
3.362613290E0,-6.627693027E-2,9.443698525E-1,-4.443913698E-2
3.372327196E0,3.368822634E-1,1.055544019E0,-1.140757278E-1
3.382040374E0,7.217160463E-1,1.159388065E0,-1.543916464E-1
3.391752665E0,1.083337665E0,1.233911514E0,-1.702736765E-1
3.401465894E0,1.446333647E0,1.290109396E0,-1.629435122E-1
3.411179801E0,1.800624967E0,1.285222650E0,-1.446180940E-1
3.420892978E0,2.114600420E0,1.167939901E0,-1.385096163E-1
3.430605269E0,2.339392185E0,9.187142849E-1,-1.446180940E-1
3.440318499E0,2.462783337E0,5.754181147E-1,-1.324011385E-1
3.450032405E0,2.525089741E0,2.638860047E-1,-1.238492802E-1
3.459745582E0,2.597169876E0,1.097997949E-1,-1.275143623E-1
3.469457874E0,2.723004341E0,1.881409585E-1,-8.231166750E-2
3.479171103E0,2.861055851E0,4.825693369E-1,2.275406010E-2
3.488885009E0,2.922140598E0,8.539644480E-1,9.361234307E-2
3.498598186E0,2.828070164E0,1.174048424E0,1.021642014E-1
3.508310478E0,2.438349485E0,1.268118858E0,-1.267508045E-2
3.518023707E0,1.600267053E0,9.785773158E-1,-2.447970361E-1
3.527737613E0,5.628957748E-1,5.803049207E-1,-4.830274582E-1
3.537450790E0,-1.496575773E-2,1.844758689E-1,-6.687250137E-1
3.547163082E0,-1.017060652E-1,-1.333174109E-1,-8.299887180E-1
3.556876311E0,-2.748812549E-3,-8.431219459E-1,-9.387195110E-1
3.566590217E0,3.429907262E-1,-1.831472754E0,-9.472714067E-1
3.576303394E0,7.375980616E-1,-2.543720722E0,-8.079982400E-1
3.586015686E0,1.104106426E0,-2.409334183E0,-4.756973088E-1
3.595728915E0,1.507418275E0,-1.159540772E0,-6.642963737E-2
3.605442821E0,1.959445238E0,-2.273878902E-1,3.356605768E-1
3.615155999E0,2.256317139E0,-7.345438004E-2,4.761554301E-1
3.624868290E0,2.356496096E0,-3.507790267E-1,2.585411072E-1
3.634581519E0,2.269755602E0,-9.787300229E-1,-1.878355257E-2
3.644295426E0,2.054737568E0,-1.662878990E0,-1.934858710E-1
3.654008603E0,1.858044624E0,-1.770388126E0,-1.666085869E-1
3.663720894E0,1.810398579E0,-1.121668339E0,-1.145338640E-2
3.673434124E0,2.030303478E0,-2.774773538E-1,1.786728203E-2
3.683148030E0,2.446901321E0,2.968717813E-1,-1.482831687E-1
3.692861207E0,2.810966492E0,5.094466209E-1,-4.023956358E-1
3.702573499E0,2.983225346E0,5.192201734E-1,-5.929799676E-1
3.712286728E0,2.971008301E0,6.059604883E-1,-5.954233408E-1
3.722000634E0,2.802414417E0,8.869501948E-1,-4.146125913E-1
3.731713811E0,2.536085129E0,1.171604991E0,-1.922641695E-1
3.741426103E0,2.255095482E0,1.244906664E0,-1.679830020E-3
3.751139332E0,2.046185493E0,1.086086392E0,1.620272398E-1
3.760853238E0,1.941119909E0,8.099834919E-1,3.063398898E-1
3.770566415E0,1.853157878E0,5.827482939E-1,4.456130862E-1
3.780278707E0,1.635696292E0,5.448757410E-1,5.506787896E-1
3.789991936E0,1.223985195E0,6.963658929E-1,5.995466113E-1
3.799705842E0,5.995466113E-1,8.625163436E-1,6.386408210E-1
3.809419019E0,-1.860029846E-1,9.541434050E-1,6.642963886E-1
3.819131311E0,-1.002094984E0,9.443698525E-1,6.032116413E-1
3.828844540E0,-1.741220117E0,8.564078808E-1,4.297310412E-1
3.838558446E0,-2.356954098E0,7.586722970E-1,1.925695986E-1
3.848271624E0,-2.843188524E0,6.340594292E-1,-3.710897267E-2
3.857983915E0,-3.212140322E0,4.349232614E-1,-2.215848416E-1
3.867697092E0,-3.495573521E0,1.183516532E-1,-3.376458287E-1
3.877411051E0,-3.739912271E0,-2.786990702E-1,-3.669664860E-1
3.887124228E0,-3.954930544E0,-6.342121959E-1,-3.168770075E-1
3.896836519E0,-4.064883232E0,-8.504521251E-1,-2.777827978E-1
3.906549696E0,-4.047779560E0,-9.994988441E-1,-2.606790662E-1
3.916263655E0,-3.997689962E0,-1.109451294E0,-1.739387512E-1
3.925976832E0,-3.980586052E0,-1.236507535E0,3.008422814E-2
3.935689124E0,-4.030675411E0,-1.401436329E0,3.124483824E-1
3.945402301E0,-4.110085964E0,-1.355011940E0,5.848862529E-1
3.955116259E0,-4.155441284E0,-9.103151560E-1,7.143858671E-1
3.964829436E0,-4.226299286E0,-3.385621011E-1,7.339329720E-1
3.974541728E0,-4.199422359E0,-2.580829710E-2,7.192726731E-1
3.984254905E0,-3.928053379E0,1.134648770E-1,6.972821355E-1
3.993968863E0,-3.612856150E0,2.284568697E-1,6.264238358E-1
4.003682040E0,-3.364852190E0,3.982724249E-1,5.433486104E-1
4.013394332E0,-3.081418991E0,4.544703662E-1,4.957025647E-1
4.023107509E0,-2.631835461E0,3.591781855E-1,4.908157587E-1
4.032821467E0,-2.066190958E0,4.239279926E-1,4.981459379E-1
4.042534540E0,-1.537197113E0,5.815265775E-1,4.370612204E-1
4.052246936E0,-1.097387075E0,6.242858768E-1,2.941229641E-1
4.061960113E0,-6.978929639E-1,6.071822047E-1,1.375933439E-1
4.071674071E0,-3.130592108E-1,5.998520255E-1,2.641914412E-2
4.081387144E0,6.810946763E-2,6.206207871E-1,-4.688252881E-2
4.091099540E0,4.382829070E-1,7.098045349E-1,-1.201841980E-1
4.100812717E0,7.864658237E-1,8.246437907E-1,-1.898207814E-1
4.110526676E0,1.104106426E0,8.735115528E-1,-2.325800955E-1
4.120239749E0,1.385248899E0,8.148702383E-1,-2.521272004E-1
4.129952092E0,1.629587770E0,6.658235192E-1,-2.545706034E-1
4.139665321E0,1.829945683E0,4.679090083E-1,-2.325800955E-1
4.149379280E0,1.989987612E0,2.602209449E-1,-1.812689304E-1
4.159092353E0,2.128039122E0,1.159082651E-1,-1.165191159E-1
4.168804696E0,2.267312288E0,5.360184610E-2,-6.887302548E-2
4.178517926E0,2.457896709E0,6.948387623E-2,-7.620319724E-2
4.188231832E0,2.704679012E0,1.317902952E-1,-1.006370857E-1
4.197945009E0,2.958791494E0,2.284568697E-1,-1.055238619E-1
4.207657301E0,3.123720169E0,5.277720094E-1,-1.177408099E-1
4.217370530E0,3.058970451E0,9.480349422E-1,-1.299577504E-1
4.227084436E0,2.661919594E0,1.202147365E0,-1.678302884E-1
4.236797613E0,1.817728758E0,1.045770526E0,-2.460187376E-1
4.246509905E0,6.691831946E-1,6.010736823E-1,-3.914003670E-1
4.256223082E0,2.168507688E-2,3.897205591E-1,-6.174138784E-1
4.265937040E0,-5.039490014E-2,7.366818190E-1,-7.652388811E-1
4.275650113E0,1.191152167E-2,8.967237473E-1,-8.348754644E-1
4.285362509E0,1.829487532E-1,-3.373403847E-1,-8.947384953E-1
4.295075686E0,3.075616062E-1,-2.281056404E0,-7.994463444E-1
4.304789644E0,3.210002482E-1,-3.149681091E0,-5.392253995E-1
4.314502717E0,7.107207775E-1,-2.059929609E0,-6.276455522E-2
4.324215113E0,1.340046167E0,-4.155288339E-1,5.189147592E-1
4.333928290E0,1.805511832E0,1.502684206E-1,8.793146014E-1
4.343642249E0,2.109713793E0,-1.626380831E-1,7.180509567E-1
4.353355321E0,2.278307676E0,-9.359707236E-1,2.512109280E-1
4.363067665E0,2.190345526E0,-1.901109338E0,-2.118112892E-1
4.372780894E0,1.903247356E0,-2.351914644E0,-4.952444136E-1
4.382494801E0,1.629587770E0,-1.992736459E0,-5.233433843E-1
4.392207978E0,1.612484097E0,-1.158319116E0,-3.987305462E-1
4.401920269E0,1.942341566E0,-2.420482337E-1,-2.423536479E-1
4.411633499E0,2.467670202E0,3.982724249E-1,-2.142546773E-1
4.421347405E0,2.960013151E0,7.269082665E-1,-2.948864996E-1
4.431060582E0,3.278875351E0,8.441908956E-1,-3.510844707E-1
4.440772874E0,3.353398800E0,9.688037634E-1,-3.083251417E-1
4.450486051E0,3.178696394E0,1.108076930E0,-2.496838123E-1
4.460200009E0,2.881824732E0,1.144727707E0,-2.472404242E-1
4.469913186E0,2.564184189E0,1.070204377E0,-2.081461996E-1
4.479625478E0,2.286859512E0,9.382613897E-1,-4.810422286E-2
4.489338655E0,2.115822077E0,8.612946272E-1,1.644706279E-1
4.499052613E0,2.022973299E0,8.417475224E-1,3.405473530E-1
4.508765686E0,1.850714445E0,7.977665067E-1,4.114056230E-1
4.518478030E0,1.430451512E0,6.743753552E-1,4.162923992E-1
4.528191259E0,6.899519563E-1,5.473191738E-1,4.724903405E-1
4.537905217E0,-2.812951505E-1,4.764608741E-1,5.677825212E-1
4.547618290E0,-1.276976228E0,4.300364852E-1,5.873296261E-1
4.557330634E0,-2.108950138E0,3.090887070E-1,4.578300118E-1
4.567043863E0,-2.690476656E0,7.437065244E-2,2.157817930E-1
4.576757769E0,-3.059428453E0,-2.273878902E-1,-2.489202656E-2
4.586470946E0,-3.278111696E0,-4.839437306E-1,-1.861557066E-1
4.596183238E0,-3.402724743E0,-6.916317940E-1,-2.594573796E-1
4.605896415E0,-3.456479311E0,-8.993198872E-1,-2.973299026E-1
4.615610374E0,-3.477247953E0,-1.158319116E0,-3.510844707E-1
4.625323446E0,-3.469917774E0,-1.420983434E0,-4.537068009E-1
4.635035842E0,-3.447927237E0,-1.578582048E0,-5.575508475E-1
4.644749019E0,-3.474804640E0,-1.618897915E0,-5.526640415E-1
4.654462978E0,-3.544441223E0,-1.659213901E0,-3.596363366E-1
4.664176051E0,-3.658058882E0,-1.788713455E0,3.985778242E-2
4.673888394E0,-3.761902809E0,-1.924321532E0,4.700469673E-1
4.683601624E0,-3.761902809E0,-1.798487067E0,7.156075835E-1
4.693315530E0,-3.811992407E0,-1.225512266E0,8.548807502E-1
4.703028707E0,-3.895067453E0,-6.097782850E-1,9.782719016E-1
4.712740999E0,-3.813214064E0,-3.300102353E-1,1.033248186E0
4.722454228E0,-3.617742777E0,-3.055763543E-1,9.538379908E-1
4.732168134E0,-3.384399176E0,-3.568875194E-1,7.815790772E-1
4.741881311E0,-3.116848230E0,-4.216373265E-1,6.178719997E-1
4.751593603E0,-2.789433956E0,-4.167505503E-1,5.140279531E-1
4.761306780E0,-2.356954098E0,-2.750339806E-1,4.529432356E-1
4.771020738E0,-1.884158373E0,1.206423342E-2,3.979669809E-1
4.780733811E0,-1.477334142E0,2.968717813E-1,3.234436214E-1
4.790446207E0,-1.116934180E0,5.265503526E-1,2.377723008E-1
4.800159384E0,-7.174401283E-1,7.195780873E-1,1.632489264E-1
4.809873290E0,-2.751866877E-1,8.564078808E-1,8.872556686E-2
4.819586467E0,1.646233350E-1,9.297095537E-1,-5.344913341E-3
4.829298759E0,5.897729993E-1,1.003011227E0,-1.079672500E-1
4.839011988E0,9.807152748E-1,1.078756213E0,-1.934858710E-1
4.848725894E0,1.322942495E0,1.178935170E0,-2.484621257E-1
4.858438967E0,1.627144337E0,1.284000993E0,-2.606790662E-1
4.868151363E0,1.905690789E0,1.321873426E0,-2.252499312E-1
4.877864540E0,2.136590958E0,1.252236843E0,-1.678302884E-1
4.887578499E0,2.279529333E0,1.105633497E0,-1.201841980E-1
4.897291571E0,2.332062006E0,8.735115528E-1,-6.398624927E-2
4.907003915E0,2.322288513E0,5.522059202E-1,6.872031838E-3
4.916717144E0,2.321066856E0,1.808107942E-1,6.184828654E-2
4.926431051E0,2.449344873E0,-1.320957243E-1,1.070509851E-1
4.936144228E0,2.664363146E0,-1.931804419E-1,2.121167034E-1
4.945856519E0,2.784089088E0,1.710372269E-1,3.307738006E-1
4.955569696E0,2.781645775E0,7.843278646E-1,2.414373755E-1
4.965283655E0,2.672914982E0,1.304769754E0,3.741439432E-2
4.974996728E0,2.179350376E0,1.690825224E0,-1.947075576E-1
4.984709124E0,7.999044657E-1,1.817881465E0,-4.537068009E-1
4.994422301E0,-4.657710493E-1,1.585759521E0,-6.687250137E-1
5.004136259E0,-7.076665759E-1,1.798334360E0,-7.041541934E-1
5.013849332E0,-6.526902914E-1,2.213710546E0,-7.078192830E-1
5.023561676E0,-3.228327632E-1,1.266897202E0,-6.430694461E-1
5.033274905E0,3.649812341E-1,-1.165649295E0,-4.854708612E-1
5.042988811E0,7.583668828E-1,-3.117917061E0,-2.875563502E-1
5.052701988E0,9.599464536E-1,-2.757517338E0,1.620272398E-1
5.062414280E0,1.261857748E0,-1.075243831E0,6.557445526E-1
5.072127457E0,1.553842664E0,-2.396048307E-1,9.807152748E-1
5.081841415E0,1.774969459E0,-3.129065037E-1,8.829796910E-1
5.091554488E0,1.928902984E0,-7.221741676E-1,3.698680103E-1
5.101266884E0,1.848271132E0,-1.353790283E0,-1.910424829E-1
5.110980061E0,1.522078633E0,-1.859571815E0,-5.526640415E-1
5.120693967E0,1.236202121E0,-1.838802934E0,-6.381826997E-1
5.130407144E0,1.238645554E0,-1.286597013E0,-5.746545792E-1
5.140119436E0,1.574611545E0,-4.509579837E-1,-4.952444136E-1
5.149832613E0,2.117043972E0,2.418955117E-1,-4.720322192E-1
5.159546571E0,2.655811071E0,6.670452356E-1,-4.512633979E-1
5.169259644E0,2.989333868E0,9.211576581E-1,-3.388675153E-1
5.178972040E0,3.079739094E0,1.060430884E0,-1.910424829E-1
5.188685217E0,2.984447002E0,1.122737288E0,-1.152974218E-1
5.198399176E0,2.790197611E0,1.037218690E0,-7.864658535E-2
5.208112249E0,2.578844309E0,8.454126120E-1,-2.367033064E-2
5.217824592E0,2.347944260E0,6.780404449E-1,5.451811850E-2
5.227537821E0,2.121930599E0,6.401679516E-1,1.522536725E-1
5.237251728E0,1.943563223E0,7.012526393E-1,2.806843221E-1
5.246964905E0,1.739540339E0,8.112051487E-1,3.991886973E-1
5.256677196E0,1.340046167E0,8.991671801E-1,4.871506989E-1
5.266390374E0,7.400414348E-1,8.539644480E-1,4.749337435E-1
5.276104332E0,5.467082933E-2,6.804838181E-1,3.930802047E-1
5.285817405E0,-6.502469182E-1,4.337015450E-1,2.867927849E-1
5.295529749E0,-1.319735527E0,8.658760041E-2,1.754658818E-1
5.305242978E0,-1.924474239E0,-3.190149665E-1,7.040014863E-2
5.314956884E0,-2.462019920E0,-7.148439884E-1,-4.123218823E-3
5.324670061E0,-2.868844271E0,-1.012937427E0,-5.665608495E-2
5.334382353E0,-3.125400066E0,-1.116781473E0,-1.104106456E-1
5.344095530E0,-3.323314428E0,-1.103342891E0,-1.617218107E-1
5.353809488E0,-3.593308926E0,-1.159540772E0,-1.812689304E-1
5.363522561E0,-3.934161663E0,-1.473516345E0,-1.983726472E-1
5.373234905E0,-4.184762001E0,-1.934095144E0,-2.435753495E-1
5.382948134E0,-4.192091942E0,-2.173547268E0,-2.753393948E-1
5.392662040E0,-3.996468306E0,-1.811925650E0,-1.739387512E-1
5.402375217E0,-3.790001869E0,-9.860602021E-1,1.400367320E-1
5.412087509E0,-3.672719240E0,-2.860292196E-1,6.520794630E-1
5.421800686E0,-3.501681805E0,7.192726433E-2,1.146865726E0
5.431514644E0,-3.265894890E0,2.321219593E-1,1.298355818E0
5.441227717E0,-3.291550398E0,1.527118087E-1,1.095554590E0
5.450940061E0,-3.372182369E0,-2.542651594E-1,7.718055248E-1
5.460653290E0,-3.241461039E0,-7.087355256E-1,4.908157587E-1
5.470367196E0,-3.064315319E0,-7.722636461E-1,2.916795611E-1
5.480080374E0,-2.885947943E0,-5.548020005E-1,1.827960461E-1
5.489792665E0,-2.628170252E0,-3.177932799E-1,1.327065676E-1
5.499505842E0,-2.293426037E0,-6.734590977E-2,1.546970755E-1
5.509219801E0,-1.950129867E0,1.600419879E-1,2.084516287E-1
5.518932874E0,-1.652036428E0,2.687727809E-1,1.510319859E-1
5.528645217E0,-1.361273170E0,3.555130959E-1,2.275406010E-2
5.538358446E0,-9.825478196E-1,5.155550838E-1,-7.375980914E-2
5.548072353E0,-4.877615273E-1,7.452336550E-1,-1.275143623E-1
5.557785530E0,4.245388508E-2,9.639169574E-1,-1.543916464E-1
5.567497821E0,5.189147592E-1,1.081199646E0,-1.641651988E-1
5.577210999E0,9.208522439E-1,1.081199646E0,-1.763821393E-1
5.586924957E0,1.258192658E0,1.033553600E0,-1.885990947E-1
5.596638030E0,1.537960649E0,9.895725846E-1,-1.678302884E-1
5.606350374E0,1.768860936E0,9.712471366E-1,-1.152974218E-1
5.616063603E0,1.985100865E0,9.468132257E-1,-3.955236077E-2
5.625777509E0,2.158581495E0,8.881719112E-1,3.741439432E-2
5.635490686E0,2.218444586E0,7.843278646E-1,1.033858955E-1
5.645202978E0,2.208671093E0,5.961869359E-1,1.595838517E-1
5.654916155E0,2.247765303E0,3.420744538E-1,1.779092699E-1
5.664630113E0,2.361382723E0,1.832541823E-1,1.559187621E-1
5.674343186E0,2.455453157E0,2.076880634E-1,1.265980899E-1
5.684055530E0,2.482330561E0,3.762819171E-1,1.278197914E-1
5.693768759E0,2.347944260E0,7.464553714E-1,1.705790907E-1
5.703482665E0,1.952115178E0,1.059209108E0,2.402156889E-1
5.713195842E0,1.178629756E0,8.967237473E-1,2.084516287E-1
5.722908134E0,5.384618640E-1,7.330167294E-1,-2.733541466E-2
5.732621311E0,6.508577466E-1,1.007897973E0,-2.838912606E-1
5.742335269E0,1.310725451E0,1.564990640E0,-4.353813827E-1
5.752048342E0,1.953336835E0,1.909508586E0,-6.125270724E-1
5.761760686E0,2.088944912E0,1.029888511E0,-1.054780483E0
5.771473915E0,7.534800768E-1,-6.171084642E-1,-1.517802715E0
5.781187821E0,-5.073086619E-1,-1.732515574E0,-1.266133666E0
5.790900894E0,1.157555580E-1,-2.017170429E0,-6.491779089E-1
5.800613290E0,1.178629756E0,-7.026270628E-1,2.304421216E-1
5.810326467E0,1.911799192E0,4.312581718E-1,1.007592559E0
5.820040426E0,2.233104944E0,2.541124523E-1,1.112658262E0
5.829753499E0,2.175685167E0,-6.097782850E-1,6.655181050E-1
5.839465842E0,1.917907715E0,-1.435643792E0,2.499892414E-1
5.849179019E0,1.789629698E0,-1.808260560E0,1.094943732E-1
5.858892978E0,1.823837161E0,-1.528492570E0,1.742441803E-1
5.868606051E0,1.974105597E0,-9.176452756E-1,2.328855246E-1
5.878318394E0,2.180572033E0,-3.202366829E-1,1.094943732E-1
5.888031624E0,2.374821424E0,7.070557028E-2,-1.605001241E-1
5.897745530E0,2.597169876E0,2.504473627E-1,-4.524851143E-1
5.907458707E0,2.828070164E0,4.361449480E-1,-5.880932212E-1
5.917170999E0,2.991777182E0,7.379034758E-1,-4.854708612E-1
5.926884176E0,3.006437540E0,1.055544019E0,-2.325800955E-1
5.936598134E0,2.867164373E0,1.194817185E0,9.315420873E-3
5.946311207E0,2.643594265E0,1.056765795E0,1.522536725E-1
5.956023551E0,2.417580843E0,6.719319820E-1,2.684673667E-1
5.965736780E0,2.237991571E0,2.394521236E-1,4.004103839E-1
5.975450686E0,2.066954374E0,1.084253844E-2,6.068767309E-1
5.985163863E0,1.914242625E0,9.147437662E-2,8.402203918E-1
5.994876155E0,1.614927411E0,4.117110670E-1,9.880454540E-1
6.004589332E0,1.007592559E0,7.708892226E-1,1.001484036E0
6.014303290E0,2.049392611E-1,9.810206890E-1,8.719844818E-1
6.024016363E0,-6.087092757E-1,9.859074950E-1,6.337540150E-1
6.033728707E0,-1.345391035E0,7.769976854E-1,3.429907262E-1
6.043441884E0,-2.025874853E0,4.288147688E-1,5.451811850E-2
6.053155842E0,-2.652604103E0,7.925742865E-2,-1.617218107E-1
6.062868915E0,-3.190149784E0,-2.200577259E-1,-3.022166789E-1
6.072581259E0,-3.596974134E0,-4.619532526E-1,-3.865135908E-1
6.082294488E0,-3.898732662E0,-6.904101372E-1,-4.060607255E-1
6.092008394E0,-4.204308987E0,-1.008050680E0,-3.804051280E-1
6.101721571E0,-4.528058052E0,-1.402657986E0,-3.083251417E-1
6.111433863E0,-4.796830654E0,-1.804595470E0,-2.362451702E-1
6.121147040E0,-4.950764179E0,-1.951198816E0,-1.531699449E-1
6.130860999E0,-4.840811729E0,-1.732515574E0,-9.009997360E-3
6.140574071E0,-4.502402306E0,-1.304922462E0,2.206685692E-1
6.150286415E0,-4.135741234E0,-7.148439884E-1,4.822639227E-1
6.159999644E0,-3.860860109E0,-1.504211426E-1,6.252021790E-1
6.169713551E0,-3.705704927E0,6.215370819E-2,6.166502833E-1
6.179426624E0,-3.808327198E0,1.206423342E-2,5.347967744E-1
6.189139019E0,-4.030675411E0,-1.907370538E-1,4.676035643E-1
6.198852196E0,-4.056331158E0,-4.851654470E-1,4.773771465E-1
6.208566103E0,-3.902397633E0,-6.647545099E-1,4.566083252E-1
6.218279280E0,-3.645841837E0,-5.975613594E-1,3.906368315E-1
6.227991571E0,-3.262229681E0,-3.141281903E-1,2.965663373E-1
6.237704749E0,-2.769886971E0,1.171299592E-1,2.182251811E-1
6.247418707E0,-2.244558334E0,5.522059202E-1,2.255553454E-1
6.257131780E0,-1.765653968E0,7.525638342E-1,2.426590770E-1
6.266844124E0,-1.384485364E0,7.427902818E-1,1.986780763E-1
6.276557353E0,-1.025307178E0,7.232431769E-1,1.302631795E-1
6.286271259E0,-5.928272605E-1,7.366818190E-1,9.116895497E-2
6.295984436E0,-9.315420687E-2,8.136485219E-1,7.895200700E-2
6.305696728E0,4.309527278E-1,9.541434050E-1,4.840964451E-2
6.315409905E0,9.501729012E-1,1.077534556E0,-9.009997360E-3
6.325123811E0,1.439003468E0,1.133732557E0,-7.864658535E-2
6.334836988E0,1.867818236E0,1.126402378E0,-1.702736765E-1
6.344549280E0,2.194010735E0,1.038440347E0,-2.570139766E-1
6.354262457E0,2.388260126E0,9.089407325E-1,-2.838912606E-1
6.363976415E0,2.475000381E0,7.452336550E-1,-2.228065431E-1
6.373689488E0,2.481108904E0,5.302154422E-1,-1.201841980E-1
6.383401832E0,2.467670202E0,2.834331393E-1,-1.878355257E-2
6.393115061E0,2.496990919E0,3.894151375E-2,6.062658876E-2
6.402828967E0,2.613051891E0,-1.039967462E-1,1.046075895E-1
6.412542040E0,2.760876894E0,-8.567132801E-2,1.595838517E-1
6.422254436E0,2.872051001E0,6.826218218E-2,1.718007922E-1
6.431967613E0,2.834178686E0,3.775036037E-1,1.290414780E-1
6.441681519E0,2.464005232E0,5.729747415E-1,8.750387281E-2
6.451394696E0,1.629587770E0,5.790832043E-1,4.428642802E-3
6.461106988E0,8.280034661E-1,6.865923405E-1,-1.995943487E-1
6.470820165E0,4.456130862E-1,7.843278646E-1,-5.551074743E-1
6.480534124E0,4.333961308E-1,5.167768002E-1,-8.214368224E-1
6.490247196E0,5.103628635E-1,-2.225011140E-1,-8.812998533E-1
6.499959540E0,5.909947157E-1,-8.809944391E-1,-7.518002391E-1
6.509672769E0,7.681404352E-1,-1.358677030E0,-4.060607255E-1
6.519386676E0,1.243532300E0,-1.374559045E0,-2.489202656E-2
6.529099749E0,1.684563994E0,-3.031329513E-1,3.258870244E-1
6.538812092E0,2.143921137E0,7.925742865E-2,6.447492838E-1
6.548525321E0,2.410250664E0,-2.066190839E-1,5.140279531E-1
6.558239228E0,2.542193651E0,-7.857022882E-1,1.534753740E-1
6.567952405E0,2.396811962E0,-1.455190897E0,-6.398624927E-2
6.577664696E0,1.964332104E0,-1.803373814E0,-1.995943487E-1
6.587377874E0,1.613705754E0,-1.643331885E0,-2.118112892E-1
6.597091780E0,1.662573576E0,-1.253611326E0,-1.617218107E-1
6.606804957E0,2.018086672E0,-6.403206587E-1,-2.118112892E-1
6.616517249E0,2.499434233E0,-1.359135192E-2,-3.559712470E-1
6.626230426E0,2.999107361E0,4.324798584E-1,-5.209000111E-1
6.635944384E0,3.355842113E0,6.975875497E-1,-6.051968932E-1
6.645657457E0,3.495115280E0,8.661814332E-1,-5.612159371E-1
6.655369801E0,3.482898474E0,9.724688530E-1,-4.744756222E-1
6.665083030E0,3.369280815E0,9.859074950E-1,-4.048390090E-1
6.674796936E0,3.173809528E0,8.686248064E-1,-2.765611112E-1
6.684510009E0,2.912367105E0,7.342383862E-1,-9.330692142E-2
6.694222405E0,2.615495205E0,6.047387719E-1,1.046075895E-1
6.703935582E0,2.305184841E0,4.532486796E-1,3.344388604E-1
6.713649488E0,1.919129372E0,3.176405728E-1,4.639385045E-1
6.723362665E0,1.374253631E0,2.712161839E-1,5.079194903E-1
6.733074957E0,7.351546884E-1,2.944283783E-1,5.262449384E-1
6.742788134E0,8.032641560E-2,3.213056624E-1,4.871506989E-1
6.752502092E0,-6.245913506E-1,3.579564989E-1,4.089622498E-1
6.762215165E0,-1.347834468E0,3.750602305E-1,2.634278834E-1
6.771927509E0,-2.034426689E0,3.188622594E-1,3.130592033E-2
6.781640686E0,-2.628170252E0,2.052446753E-1,-2.301367074E-1
6.791354644E0,-3.107074499E0,9.025268257E-2,-4.317162931E-1
6.801067717E0,-3.476026297E0,-7.345438004E-2,-5.257867575E-1
6.810780061E0,-3.744799137E0,-3.910949528E-1,-5.270084739E-1
6.820493290E0,-4.034340858E0,-9.481876493E-1,-4.500417113E-1
6.830207196E0,-4.437652588E0,-1.714190125E0,-3.669664860E-1
6.839920269E0,-4.754071712E0,-2.393452168E0,-3.535278440E-1
6.849632665E0,-4.783391953E0,-2.662225008E0,-2.790044844E-1
6.859345842E0,-4.598916531E0,-2.551050901E0,8.093725890E-3
6.869059749E0,-4.374124527E0,-2.318928957E0,4.443913698E-1
6.878772926E0,-4.190870285E0,-2.107575655E0,9.074136019E-1
6.888485217E0,-3.959817410E0,-1.771609783E0,1.119988441E0
6.898198394E0,-3.788780212E0,-1.333021402E0,9.746068120E-1
6.907912353E0,-3.906062841E0,-9.237537384E-1,7.314895988E-1
6.917625426E0,-4.207973957E0,-6.745280623E-1,5.799994469E-1
6.927337769E0,-4.331365108E0,-5.095993280E-1,5.335750580E-1
6.937050946E0,-4.172544956E0,-3.043546379E-1,5.274665952E-1
6.946764905E0,-3.761902809E0,-4.291202128E-2,5.299099684E-1
6.956477978E0,-3.192593098E0,2.870981991E-1,5.201364160E-1
6.966190321E0,-2.581745863E0,5.766398311E-1,5.592306852E-1
6.975903551E0,-2.041756868E0,7.818844914E-1,5.726693273E-1
6.985617457E0,-1.658144832E0,9.236010313E-1,4.944808483E-1
6.995330530E0,-1.344169378E0,1.062874198E0,4.052971601E-1
7.005042926E0,-9.862129092E-1,1.205812454E0,3.405473530E-1
7.014756103E0,-5.769452453E-1,1.334090471E0,2.880144715E-1
7.024470009E0,-1.566823274E-1,1.430604339E0,2.328855246E-1
7.034183186E0,2.672456801E-1,1.495354056E0,1.608055383E-1
7.043895478E0,6.923953891E-1,1.519788027E0,6.917845458E-2
7.053608655E0,1.102884769E0,1.484358788E0,-1.511846948E-2
7.063322613E0,1.513526797E0,1.378071427E0,-6.154286116E-2
7.073035686E0,1.913020849E0,1.218029380E0,-6.276455522E-2
7.082748030E0,2.245321751E0,1.039662004E0,-1.511846948E-2
7.092461207E0,2.439571142E0,8.625163436E-1,8.383878320E-2
7.102175165E0,2.483552217E0,6.927008033E-1,1.962346882E-1
7.111888238E0,2.466448545E0,4.898995161E-1,2.831276953E-1
7.121600582E0,2.522646427E0,2.919849753E-1,3.124483824E-1
7.131313811E0,2.643594265E0,2.895416021E-1,3.478775024E-1
7.141027717E0,2.732777834E0,4.239279926E-1,3.662029207E-1
7.150740790E0,2.738886356E0,7.073611021E-1,2.487675399E-1
7.160453186E0,2.638707399E0,1.049435616E0,1.485885978E-1
7.170166363E0,2.341835737E0,1.362189412E0,5.329642445E-2
7.179880269E0,1.723658204E0,1.420830727E0,-4.688252881E-2
7.189593446E0,6.386408210E-1,7.476770282E-1,-1.934858710E-1
7.199305738E0,-1.505738497E-1,-2.214321308E-2,-4.647020400E-1
7.209018915E0,-1.420219839E-1,4.654656053E-1,-7.127060294E-1
7.218732874E0,1.780619770E-1,1.596754789E0,-8.483141065E-1
7.228445946E0,7.302678823E-1,1.838650227E0,-8.764131069E-1
7.238158290E0,1.409682751E0,4.984513521E-1,-9.240592122E-1
7.247871519E0,1.090667725E0,-2.089250326E0,-8.556442857E-1
7.257585426E0,2.525853515E-1,-3.004299641E0,-5.135698318E-1
7.267298499E0,1.560714692E-1,-1.769166350E0,-1.679830020E-3
7.277010894E0,6.068767309E-1,-7.771504521E-1,5.592306852E-1
7.286724071E0,1.201994658E0,-8.528954983E-1,8.218950033E-1
7.296437978E0,1.654021621E0,-1.469851255E0,6.190937161E-1
7.306151155E0,1.727323294E0,-2.241962194E0,1.827960461E-1
7.315863446E0,1.603932142E0,-2.687880754E0,-1.605001241E-1
7.325576624E0,1.511083364E0,-2.299381733E0,-1.788255423E-1
7.335290582E0,1.630809426E0,-1.324469566E0,-1.389677543E-2
7.345003655E0,2.115822077E0,-3.605526090E-1,6.795676053E-2
7.354715999E0,2.713230848E0,3.298575282E-1,-3.710897267E-2
7.364429176E0,3.175031424E0,7.464553714E-1,-2.166980654E-1
7.374143134E0,3.426700354E0,1.022558331E0,-3.290939629E-1
7.383856207E0,3.454799414E0,1.266897202E0,-3.242071867E-1
7.393568551E0,3.282540560E0,1.459924936E0,-2.215848416E-1
7.403281780E0,2.978338480E0,1.502684236E0,-1.018587798E-1
7.412995686E0,2.652146101E0,1.305991411E0,8.093725890E-3
7.422708759E0,2.432240963E0,9.480349422E-1,1.461452097E-1
7.432421155E0,2.374821424E0,5.827482939E-1,3.124483824E-1
7.442134332E0,2.358939409E0,2.895416021E-1,4.285093546E-1
7.451848290E0,2.085279942E0,1.612636745E-1,4.468347728E-1
7.461561363E0,1.412126184E0,2.040229887E-1,3.845283389E-1
7.471273707E0,4.798205197E-1,3.530697227E-1,3.234436214E-1
7.480986884E0,-5.109737515E-1,5.399889946E-1,3.136700690E-1
7.490700842E0,-1.364938259E0,6.719319820E-1,2.929012477E-1
7.500413915E0,-1.981893897E0,6.059604883E-1,1.925695986E-1
7.510126259E0,-2.386274815E0,3.090887070E-1,2.397575416E-2
7.519839488E0,-2.674594641E0,-9.300149232E-2,-1.482831687E-1
7.529553394E0,-2.954362869E0,-4.570664763E-1,-2.521272004E-1
7.539266571E0,-3.265894890E0,-7.466080785E-1,-2.741177082E-1
7.548978863E0,-3.555436373E0,-1.063026905E0,-2.496838123E-1
7.558692040E0,-3.787558317E0,-1.638445020E0,-2.264716178E-1
7.568405946E0,-3.939048529E0,-2.519286871E0,-2.582356930E-1
7.578119124E0,-3.954930544E0,-3.163119793E0,-4.182776511E-1
7.587831415E0,-3.899954319E0,-3.155789614E0,-5.282301903E-1
7.597544592E0,-3.968369246E0,-2.629239321E0,-2.899997234E-1
7.607258551E0,-4.129632950E0,-1.881562233E0,2.941229641E-1
7.616971624E0,-4.140780926E0,-1.260941505E0,8.976400495E-1
7.626683967E0,-3.942713737E0,-7.685985565E-1,1.284917235E0
7.636397196E0,-3.857194901E0,-5.181511641E-1,1.487718463E0
7.646111103E0,-3.759459496E0,-7.172874212E-1,1.495048642E0
7.655824280E0,-3.488243341E0,-9.799517393E-1,1.303242683E0
7.665536571E0,-3.217027187E0,-8.211314082E-1,1.100441337E0
7.675249749E0,-2.989791870E0,-3.177932799E-1,9.929322004E-1
7.684963707E0,-2.652604103E0,2.516690791E-1,8.585458398E-1
7.694676780E0,-2.194468737E0,8.783983588E-1,6.435275674E-1
7.704389124E0,-1.721673012E0,1.425717473E0,4.260659516E-1
7.714102353E0,-1.276976228E0,1.759240150E0,3.442124426E-1
7.723816259E0,-9.031376839E-1,2.048781633E0,3.368822634E-1
7.733529332E0,-5.219689608E-1,2.334658146E0,3.038965166E-1
7.743241728E0,-9.681928903E-2,2.481261492E0,2.548760176E-1
7.752954905E0,3.197785318E-1,2.368865728E0,1.742441803E-1
7.762668811E0,6.899519563E-1,2.060998678E0,8.750387281E-2
7.772381988E0,1.014922738E0,1.720145941E0,2.031067200E-2
7.782094280E0,1.307060480E0,1.384179831E0,-2.977880463E-2
7.791807457E0,1.567281365E0,1.078756213E0,-7.131642103E-2
7.801521415E0,1.776191115E0,8.979454637E-1,-9.819369763E-2
7.811234488E0,1.957001925E0,7.855495811E-1,-8.475505561E-2
7.820946832E0,2.104826927E0,6.255075932E-1,-3.222219273E-2
7.830660061E0,2.219666243E0,4.153761268E-1,5.818320066E-2
7.840373967E0,2.336948872E0,1.893626451E-1,1.449235082E-1
7.850087144E0,2.533641815E0,5.848862603E-2,1.986780763E-1
7.859799436E0,2.763320208E0,1.490467340E-1,2.451024652E-1
7.869512613E0,2.894041538E0,5.375455618E-1,2.133384049E-1
7.879226571E0,2.859834194E0,1.049435616E0,1.107160673E-1
7.888939644E0,2.575179338E0,1.398840189E0,-1.634016447E-2
7.898651988E0,1.955780268E0,1.287665963E0,-1.299577504E-1
7.908365217E0,7.718055248E-1,5.864133835E-1,-2.790044844E-1
7.918079124E0,-5.283828825E-2,4.871506989E-2,-5.538857579E-1
7.927792301E0,1.719534993E-1,6.975875497E-1,-7.615737915E-1
7.937504592E0,6.142069101E-1,1.378071427E0,-8.764131069E-1
7.947217769E0,1.149309158E0,8.722898960E-1,-1.037676811E0
7.956931728E0,1.590493560E0,-8.076927662E-1,-1.272242069E0
7.966644801E0,1.043021679E0,-3.128912449E0,-1.277128935E0
7.976357144E0,3.600944579E-1,-3.588269472E0,-1.090209603E0
7.986070374E0,4.920374751E-1,-2.190650940E0,-5.917583108E-1
7.995784280E0,1.072342396E0,-1.223068953E0,2.397575416E-2
8.005497353E0,1.660130143E0,-1.113116384E0,4.370612204E-1
8.015209749E0,2.136590958E0,-1.347681761E0,5.457920432E-1
8.024922926E0,2.286859512E0,-1.965859175E0,4.468347728E-1
8.034636884E0,2.062067747E0,-2.748965263E0,3.051182032E-1
8.044349957E0,1.719993114E0,-3.034841776E0,1.534753740E-1
8.054062301E0,1.522078633E0,-2.614578962E0,3.619270027E-2
8.063775478E0,1.633252859E0,-1.747175932E0,-5.665608495E-2
8.073489436E0,1.998539567E0,-6.891884208E-1,-1.727170646E-1
8.083202509E0,2.456675053E0,2.333436459E-1,-3.009949923E-1
8.092914905E0,2.859834194E0,7.488987446E-1,-4.036173224E-1
8.102628082E0,3.085847616E0,1.007897973E0,-4.488200247E-1
8.112342040E0,3.084625959E0,1.159388065E0,-4.622586668E-1
8.122055113E0,2.887933016E0,1.170383334E0,-4.573718905E-1
8.131767457E0,2.583731174E0,1.038440347E0,-3.584146202E-1
8.141480686E0,2.225774765E0,8.735115528E-1,-1.409530044E-1
8.151194592E0,1.869039893E0,6.951441765E-1,1.424801201E-1
8.160907769E0,1.607597232E0,5.082249045E-1,3.979669809E-1
8.170620061E0,1.403574347E0,3.677300513E-1,5.213581324E-1
8.180333238E0,1.107771516E0,3.371876776E-1,5.128062963E-1
8.190047196E0,6.459710002E-1,4.593571424E-1,4.114056230E-1
8.199760269E0,1.435491070E-2,7.305732965E-1,3.197785318E-1
8.209472613E0,-7.406523228E-1,9.773555994E-1,2.806843221E-1
8.219185842E0,-1.538418770E0,1.098303318E0,2.499892414E-1
8.228899749E0,-2.251888514E0,1.082421303E0,1.889045089E-1
8.238612926E0,-2.804094315E0,9.211576581E-1,1.082726792E-1
8.248325217E0,-3.186484814E0,6.658235192E-1,-9.009997360E-3
8.258038394E0,-3.422271729E0,3.823903799E-1,-1.385096163E-1
8.267752353E0,-3.559101582E0,5.482354015E-2,-2.386885732E-1
8.277465426E0,-3.626294851E0,-3.373403847E-1,-3.315373361E-1
8.287177821E0,-3.662945509E0,-6.549809575E-1,-4.121691883E-1
8.296890999E0,-3.697153091E0,-8.846595287E-1,-4.598152637E-1
8.306604957E0,-3.703261614E0,-1.115559816E0,-5.111264586E-1
8.316318030E0,-3.681271076E0,-1.434422135E0,-5.428904891E-1
8.326030374E0,-3.616521120E0,-1.721520305E0,-4.524851143E-1
8.335743603E0,-3.559101582E0,-1.854684949E0,-1.922641695E-1
8.345457509E0,-3.487021685E0,-1.614011168E0,1.998997629E-1
8.355170686E0,-3.252456188E0,-9.677347541E-1,4.663818777E-1
8.364882978E0,-3.047211647E0,-2.457133085E-1,4.810422063E-1
8.374596155E0,-3.025221109E0,-3.558185324E-2,4.248442650E-1
8.384310113E0,-3.078975677E0,-4.595098495E-1,4.297310412E-1
8.394023186E0,-3.054541826E0,-9.274188280E-1,4.138490260E-1
8.403735530E0,-2.888391256E0,-1.025154471E0,3.918585181E-1
8.413448759E0,-2.615953445E0,-8.516737819E-1,4.224008918E-1
8.423162717E0,-2.276322365E0,-6.000047326E-1,4.822639227E-1
8.432875790E0,-1.860946178E0,-3.422271907E-1,5.128062963E-1
8.442588134E0,-1.400367379E0,-8.689302206E-2,4.529432356E-1
8.452301363E0,-9.996515512E-1,1.673721522E-1,3.466558158E-1
8.462015269E0,-6.734591126E-1,4.508052766E-1,2.548760176E-1
8.471728446E0,-3.301629424E-1,7.831062078E-1,1.632489264E-1
8.481440738E0,6.810946763E-2,1.064095974E0,6.795676053E-2
8.491153915E0,4.944808483E-1,1.222916245E0,-4.077405483E-2
8.500867874E0,8.817580342E-1,1.270562291E0,-1.482831687E-1
8.510580946E0,1.225206852E0,1.271783948E0,-2.166980654E-1
8.520293342E0,1.523300409E0,1.232689738E0,-2.509055138E-1
8.530006519E0,1.754200578E0,1.159388065E0,-2.570139766E-1
8.539720478E0,1.938676476E0,1.134954214E0,-2.081461996E-1
8.549433551E0,2.112157106E0,1.088529825E0,-1.152974218E-1
8.559145894E0,2.222109556E0,9.260444641E-1,1.053711493E-2
8.568859124E0,2.240435123E0,6.389462352E-1,1.351499557E-1
8.578573030E0,2.257538795E0,3.054236174E-1,2.499892414E-1
8.588286207E0,2.367491245E0,1.551551968E-1,3.210002482E-1
8.597998499E0,2.465226889E0,2.846548259E-1,3.649812341E-1
8.607711676E0,2.406585455E0,6.707102656E-1,3.600944579E-1
8.617425634E0,2.108492136E0,1.207034230E0,2.145601064E-1
8.627138811E0,1.507418275E0,1.583316088E0,4.840964451E-2
8.636851103E0,6.166502833E-1,1.558882236E0,-1.702736765E-1
8.646564280E0,1.743968874E-1,1.275449038E0,-4.793623984E-1
8.656278238E0,4.614951015E-1,1.422052383E0,-7.505785823E-1
8.665991311E0,9.697200060E-1,2.041451454E0,-8.874083757E-1
8.675703707E0,1.368145108E0,1.893626451E0,-9.949174523E-1
8.685416884E0,1.061347127E0,-8.444963396E-2,-1.249029875E0
8.695130842E0,-2.067717910E-1,-2.254179001E0,-1.066997409E0
8.704843915E0,-5.916055441E-1,-2.922446012E0,-4.695888162E-1
8.714556259E0,3.637595475E-1,-2.200424433E0,4.004103839E-1
8.724269488E0,1.283848286E0,-6.427640319E-1,1.262926698E0
8.733983394E0,1.859266400E0,1.698155403E-1,1.613553047E0
8.743696571E0,2.202562571E0,-1.430909634E-1,1.194511771E0
8.753408863E0,2.181793690E0,-1.067913771E0,4.798205197E-1
8.763122092E0,1.864153147E0,-1.997623205E0,-1.878355257E-2
8.772835999E0,1.563616276E0,-2.409334183E0,-1.959292591E-1
8.782549176E0,1.531852245E0,-2.053821087E0,-1.885990947E-1
8.792261467E0,1.820172071E0,-1.346460104E0,-1.287360638E-1
8.801974644E0,2.248986959E0,-6.647545099E-1,-1.470614821E-1
8.811688603E0,2.599613190E0,-1.162136942E-1,-2.936648130E-1
8.821401676E0,2.857390881E0,2.370087355E-1,-4.463766217E-1
8.831114071E0,3.057748556E0,4.654656053E-1,-4.622586668E-1
8.840827249E0,3.186026573E0,6.389462352E-1,-3.266505599E-1
8.850541207E0,3.177474737E0,7.733326554E-1,-1.165191159E-1
8.860254280E0,3.045531750E0,8.099834919E-1,9.727742523E-2
8.869966676E0,2.853725672E0,7.525638342E-1,2.597627938E-1
8.879679853E0,2.617938757E0,6.145123243E-1,3.979669809E-1
8.889393811E0,2.372378111E0,4.337015450E-1,5.262449384E-1
8.899106884E0,2.065732718E0,2.944283783E-1,6.288672686E-1
8.908819228E0,1.599045396E0,2.614426315E-1,7.009472251E-1
8.918532457E0,9.232956171E-1,3.750602305E-1,7.241594195E-1
8.928246415E0,6.077930331E-2,4.715740979E-1,7.094991207E-1
8.937959488E0,-8.506048322E-1,3.982724249E-1,6.777350307E-1
8.947671832E0,-1.654479742E0,1.624853760E-1,5.714476109E-1
8.957385061E0,-2.278765678E0,-1.394258887E-1,3.710896969E-1
8.967098967E0,-2.758891582E0,-3.947600424E-1,1.400367320E-1
8.976812144E0,-3.142503738E0,-5.022691488E-1,-7.253811508E-2
8.986524436E0,-3.401502848E0,-5.132644176E-1,-2.362451702E-1
8.996237665E0,-3.506568670E0,-6.281036735E-1,-3.376458287E-1
9.005951571E0,-3.494351864E0,-9.860602021E-1,-4.304946065E-1
9.015664749E0,-3.441818953E0,-1.489398360E0,-5.318952799E-1
9.025377040E0,-3.279333591E0,-1.876675487E0,-6.638382673E-1
9.035090217E0,-3.049654961E0,-1.904774427E0,-7.310314775E-1
9.044804176E0,-3.093636036E0,-1.585912228E0,-5.306735635E-1
9.054517249E0,-3.506568670E0,-1.135106921E0,-1.145338640E-2
9.064229644E0,-3.898732662E0,-6.671979427E-1,6.545228362E-1
9.073942821E0,-3.953708887E0,-2.628170252E-1,1.248266339E0
9.083656780E0,-3.835204601E0,-1.748550236E-1,1.537807941E0
9.093369853E0,-3.731360435E0,-1.626380831E-1,1.422968745E0
9.103082249E0,-3.609190941E0,-5.146388337E-2,1.018587828E0
9.112795426E0,-3.424715042E0,1.612636745E-1,5.934380889E-1
9.122509384E0,-3.209697008E0,4.508052766E-1,2.524326444E-1
9.132222457E0,-2.936037302E0,7.171346545E-1,2.764083818E-2
9.141934853E0,-2.602514744E0,8.991671801E-1,-6.887302548E-2
9.151648030E0,-2.265326977E0,1.020114899E0,-1.389677543E-2
9.161361988E0,-1.951351523E0,1.010341406E0,1.156028435E-1
9.171075061E0,-1.680135369E0,8.112051487E-1,1.852394342E-1
9.180787457E0,-1.413805962E0,6.059604883E-1,2.182251811E-1
9.190500634E0,-1.092500329E0,5.118899941E-1,1.974563748E-1
9.200214592E0,-6.771242023E-1,5.314370990E-1,1.327065676E-1
9.209927665E0,-2.055501044E-1,6.230642200E-1,3.863608837E-2
9.219640009E0,2.709107697E-1,6.853706241E-1,-7.742489129E-2
9.229353238E0,7.278245091E-1,7.354601026E-1,-1.922641695E-1
9.239067196E0,1.143200636E0,7.977665067E-1,-2.704526186E-1
9.248780269E0,1.486649513E0,8.454126120E-1,-3.193204105E-1
9.258492613E0,1.739540339E0,8.222004175E-1,-3.510844707E-1
9.268205842E0,1.903247356E0,7.220214605E-1,-3.681881726E-1
9.277919801E0,2.003426313E0,5.644228458E-1,-3.449759781E-1
9.287632874E0,2.066954374E0,3.335226178E-1,-2.704526186E-1
9.297345217E0,2.106048584E0,6.826218218E-2,-1.470614821E-1
9.307058446E0,2.195232391E0,-1.382041872E-1,-1.023169141E-2
9.316772353E0,2.340614080E0,-2.017323077E-1,8.261708915E-2
9.326485530E0,2.476222038E0,4.993676394E-2,1.351499557E-1
9.336197821E0,2.518981457E0,6.010736823E-1,1.779092699E-1
9.345911051E0,2.358939409E0,1.090973258E0,2.389939874E-1
9.355624957E0,1.847049356E0,1.044548869E0,2.609844804E-1
9.365338134E0,7.681404352E-1,3.298575282E-1,7.406523079E-2
9.375050426E0,-4.743228853E-1,-1.003316641E-1,-3.767400384E-1
9.384763655E0,-5.867187977E-1,2.211267054E-1,-6.980457306E-1
9.394477561E0,1.291942000E-1,8.539644480E-1,-8.385405540E-1
9.404190738E0,9.733850956E-1,1.025001645E0,-8.764131069E-1
9.413903030E0,1.933789730E0,2.699944973E-1,-1.001025915E0
9.423616259E0,2.896485090E0,-1.488176584E0,-1.134190679E0
9.433330165E0,2.344279051E0,-3.361034393E0,-8.812998533E-1
9.443043342E0,1.195733547E0,-3.130134106E0,-4.182776511E-1
9.452755634E0,9.428427219E-1,-2.157665253E0,-5.543438718E-2
9.462468863E0,1.062568784E0,-1.452747464E0,1.742441803E-1
9.472182769E0,1.392579079E0,-1.257276416E0,2.646495700E-1
9.481895946E0,1.845827699E0,-1.313474298E0,1.302631795E-1
9.491608238E0,2.095053434E0,-1.546818018E0,-1.165191159E-1
9.501321467E0,2.016865015E0,-1.692199588E0,-2.228065431E-1
9.511035374E0,1.899582267E0,-1.278045177E0,-1.800472289E-1
9.520748551E0,2.004647970E0,-5.401417017E-1,-1.116323397E-1
9.530460842E0,2.279529333E0,-1.725643501E-2,-1.152974218E-1
9.540174071E0,2.610608578E0,2.956500649E-1,-2.044811249E-1
9.549887978E0,2.868386030E0,5.485408306E-1,-2.826695740E-1
9.559601155E0,2.962456465E0,8.808417320E-1,-2.655658424E-1
9.569313446E0,2.889154911E0,1.252236843E0,-1.959292591E-1
9.579026676E0,2.718117476E0,1.475806952E0,-1.739387512E-1
9.588740582E0,2.504321098E0,1.448929667E0,-2.264716178E-1
9.598453759E0,2.209892750E0,1.196038961E0,-2.765611112E-1
9.608166051E0,1.883700252E0,7.745543122E-1,-2.704526186E-1
9.617879280E0,1.629587770E0,3.775036037E-1,-1.678302884E-1
9.627593186E0,1.307060480E0,1.539335102E-1,3.008422814E-2
9.637306363E0,8.047912717E-1,1.206423342E-2,2.941229641E-1
9.647018655E0,2.037175596E-1,-2.005106062E-1,5.470137000E-1
9.656731884E0,-4.572191834E-1,-4.143071473E-1,7.253811359E-1
9.666445790E0,-1.148698330E0,-5.401417017E-1,7.705838084E-1
9.676158967E0,-1.786422849E0,-5.743491650E-1,6.630746722E-1
9.685871259E0,-2.317859888E0,-5.376983285E-1,4.590517282E-1
9.695584488E0,-2.722240925E0,-4.888305068E-1,2.292204350E-1
9.705298394E0,-3.022777557E0,-4.289674759E-1,3.130592033E-2
9.715011571E0,-3.268338203E0,-3.886515796E-1,-1.152974218E-1
9.724723863E0,-3.487021685E0,-4.839437306E-1,-2.264716178E-1
9.734437040E0,-3.689822912E0,-8.614473343E-1,-2.875563502E-1
9.744150999E0,-3.871855259E0,-1.526049137E0,-3.290939629E-1
9.753864176E0,-3.936605215E0,-2.127122879E0,-3.633013964E-1
9.763576467E0,-3.793666840E0,-2.218750000E0,-3.278722763E-1
9.773289696E0,-3.746020794E0,-1.573695302E0,-8.353336155E-2
9.783003603E0,-4.025788784E0,-6.048914790E-1,3.943018913E-1
9.792716780E0,-4.350912094E0,-1.296523362E-1,9.428427219E-1
9.802429071E0,-4.311818123E0,1.722589284E-1,1.304464340E0
9.812142301E0,-3.975699425E0,5.961869359E-1,1.322789788E0
9.821856207E0,-3.557879925E0,5.851916671E-1,1.127318621E0
9.831569384E0,-3.093636036E0,8.903098851E-2,8.805363178E-1
9.841281676E0,-2.755226612E0,-2.872509360E-1,6.728482842E-1
9.850994905E0,-2.714910746E0,-2.469350100E-1,5.824428797E-1
9.860708811E0,-2.757669926E0,8.170082420E-2,6.142069101E-1
9.870421988E0,-2.673372984E0,4.300364852E-1,6.948387623E-1
9.880134280E0,-2.454689741E0,5.913001299E-1,7.779139876E-1
9.889847509E0,-2.211572409E0,5.387672782E-1,8.341119289E-1
9.899561415E0,-1.980672240E0,3.628432751E-1,8.011261821E-1
9.909274592E0,-1.696017385E0,2.467822880E-1,6.679614782E-1
9.918986884E0,-1.283084631E0,2.919849753E-1,4.834856093E-1
9.928700113E0,-7.699729800E-1,4.361449480E-1,2.965663373E-1
9.938414019E0,-2.519744933E-1,5.790832043E-1,1.217113137E-1
9.948127196E0,2.220429778E-1,6.939224601E-1,-3.588727489E-2
9.957839488E0,6.496360302E-1,8.026533127E-1,-1.507265568E-1
9.967552717E0,1.041800022E0,8.881719112E-1,-1.898207814E-1
9.977266624E0,1.404796004E0,9.272661209E-1,-1.580567211E-1
9.986979801E0,1.704111099E0,9.626953006E-1,-7.498150319E-2
9.996692092E0,1.944784999E0,1.010341406E0,3.619270027E-2
1.000640532E1,2.125595808E0,1.000567794E0,1.449235082E-1
1.001611923E1,2.297854662E0,8.649597168E-1,2.389939874E-1
1.002583241E1,2.545858622E0,6.584933400E-1,2.782409191E-1
1.003554470E1,2.781645775E0,5.192201734E-1,2.512109280E-1
1.004525793E1,2.845173836E0,5.473191738E-1,1.827960461E-1
1.005497183E1,2.727891207E0,7.293516397E-1,1.070509851E-1
1.006468501E1,2.511651278E0,1.076312900E0,4.840964451E-2
1.007439730E1,2.228218079E0,1.419609070E0,5.650337320E-3
1.008411053E1,1.717549801E0,1.452594757E0,-6.887302548E-2
1.009382444E1,9.562813640E-1,1.166718245E0,-2.667875290E-1
1.010353761E1,7.033905983E-1,8.441908956E-1,-4.964661002E-1
1.011324990E1,8.964183331E-1,7.867712975E-1,-6.760551929E-1
1.012296313E1,1.044243336E0,6.670452356E-1,-8.251019120E-1
1.013267704E1,1.212989926E0,-1.809635013E-1,-1.042563558E0
1.014239022E1,1.122431874E0,-1.941425323E0,-1.354095697E0
1.015210251E1,7.177454978E-2,-2.955431700E0,-1.117086887E0
1.016181574E1,-2.202104330E-1,-2.808828354E0,-7.224795818E-1
1.017152964E1,4.407263100E-1,-1.560256600E0,-2.118112892E-1
1.018124282E1,1.255749226E0,-5.926745534E-1,3.417690396E-1
1.019095511E1,1.987544298E0,-6.378772259E-1,6.105418205E-1
1.020066834E1,2.553188801E0,-1.218182087E0,3.820849657E-1
1.021038225E1,2.802414417E0,-1.952420592E0,-5.344913341E-3
1.022009543E1,2.694905281E0,-2.554715872E0,-2.631224692E-1
1.022980772E1,2.367491245E0,-2.546164036E0,-4.243861437E-1
1.023952095E1,2.049850702E0,-1.873010397E0,-4.854708612E-1
1.024923485E1,1.969218850E0,-9.494093657E-1,-5.318952799E-1
1.025894803E1,2.198897362E0,-7.589777559E-2,-6.003101468E-1
1.026866032E1,2.625268698E0,6.132906675E-1,-6.772769094E-1
1.027837355E1,3.043088436E0,1.034775257E0,-7.212579250E-1
1.028808746E1,3.283762217E0,1.211920977E0,-6.919372082E-1
1.029780063E1,3.239781141E0,1.271783948E0,-5.526640415E-1
1.030751293E1,2.957569599E0,1.233911514E0,-3.339807391E-1
1.031722616E1,2.592283010E0,1.054322362E0,-1.067455560E-1
1.032694006E1,2.267312288E0,7.391251922E-1,5.451811850E-2
1.033665324E1,2.069397688E0,4.911212027E-1,1.253764033E-1
1.034636553E1,2.022973299E0,4.630222321E-1,1.424801201E-1
1.035607876E1,2.054737568E0,6.303943992E-1,1.192679256E-1
1.036579266E1,1.949671745E0,8.625163436E-1,1.131594554E-1
1.037550584E1,1.384027123E0,9.944593310E-1,2.145601064E-1
1.038521813E1,4.101839364E-1,9.187142849E-1,3.857500553E-1
1.039493136E1,-6.722373962E-1,6.841489077E-1,5.018110275E-1
1.040464527E1,-1.619050622E0,3.396310806E-1,5.042544007E-1
1.041435845E1,-2.299534559E0,-7.223268598E-2,3.979669809E-1
1.042407074E1,-2.735679388E0,-4.424061179E-1,2.243336588E-1
1.043378397E1,-3.000787258E0,-6.830799580E-1,3.130592033E-2
1.044349787E1,-3.159607410E0,-7.783721089E-1,-1.470614821E-1
1.045321105E1,-3.307432413E0,-7.588250041E-1,-2.814478874E-1
1.046292334E1,-3.460144281E0,-8.565605879E-1,-3.608580232E-1
1.047263657E1,-3.570096731E0,-1.205965161E0,-3.706315756E-1
1.048235048E1,-3.621407986E0,-1.534600973E0,-3.193204105E-1
1.049206366E1,-3.645841837E0,-1.595685720E0,-2.020377368E-1
1.050177595E1,-3.749686003E0,-1.342795014E0,4.107947648E-2
1.051148918E1,-3.983029604E0,-9.885035753E-1,4.431696832E-1
1.052120308E1,-4.251955032E0,-8.370134830E-1,8.964183331E-1
1.053091626E1,-4.275167465E0,-7.539382577E-1,1.349667072E0
1.054062855E1,-3.974477768E0,-4.399627447E-1,1.559798479E0
1.055034178E1,-3.577426910E0,-4.779879749E-2,1.492605329E0
1.056005569E1,-3.273225069E0,1.685938388E-1,1.286138892E0
1.056976886E1,-3.033772945E0,1.305686086E-1,1.033248186E0
1.057948116E1,-2.871287584E0,7.681404054E-2,7.803573608E-1
1.058919438E1,-2.743009567E0,2.418955117E-1,5.653391480E-1
1.059890829E1,-2.569529057E0,6.022953987E-1,4.419479966E-1
1.060862147E1,-2.317859888E0,9.394831061E-1,4.236225784E-1
1.061833376E1,-2.016101360E0,1.087308168E0,4.798205197E-1
1.062804699E1,-1.720451355E0,9.761339426E-1,5.140279531E-1
1.063776089E1,-1.448013425E0,6.548282504E-1,4.749337435E-1
1.064747407E1,-1.145033240E0,3.726168275E-1,4.028537571E-1
1.065718636E1,-7.736380696E-1,2.663294077E-1,3.258870244E-1
1.066689959E1,-3.558185399E-1,2.822114229E-1,1.998997629E-1
1.067661350E1,6.566607952E-2,3.469612300E-1,2.886253223E-2
1.068632668E1,4.761554301E-1,4.471401870E-1,-1.421747059E-1
1.069603897E1,8.487722874E-1,5.803049207E-1,-2.924431264E-1
1.070575220E1,1.170077920E0,7.012526393E-1,-4.036173224E-1
1.071546610E1,1.437781692E0,7.586722970E-1,-4.622586668E-1
1.072517928E1,1.651578307E0,7.305732965E-1,-4.573718905E-1
1.073489157E1,1.843384266E0,6.560499668E-1,-3.742966652E-1
1.074460480E1,2.003426313E0,5.876350403E-1,-2.374668717E-1
1.075431871E1,2.145142794E0,5.460974574E-1,-1.128540337E-1
1.076403188E1,2.316179991E0,6.132906675E-1,-5.054761097E-2
1.077374418E1,2.489660740E0,8.124268651E-1,-2.000524849E-2
1.078345740E1,2.578844309E0,1.059209108E0,1.985253533E-3
1.079317131E1,2.542193651E0,1.382958174E0,-5.787777901E-2
1.080288449E1,2.319845200E0,1.562547326E0,-1.714953631E-1
1.081259678E1,1.871483326E0,1.431825995E0,-3.058817685E-1
1.082231001E1,1.178629756E0,1.050657272E0,-4.634803534E-1
1.083202392E1,5.066977739E-1,9.382613897E-1,-6.931589246E-1
1.084173709E1,5.238015056E-1,1.176491857E0,-8.031114340E-1
1.085144938E1,8.451071978E-1,1.795890927E0,-7.493568659E-1
1.086116261E1,9.843803644E-1,1.940050840E0,-7.163711190E-1
1.087087652E1,1.343711257E0,5.619794726E-1,-9.301676750E-1
1.088058970E1,1.309503794E0,-1.649440289E0,-9.851438999E-1
1.089030199E1,2.098260373E-1,-2.827153921E0,-8.580876589E-1
1.090001522E1,2.535016090E-2,-2.314042091E0,-7.139277458E-1
1.090972912E1,6.655181050E-1,-4.790569544E-1,-2.215848416E-1
1.091944230E1,1.420678020E0,9.636115283E-2,3.613161445E-1
1.092915459E1,2.139034271E0,-5.548020005E-1,4.810422063E-1
1.093886777E1,2.493325710E0,-1.539487839E0,2.353289127E-1
1.094858173E1,2.158581495E0,-2.437433243E0,1.053711493E-2
1.095829490E1,1.649134874E0,-2.711092949E0,-3.222219273E-2
1.096800720E1,1.424343109E0,-2.175990582E0,-1.679830020E-3
1.097772043E1,1.539182425E0,-1.289040446E0,5.696150661E-2
1.098743433E1,1.922794461E0,-4.497362971E-1,5.329642445E-2
1.099714751E1,2.401698828E0,2.186833173E-1,-4.932591692E-2
1.100685980E1,2.814631462E0,6.426113248E-1,-1.580567211E-1
1.101657298E1,3.072408915E0,8.551861644E-1,-1.727170646E-1
1.102628694E1,3.135937214E0,9.749122262E-1,-1.006370857E-1
1.103600011E1,3.071187258E0,1.108076930E0,1.175880991E-2
1.104571241E1,2.953904629E0,1.165496588E0,1.412584335E-1
1.105542558E1,2.764541864E0,1.050657272E0,2.745758295E-1
1.106513954E1,2.528754950E0,8.270871639E-1,4.346178174E-1
1.107485272E1,2.362604380E0,6.548282504E-1,6.276455522E-1
1.108456501E1,2.262425423E0,6.780404449E-1,8.206732869E-1
1.109427824E1,2.118265629E0,8.918370008E-1,9.465078115E-1
1.110399214E1,1.799403310E0,1.202147365E0,8.768712282E-1
1.111370532E1,1.252084136E0,1.468476772E0,6.227588058E-1
1.112341761E1,5.152496696E-1,1.624853730E0,2.855710983E-1
1.113313079E1,-3.216110766E-1,1.585759521E0,-5.054761097E-2
1.114284475E1,-1.169467092E0,1.275449038E0,-3.083251417E-1
1.115255793E1,-1.953794956E0,7.879929543E-1,-4.659237564E-1
1.116227022E1,-2.637943983E0,2.247917950E-1,-5.111264586E-1
1.117198339E1,-3.212140322E0,-3.837648034E-1,-4.292729199E-1
1.118169735E1,-3.658058882E0,-9.237537384E-1,-2.924431264E-1
1.119141053E1,-3.964704037E0,-1.350125194E0,-1.776038408E-1
1.120112282E1,-4.210417271E0,-1.907217860E0,-1.067455560E-1
1.121083600E1,-4.393671513E0,-2.670776844E0,-1.201841980E-1
1.122054996E1,-4.309374809E0,-3.186331987E0,-1.653869003E-1
1.123026313E1,-3.941491842E0,-3.020181656E0,-1.372879148E-1
1.123997543E1,-3.574983597E0,-2.172325611E0,5.451811850E-2
1.124968860E1,-3.474804640E0,-1.108229637E0,3.246653080E-1
1.125940256E1,-3.618964672E0,-6.268820167E-1,5.360184908E-1
1.126911563E1,-3.770454645E0,-7.050704360E-1,7.009472251E-1
1.127882803E1,-3.904841185E0,-7.099572420E-1,8.292251825E-1
1.128854121E1,-4.028232098E0,-5.560237169E-1,9.831586480E-1
1.129825516E1,-3.990359783E0,-5.340332389E-1,1.116323352E0
1.130796834E1,-3.741133928E0,-5.034908652E-1,1.100441337E0
1.131768063E1,-3.396616220E0,-3.593308926E-1,8.780929446E-1
1.132739381E1,-3.048433304E0,-2.188360244E-1,5.763344169E-1
1.133710777E1,-2.648939133E0,-3.436015919E-2,3.356605768E-1
1.134682084E1,-2.193247080E0,2.968717813E-1,2.243336588E-1
1.135653324E1,-1.770540833E0,6.218425035E-1,1.901262105E-1
1.136624642E1,-1.415027618E0,7.696675658E-1,1.864611208E-1
1.137596037E1,-1.076618314E0,7.843278646E-1,2.011214644E-1
1.138567345E1,-6.966713071E-1,7.623373866E-1,2.182251811E-1
1.139538584E1,-2.800734639E-1,7.733326554E-1,2.133384049E-1
1.140509902E1,1.462979168E-1,8.478559852E-1,1.730224788E-1
1.141481298E1,5.592306852E-1,9.822424054E-1,1.168245375E-1
1.142452605E1,9.672766328E-1,1.061652541E0,7.162184268E-2
1.143423845E1,1.344932914E0,1.097081661E0,3.863608837E-2
1.144395162E1,1.629587770E0,1.143506050E0,2.031067200E-2
1.145366558E1,1.812842011E0,1.132510781E0,2.641914412E-2
1.146337866E1,1.900803924E0,1.043327093E0,5.207473040E-2
1.147309105E1,1.946006656E0,9.309312105E-1,6.062658876E-2
1.148280423E1,2.052294016E0,8.490777016E-1,1.420219894E-2
1.149251819E1,2.275864124E0,8.515210748E-1,-6.642963737E-2
1.150223126E1,2.528754950E0,1.059209108E0,-1.531699449E-1
1.151194366E1,2.753546715E0,1.275449038E0,-2.228065431E-1
1.152165683E1,2.809744596E0,1.380514860E0,-2.191414535E-1
1.153137079E1,2.393146753E0,1.619966984E0,-2.032594234E-1
1.154108386E1,1.463437319E0,1.447708011E0,-2.704526186E-1
1.155079626E1,6.997255087E-1,9.016105533E-1,-5.062396526E-1
1.156050944E1,6.447492838E-1,6.181774139E-1,-7.945595980E-1
1.157022339E1,1.267966151E0,8.588512540E-1,-9.399412274E-1
1.157993647E1,1.939898133E0,1.144727707E0,-1.030346632E0
1.158964886E1,1.867818236E0,-9.666658193E-2,-1.336991906E0
1.159936204E1,6.594096422E-1,-3.034841776E0,-1.738929391E0
1.160907600E1,-9.849911928E-1,-2.697654247E0,-1.187945247E0
1.161878907E1,-8.762603998E-1,-2.750339806E-1,1.908897609E-2
1.162850142E1,6.117635369E-1,-1.527118147E-4,1.102884769E0
1.163821464E1,1.638139606E0,7.070557028E-2,1.519482613E0
1.164792860E1,1.931346297E0,2.699944973E-1,1.198176861E0
1.165764168E1,2.013199806E0,-7.001836896E-1,5.494571328E-1
1.166735402E1,2.070619583E0,-1.622563004E0,-4.199574888E-2
1.167706725E1,1.980214119E0,-1.636001706E0,-2.753393948E-1
1.168678116E1,1.909355879E0,-1.241394401E0,-1.873773932E-1
1.169649433E1,1.862931371E0,-7.343910933E-1,-9.575030953E-2
1.170620662E1,1.826280594E0,-4.546230733E-1,-6.032116711E-2
1.171591985E1,1.862931371E0,-2.799207568E-1,-1.507265568E-1
1.172563376E1,1.996096134E0,-1.603474095E-2,-3.559712470E-1
1.173534694E1,2.250208616E0,2.125748396E-1,-5.355603099E-1
1.174505923E1,2.536085129E0,4.312581718E-1,-5.795413256E-1
1.175477246E1,2.665584803E0,7.000309825E-1,-4.610369802E-1
1.176448642E1,2.594726562E0,9.810206890E-1,-2.838912606E-1
1.177419949E1,2.412693977E0,1.086086392E0,-1.324011385E-1
1.178391183E1,2.213557720E0,9.236010313E-1,-9.009997360E-3
1.179362506E1,2.053515673E0,6.389462352E-1,9.605573118E-2
1.180333897E1,1.948450089E0,4.251496792E-1,2.218902707E-1
1.181305214E1,1.882478595E0,3.921639323E-1,3.576510847E-1
1.182276444E1,1.718771458E0,4.593571424E-1,4.785988331E-1
1.183247766E1,1.368145108E0,5.546492934E-1,5.335750580E-1
1.184219157E1,8.499939442E-1,5.998520255E-1,5.176930428E-1
1.185190475E1,2.024958730E-1,5.717530251E-1,4.480564594E-1
1.186161704E1,-4.975350797E-1,4.691306949E-1,3.637595475E-1
1.187133027E1,-1.196344376E0,2.895416021E-1,2.977880239E-1
1.188104418E1,-1.841399074E0,7.070557028E-2,2.585411072E-1
1.189075735E1,-2.388718128E0,-2.298312783E-1,2.316638231E-1
1.190046964E1,-2.844410181E0,-6.073349118E-1,1.913478971E-1
1.191018287E1,-3.247569561E0,-9.506310225E-1,1.180462316E-1
1.191989678E1,-3.614077806E0,-1.168092728E0,3.863608837E-2
1.192960996E1,-3.879185438E0,-1.362342119E0,-1.634016447E-2
1.193932225E1,-3.991581440E0,-1.700751424E0,-3.222219273E-2
1.194903548E1,-3.942713737E0,-2.107575655E0,-1.878355257E-2
1.195874938E1,-3.724030256E0,-2.255400896E0,2.641914412E-2
1.196846256E1,-3.456479311E0,-1.925543308E0,2.206685692E-1
1.197817485E1,-3.436932087E0,-1.045923233E0,5.873296261E-1
1.198788808E1,-3.736247301E0,-2.664821148E-1,1.049130201E0
1.199760199E1,-3.851086617E0,-9.055810422E-2,1.475501537E0
1.200731517E1,-3.590865612E0,-1.039967462E-1,1.590340853E0
1.201702746E1,-3.270781755E0,-2.102841735E-1,1.407086611E0
1.202674069E1,-3.049654961E0,-4.216373265E-1,1.061347127E0
1.203645459E1,-2.817533016E0,-6.012263894E-1,6.972821355E-1
1.204616777E1,-2.641608953E0,-5.254813433E-1,3.869717419E-1
1.205588006E1,-2.504779100E0,-2.347180545E-1,1.876828223E-1
1.206559329E1,-2.267770529E0,1.220167428E-1,8.139539510E-2
1.207530720E1,-1.918365836E0,4.789042473E-1,7.162184268E-2
1.208502037E1,-1.544527292E0,7.036960125E-1,1.363716573E-1
1.209473266E1,-1.221999884E0,7.476770282E-1,1.595838517E-1
1.210444589E1,-9.336800575E-1,7.452336550E-1,1.461452097E-1
1.211415980E1,-6.013791561E-1,7.330167294E-1,1.449235082E-1
1.212387298E1,-2.079934925E-1,8.014315963E-1,1.424801201E-1
1.213358527E1,2.147128135E-1,8.869501948E-1,1.046075895E-1
1.214329850E1,6.288672686E-1,9.211576581E-1,6.872031838E-3
1.215301240E1,9.953756332E-1,8.991671801E-1,-1.189625040E-1
1.216272558E1,1.294843435E0,8.735115528E-1,-2.240282297E-1
1.217243787E1,1.552621007E0,8.686248064E-1,-2.802261710E-1
1.218215105E1,1.767639279E0,8.820634484E-1,-2.716743052E-1
1.219186501E1,1.915464282E0,8.918370008E-1,-2.032594234E-1
1.220157819E1,1.987544298E0,8.502993584E-1,-7.253811508E-2
1.221129048E1,2.025416851E0,7.586722970E-1,8.383878320E-2
1.222100366E1,2.125595808E0,6.487197876E-1,2.316638231E-1
1.223071761E1,2.357717752E0,6.621584296E-1,3.210002482E-1
1.224043079E1,2.642372608E0,8.820634484E-1,3.368822634E-1
1.225014308E1,2.825626612E0,1.130067468E0,3.124483824E-1
1.225985626E1,2.785310745E0,1.444042921E0,2.622061968E-1
1.226957022E1,2.505542755E0,1.734806180E0,2.170034945E-1
1.227928339E1,1.954558492E0,1.722589254E0,1.156028435E-1
1.228899569E1,1.121210098E0,1.238798261E0,-1.299577504E-1
1.229870886E1,3.466558158E-1,2.333436459E-1,-4.500417113E-1
1.230842282E1,2.171562016E-1,-4.497362971E-1,-6.919372082E-1
1.231813600E1,5.971031785E-1,1.710372269E-1,-7.811209559E-1
1.232784829E1,1.024696231E0,9.517000318E-1,-7.774558663E-1
1.233756147E1,1.434116602E0,9.064973593E-1,-9.448279738E-1
1.234727543E1,1.355928183E0,-4.656183124E-1,-1.209935665E0
1.235698850E1,-1.527118147E-3,-2.535168886E0,-1.093874693E0
1.236670089E1,-4.792096615E-1,-3.569944143E0,-9.326110482E-1
1.237641407E1,-4.550812021E-2,-2.448428631E0,-4.304946065E-1
1.238612803E1,7.290462255E-1,-1.045923233E0,3.564293683E-1
1.239584110E1,1.541625738E0,-7.172874212E-1,8.597674966E-1
1.240555350E1,2.030303478E0,-1.010494113E0,8.206732869E-1
1.241526668E1,1.914242625E0,-1.645775199E0,4.737120569E-1
1.242498063E1,1.562394619E0,-2.272504568E0,1.204896197E-1
1.243469371E1,1.368145108E0,-2.356801510E0,-7.620319724E-2
1.244440610E1,1.401130915E0,-1.686091185E0,-9.452861547E-2
1.245411928E1,1.650356531E0,-6.525375843E-1,-6.887302548E-2
1.246383324E1,2.051072359E0,1.061347127E-1,-1.397313178E-1
1.247354642E1,2.470113516E0,4.361449480E-1,-3.425326049E-1
1.248325871E1,2.790197611E0,6.193991303E-1,-5.221216679E-1
1.249297188E1,2.929470778E0,7.745543122E-1,-5.013529062E-1
1.250268584E1,2.821961641E0,9.297095537E-1,-2.948864996E-1
1.251239892E1,2.523868084E0,9.749122262E-1,-7.375980914E-2
1.252211131E1,2.158581495E0,8.551861644E-1,2.519745007E-2
1.253182449E1,1.817728758E0,6.584933400E-1,-6.566607859E-3
1.254153845E1,1.591715217E0,5.338805318E-1,-1.006370857E-1
1.255125152E1,1.546512604E0,5.961869359E-1,-2.240282297E-1
1.256096392E1,1.588050127E0,7.501204610E-1,-2.899997234E-1
1.257067709E1,1.502531528E0,8.331956863E-1,-2.484621257E-1
1.258039105E1,1.099219680E0,8.222004175E-1,-1.116323397E-1
1.259010412E1,4.162923992E-1,7.220214605E-1,6.184828654E-2
1.259981652E1,-3.900259733E-1,5.094466209E-1,2.157817930E-1
1.260952970E1,-1.184127450E0,1.844758689E-1,3.234436214E-1
1.261924366E1,-1.917144179E0,-2.017323077E-1,3.539859951E-1
1.262895673E1,-2.556090355E0,-5.511369109E-1,3.112266660E-1
1.263866912E1,-3.050876617E0,-8.186880350E-1,2.023431510E-1
1.264838230E1,-3.419828415E0,-9.909469485E-1,5.818320066E-2
1.265809626E1,-3.713035107E0,-1.190083146E0,-1.030804738E-1
1.266780933E1,-3.939048529E0,-1.697086453E0,-2.435753495E-1
1.267752173E1,-4.101533890E0,-2.488744497E0,-3.400892019E-1
1.268723490E1,-4.134519577E0,-3.155789614E0,-3.486410677E-1
1.269694886E1,-3.862081766E0,-3.220539570E0,-2.460187376E-1
1.270666194E1,-3.515120506E0,-2.354357958E0,7.040014863E-2
1.271637433E1,-3.533446074E0,-8.651124239E-1,5.580089688E-1
1.272608751E1,-3.886515617E0,1.232384369E-1,1.036913276E0
1.273580147E1,-4.070991516E0,3.005368412E-1,1.352110386E0
1.274551454E1,-3.953708887E0,2.956500649E-1,1.397313118E0
1.275522694E1,-3.638511658E0,3.054236174E-1,1.204285383E0
1.276494011E1,-3.272003412E0,1.939439960E-2,9.513946176E-1
1.277465407E1,-2.964136362E0,-2.786990702E-1,7.461498976E-1
1.278436714E1,-2.810202837E0,-2.261662036E-1,5.799994469E-1
1.279407954E1,-2.790655613E0,1.539335102E-1,4.407263100E-1
1.280379272E1,-2.712467194E0,6.303943992E-1,3.466558158E-1
1.281350668E1,-2.497448921E0,1.026223421E0,3.283303976E-1
1.282321975E1,-2.181030035E0,1.220472813E0,4.089622498E-1
1.283293214E1,-1.857281089E0,1.150836229E0,4.712686539E-1
1.284264532E1,-1.554300904E0,9.101623893E-1,4.004103839E-1
1.285235928E1,-1.201231122E0,6.707102656E-1,2.782409191E-1
1.286207235E1,-7.589777112E-1,5.338805318E-1,1.705790907E-1
1.287178475E1,-2.702999115E-1,5.021164417E-1,7.895200700E-2
1.288149793E1,2.122694254E-1,5.632011890E-1,2.886253223E-2
1.289121188E1,6.423059106E-1,6.597150564E-1,-6.566607859E-3
1.290092496E1,1.021031141E0,8.099834919E-1,-2.244863659E-2
1.291063730E1,1.347376347E0,1.021336675E0,-1.145338640E-2
1.292035053E1,1.608819008E0,1.214364409E0,3.497100621E-2
1.293006449E1,1.827502251E0,1.324316859E0,1.351499557E-1
1.293977756E1,1.988765955E0,1.302326322E0,2.733541429E-1
1.294948996E1,2.069397688E0,1.156944752E0,4.040754735E-1
1.295920313E1,2.141477823E0,1.012784719E0,5.030327439E-1
1.296891709E1,2.299076319E0,1.076312900E0,5.433486104E-1
1.297863016E1,2.507986069E0,1.357302666E0,5.091412067E-1
1.298834256E1,2.643594265E0,1.681051612E0,4.138490260E-1
1.299805574E1,2.571514130E0,2.057333469E0,2.867927849E-1
1.300776970E1,2.382151604E0,2.298007488E0,1.449235082E-1
1.301748277E1,2.071841240E0,2.086654186E0,-7.131642103E-2
1.302719516E1,1.425564766E0,1.505127668E0,-4.537068009E-1
1.303690834E1,1.029583097E0,1.176491857E0,-8.519791961E-1
1.304662230E1,1.294843435E0,1.666391373E0,-1.117086887E0
1.305633537E1,1.931346297E0,2.482483149E0,-1.238034725E0
1.306604777E1,2.376043081E0,2.040229797E0,-1.473821759E0
1.307576095E1,1.403574347E0,-1.231620789E0,-1.898971438E0
1.308547491E1,-6.868977547E-1,-3.904688358E0,-1.676622987E0
1.309518798E1,-1.140146375E0,-2.955431700E0,-7.530219555E-1
1.310490037E1,-1.007897966E-2,-1.033706307E0,5.812211633E-1
1.311461355E1,1.187181592E0,1.979145110E-1,1.754047871E0
1.312432751E1,1.737096906E0,3.836120665E-1,1.981283069E0
1.313404058E1,1.881256819E0,-7.551599145E-1,1.247044683E0
1.314375298E1,2.015643358E0,-1.882784009E0,3.613161445E-1
1.315346616E1,2.091388226E0,-2.144226551E0,-7.788302377E-3
1.316318011E1,2.167133331E0,-1.810703993E0,1.180462316E-1
1.317289319E1,2.248986959E0,-1.351346850E0,3.283303976E-1
1.318260558E1,2.312515020E0,-1.010494113E0,3.943018913E-1
1.319231876E1,2.504321098E0,-6.965186000E-1,2.745758295E-1
1.320203272E1,2.820739985E0,-2.457133085E-1,4.230117425E-2
1.321174579E1,3.193356752E0,2.699944973E-1,-1.360662282E-1
1.322145819E1,3.509775639E0,6.951441765E-1,-2.276933193E-1
1.323117136E1,3.686921358E0,9.345963001E-1,-2.753393948E-1
1.324088532E1,3.696694851E0,1.020114899E0,-3.180987239E-1
1.325059839E1,3.574525356E0,1.070204377E0,-3.278722763E-1
1.326031079E1,3.383941174E0,1.116628766E0,-2.472404242E-1
1.327002397E1,3.143267393E0,1.159388065E0,-2.611372061E-2
1.327973793E1,2.859834194E0,1.137397647E0,3.222219348E-1
1.328945100E1,2.532419920E0,1.038440347E0,6.679614782E-1
1.329916339E1,2.128039122E0,8.942803741E-1,8.292251825E-1
1.330887657E1,1.624701023E0,7.831062078E-1,7.766922712E-1
1.331859053E1,9.953756332E-1,7.562289238E-1,6.142069101E-1
1.332830360E1,2.586938143E-1,7.269082665E-1,4.272876680E-1
1.333801600E1,-5.012001991E-1,5.754181147E-1,2.328855246E-1
1.334772918E1,-1.218334913E0,2.870981991E-1,2.153236605E-2
1.335744313E1,-1.870719671E0,-1.479777545E-1,-1.678302884E-1
1.336715621E1,-2.452246428E0,-6.525375843E-1,-2.899997234E-1
1.337686860E1,-2.956806183E0,-1.064248681E0,-3.022166789E-1
1.338658178E1,-3.374625683E0,-1.356233597E0,-2.386885732E-1
1.339629574E1,-3.758237839E0,-1.799708724E0,-1.910424829E-1
1.340600892E1,-4.036784172E0,-2.587701797E0,-1.617218107E-1
1.341572121E1,-4.127189636E0,-3.459991693E0,-1.018587798E-1
1.342543438E1,-3.964704037E0,-3.860707283E0,7.635590737E-4
1.343514834E1,-3.653172016E0,-3.312166452E0,8.994726092E-2
1.344486142E1,-3.417385101E0,-1.971967697E0,2.794626355E-1
1.345457381E1,-3.430823565E0,-6.818582416E-1,5.848862529E-1
1.346428699E1,-3.678827524E0,-2.200577259E-1,8.573241234E-1
1.347400095E1,-3.915836334E0,-3.642176688E-1,1.079672575E0
1.348371412E1,-4.020902157E0,-4.692834020E-1,1.220167398E0
1.349342642E1,-4.003798485E0,-4.472928941E-1,1.222610831E0
1.350313959E1,-3.899954319E0,-4.253024161E-1,1.126096964E0
1.351285355E1,-3.724030256E0,-3.996468186E-1,9.538379908E-1
1.352256662E1,-3.474804640E0,-2.848075330E-1,7.168292403E-1
1.353227902E1,-3.202366829E0,-9.910997003E-2,4.688252807E-1
1.354199220E1,-2.936037302E0,1.061347127E-1,2.696890533E-1
1.355170616E1,-2.661156178E0,2.541124523E-1,1.437018216E-1
1.356141933E1,-2.378944635E0,2.932066917E-1,5.451811850E-2
1.357113162E1,-2.107728481E0,2.357870489E-1,-4.566083103E-2
1.358084480E1,-1.813300133E0,1.747023165E-1,-1.336228400E-1
1.359055876E1,-1.445569992E0,1.808107942E-1,-1.568350345E-1
1.360027194E1,-9.862129092E-1,2.235700935E-1,-1.568350345E-1
1.360998423E1,-4.694361091E-1,2.907632887E-1,-1.849340051E-1
1.361969740E1,3.268032894E-2,3.921639323E-1,-2.362451702E-1
1.362941136E1,4.785988331E-1,4.825693369E-1,-2.484621257E-1
1.363912454E1,8.744278550E-1,5.680879354E-1,-1.983726472E-1
1.364883683E1,1.193290114E0,7.269082665E-1,-7.864658535E-2
1.365855001E1,1.387692213E0,9.834640622E-1,8.872556686E-2
1.366826397E1,1.475654244E0,1.213142633E0,2.451024652E-1
1.367797704E1,1.517191887E0,1.299883008E0,3.478775024E-1
1.368768944E1,1.575833201E0,1.174048424E0,3.723114133E-1
1.369740261E1,1.658908486E0,9.150491953E-1,3.600944579E-1
1.370711657E1,1.751757264E0,8.148702383E-1,3.662029207E-1
1.371682975E1,1.875148416E0,1.110520363E0,3.771981895E-1
1.372654204E1,1.987544298E0,1.556438804E0,3.759764731E-1
1.373625522E1,1.949671745E0,1.860640764E0,3.833066523E-1
1.374596918E1,1.599045396E0,1.728697777E0,3.222219348E-1
1.375568235E1,1.010035992E0,1.122737288E0,1.664558798E-2
1.376539464E1,7.974610925E-1,6.682668924E-1,-3.767400384E-1
1.377510782E1,1.209324837E0,9.981244206E-1,-6.223006248E-1
1.378482178E1,1.924016118E0,1.861862421E0,-7.371399403E-1
1.379453496E1,2.352830887E0,2.239366055E0,-9.436063170E-1
1.380424725E1,1.865374804E0,7.537854910E-1,-1.534906507E0
1.381396048E1,5.042544007E-1,-1.962194085E0,-2.016254187E0
1.382367438E1,-2.715215981E-1,-3.440444469E0,-1.635085344E0
1.383338756E1,2.757975459E-1,-3.282845974E0,-5.856497884E-1
1.384309985E1,1.176186442E0,-1.668987393E0,5.812211633E-1
1.385281308E1,1.663795233E0,-5.413633585E-1,1.294690728E0
1.386252699E1,1.778634548E0,-7.942541242E-1,1.233605981E0
1.387224017E1,1.792073131E0,-1.563921690E0,7.314895988E-1
1.388195246E1,1.839719176E0,-2.006175041E0,3.600944579E-1
1.389166569E1,2.002204657E0,-1.905996203E0,2.696890533E-1
1.390137959E1,2.194010735E0,-1.431978703E0,2.990097404E-1
1.391109277E1,2.345500708E0,-9.213103652E-1,2.609844804E-1
1.392080506E1,2.475000381E0,-5.548020005E-1,7.162184268E-2
1.393051829E1,2.606943369E0,-3.654393852E-1,-1.910424829E-1
1.394023220E1,2.793862581E0,-2.811424434E-1,-4.353813827E-1
1.394994537E1,3.019876242E0,-6.734590977E-2,-5.697677732E-1
1.395965767E1,3.238559484E0,3.726168275E-1,-5.648810267E-1
1.396937089E1,3.372945786E0,8.515210748E-1,-4.610369802E-1
1.397908480E1,3.370502472E0,1.155722976E0,-3.535278440E-1
1.398879798E1,3.186026573E0,1.222916245E0,-2.643441558E-1
1.399851027E1,2.874494553E0,1.109298587E0,-1.714953631E-1
1.400822350E1,2.532419920E0,9.126058221E-1,-7.253811508E-2
1.401793741E1,2.197675705E0,7.818844914E-1,1.420219894E-2
1.402765058E1,1.883700252E0,7.721109390E-1,1.265980899E-1
1.403736287E1,1.478097677E0,8.600729704E-1,2.880144715E-1
1.404707610E1,9.110786915E-1,9.602518678E-1,3.747547865E-1
1.405679006E1,2.403683960E-1,8.527427912E-1,3.454341292E-1
1.406650313E1,-5.048652887E-1,5.192201734E-1,2.721324563E-1
1.407621548E1,-1.272089362E0,1.207950488E-1,1.962346882E-1
1.408592871E1,-1.947686434E0,-2.310529798E-1,1.180462316E-1
1.409564267E1,-2.501114130E0,-5.193728805E-1,6.795676053E-2
1.410535574E1,-2.988570213E0,-7.453863621E-1,4.963133857E-2
1.411506808E1,-3.428380251E0,-9.286405444E-1,3.206948051E-3
1.412478131E1,-3.819322586E0,-1.227955699E0,-8.231166750E-2
1.413449527E1,-4.101533890E0,-1.632336617E0,-1.812689304E-1
1.414420834E1,-4.286162376E0,-2.121014357E0,-2.386885732E-1
1.415392074E1,-4.272723675E0,-2.612135649E0,-2.802261710E-1
1.416363392E1,-3.819322586E0,-2.509513140E0,-3.058817685E-1
1.417334787E1,-3.361186981E0,-1.385554314E0,-1.568350345E-1
1.418306095E1,-3.428380251E0,2.052446753E-1,2.218902707E-1
1.419277334E1,-3.763124466E0,9.859074950E-1,7.058340311E-1
1.420248652E1,-3.957373857E0,7.256865501E-1,1.166412830E0
1.421220048E1,-3.989138126E0,2.870981991E-1,1.419303656E0
1.422191355E1,-3.855973244E0,-3.313846514E-2,1.408308387E0
1.423162595E1,-3.520007372E0,-3.165715933E-1,1.192068458E0
1.424133912E1,-3.099744320E0,-3.092414141E-1,8.768712282E-1
1.425105308E1,-2.821197987E0,1.206423342E-2,6.093201637E-1
1.426076616E1,-2.669708014E0,4.618005157E-1,3.625378609E-1
1.427047855E1,-2.499892473E0,7.660024762E-1,1.693574041E-1
1.428019173E1,-2.272657156E0,8.490777016E-1,1.265980899E-1
1.428990569E1,-1.994110823E0,8.405258060E-1,1.901262105E-1
1.429961886E1,-1.687465549E0,7.049177289E-1,1.827960461E-1
1.430933116E1,-1.335617542E0,5.949652195E-1,5.573981255E-2
1.431904433E1,-8.848122358E-1,6.768187881E-1,-8.231166750E-2
1.432875829E1,-3.497100472E-1,8.344173431E-1,-1.849340051E-1
1.433847147E1,1.915006191E-1,9.126058221E-1,-2.435753495E-1
1.434818376E1,6.826218367E-1,8.930587173E-1,-2.826695740E-1
1.435789699E1,1.124875188E0,8.747332692E-1,-3.193204105E-1
1.436761089E1,1.525743723E0,8.930587173E-1,-3.339807391E-1
1.437732407E1,1.867818236E0,8.771766424E-1,-3.242071867E-1
1.438703636E1,2.091388226E0,8.319739699E-1,-2.667875290E-1
1.439674959E1,2.158581495E0,7.867712975E-1,-1.568350345E-1
1.440646350E1,2.081614733E0,6.755970716E-1,-1.679830020E-3
1.441617668E1,1.974105597E0,4.703523815E-1,1.485885978E-1
1.442588897E1,1.938676476E0,2.492256761E-1,2.035648525E-1
1.443560220E1,1.959445238E0,1.478250325E-1,2.011214644E-1
1.444531616E1,1.978992462E0,2.333436459E-1,2.499892414E-1
1.445502923E1,2.025416851E0,4.495835900E-1,3.405473530E-1
1.446474157E1,1.969218850E0,7.171346545E-1,3.613161445E-1
1.447445480E1,1.661351800E0,7.989882231E-1,2.499892414E-1
1.448416876E1,1.133427143E0,6.426113248E-1,-1.634016447E-2
1.449388183E1,7.901309133E-1,1.003011227E0,-4.329380095E-1
1.450359423E1,8.878664970E-1,1.880187869E0,-8.654178381E-1
1.451330740E1,1.414569497E0,2.593657494E0,-1.154959440E0
1.452302136E1,1.765195847E0,3.088443756E0,-1.421288848E0
1.453273444E1,1.210546613E0,2.218597174E0,-1.757254839E0
1.454244683E1,-7.482878864E-2,-1.120446563E0,-1.657075882E0
1.455216001E1,-4.095730782E-1,-4.156357288E0,-1.016907930E0
1.456187397E1,4.297310412E-1,-3.661571264E0,-3.633013964E-1
1.457158704E1,1.171299577E0,-1.654327035E0,5.995466113E-1
1.458129944E1,1.479319334E0,-7.111788988E-1,1.378987670E0
1.459101261E1,1.508640051E0,-6.745280623E-1,1.360662222E0
1.460072657E1,1.533073902E0,-1.124111652E0,8.280034661E-1
1.461043975E1,1.680898905E0,-1.649440289E0,3.112266660E-1
1.462015204E1,1.710219622E0,-1.688534498E0,1.632489264E-1
1.462986522E1,1.738318563E0,-1.082574010E0,3.185568452E-1
1.463957918E1,1.953336835E0,-2.090624720E-1,4.346178174E-1
1.464929235E1,2.258760452E0,3.139754832E-1,2.916795611E-1
1.465900464E1,2.542193651E0,4.972296655E-1,3.863608837E-2
1.466871787E1,2.770650387E0,7.403468490E-1,-1.470614821E-1
1.467843178E1,2.994220495E0,1.054322362E0,-1.653869003E-1
1.468814496E1,3.201908588E0,1.279114127E0,-6.520794332E-2
1.469785725E1,3.273988485E0,1.281557560E0,5.696150661E-2
1.470757048E1,3.139602184E0,1.093416572E0,1.632489264E-1
1.471728438E1,2.861055851E0,7.879929543E-1,2.819060087E-1
1.472699756E1,2.545858622E0,4.337015450E-1,4.443913698E-1
1.473670985E1,2.316179991E0,1.392731816E-1,6.313106418E-1
1.474642308E1,2.224553108E0,2.916795574E-2,7.913526297E-1
1.475613704E1,2.132925987E0,7.803573459E-2,9.049702287E-1
1.476585011E1,1.799403310E0,2.980934680E-1,9.575030804E-1
1.477556251E1,1.149309158E0,4.825693369E-1,9.440644383E-1
1.478527569E1,2.525853515E-1,4.789042473E-1,8.976400495E-1
1.479498964E1,-6.942279339E-1,3.909422457E-1,8.414421082E-1
1.480470272E1,-1.546970725E0,2.626643181E-1,7.620319724E-1
1.481441511E1,-2.294647694E0,9.147437662E-2,6.740699410E-1
1.482412829E1,-2.966579676E0,-2.041756958E-1,5.494571328E-1
1.483384225E1,-3.516342163E0,-8.614473343E-1,3.197785318E-1
1.484355532E1,-3.925609827E0,-1.617676258E0,5.650337320E-3
1.485326772E1,-4.183540344E0,-2.052599430E0,-2.203631550E-1
1.486298089E1,-4.265393734E0,-2.125901222E0,-2.570139766E-1
1.487269485E1,-4.265393734E0,-2.009840250E0,-1.385096163E-1
1.488240803E1,-4.203087330E0,-1.778939962E0,1.053711493E-2
1.489212032E1,-4.059996128E0,-1.396549582E0,1.229330078E-1
1.490183355E1,-3.892624140E0,-8.321266770E-1,2.023431510E-1
1.491154746E1,-3.847421408E0,-2.909159958E-1,2.965663373E-1
1.492126063E1,-3.882850647E0,-7.711946964E-2,4.541649222E-1
1.493097293E1,-3.892624140E0,-6.123743951E-2,6.190937161E-1
1.494068616E1,-3.873077154E0,-4.046862945E-2,7.559235096E-1
1.495040011E1,-3.771676302E0,-1.236965694E-2,8.402203918E-1
1.496011319E1,-3.522450686E0,-5.879404768E-2,8.499939442E-1
1.496982553E1,-3.228022337E0,-1.003316641E-1,7.754706144E-1
1.497953876E1,-2.980018377E0,2.305948362E-2,6.447492838E-1
1.498925272E1,-2.730792761E0,3.054236174E-1,5.213581324E-1
1.499896579E1,-2.425369024E0,6.511631608E-1,4.297310412E-1
1.500867819E1,-2.066190958E0,9.248227477E-1,3.564293683E-1
1.501839136E1,-1.704569221E0,1.009119630E0,2.733541429E-1
1.502810532E1,-1.353942990E0,9.785773158E-1,1.559187621E-1
1.503781839E1,-9.788827300E-1,9.394831061E-1,6.184828654E-2
1.504753079E1,-5.488462448E-1,9.553651214E-1,2.153236605E-2
1.505724397E1,-8.093725890E-2,1.003011227E0,-1.679830020E-3
