"Time (s)","Acceleration x (m/s^2)","Acceleration y (m/s^2)","Acceleration z (m/s^2)"
3.910370500E-2,1.069890857E0,-1.201825047E1,-3.985545158E0
4.881578800E-2,-1.992024779E-1,-1.034716320E1,-3.205185890E0
5.853245500E-2,-6.275177598E-1,-8.956035614E0,-2.977568626E0
6.844099700E-2,-4.791627228E-1,-8.012965202E0,-2.266601324E0
7.834917400E-2,-4.815555736E-2,-7.818847179E0,-1.919342875E0
8.825688200E-2,3.155534863E-1,-9.020642281E0,-2.728715181E0
9.816459000E-2,9.810572863E-1,-1.039023399E1,-3.078067303E0
1.080725070E-1,2.058425665E0,-1.079013443E1,-1.902593136E0
1.179804240E-1,2.796013355E0,-1.042134094E1,-6.002993584E-1
1.278882360E-1,2.824727058E0,-9.607182503E0,5.084748194E-2
1.377960490E-1,1.811964989E0,-9.202795982E0,-7.079764009E-1
1.477039130E-1,-8.790631890E-1,-9.851550102E0,-3.188436270E0
1.576117780E-1,-2.214856386E0,-1.073958588E1,-3.918546200E0
1.675195900E-1,-2.231307179E-1,-1.108923721E1,-2.570489645E0
1.774274030E-1,2.319542408E0,-1.066540909E1,-5.213362575E-1
1.873352680E-1,2.903690338E0,-9.932906151E0,1.022931695E0
1.972431320E-1,2.678465843E0,-9.288937569E0,1.564008713E0
2.071509450E-1,2.283650160E0,-8.834002495E0,1.372582912E0
2.170587570E-1,2.130509377E0,-8.592327118E0,1.015753269E0
2.269665700E-1,2.223829508E0,-8.527720451E0,8.482556343E-1
2.368743820E-1,2.479861498E0,-8.580363274E0,6.684948206E-1
2.467821950E-1,2.937189817E0,-8.711968422E0,4.651049078E-1
2.566900070E-1,3.593122244E0,-9.097511292E0,-1.615155302E-2
2.665978200E-1,4.339982033E0,-9.813264847E0,1.106680483E-1
2.765056320E-1,5.113461971E0,-1.063908768E1,4.483551383E-1
2.864134450E-1,5.587540150E0,-1.108445168E1,4.651049078E-1
2.963212570E-1,5.965605736E0,-1.110598755E1,2.641077936E-1
3.062290700E-1,5.939284801E0,-1.064626598E1,3.047857881E-1
3.161368820E-1,5.154139996E0,-9.774979591E0,-2.673979402E-1
3.260446950E-1,3.861417532E0,-8.951250076E0,-9.209375978E-1
3.359525070E-1,2.798406124E0,-8.491529465E0,-1.153340459E0
3.458603200E-1,2.079961061E0,-8.335995674E0,-1.203589797E0
3.557681320E-1,1.654038668E0,-8.259425163E0,-1.452443361E0
3.656759450E-1,1.632503271E0,-8.216354370E0,-1.601097465E0
3.755837570E-1,1.974676847E0,-8.271389961E0,-1.177268744E0
3.854915700E-1,2.379363060E0,-8.400602341E0,-9.233304262E-1
3.953993820E-1,2.489432812E0,-8.549256325E0,-1.019342422E0
4.053071950E-1,2.678465843E0,-8.738288879E0,-7.558328509E-1
4.152150070E-1,3.052045345E0,-8.922536850E0,-4.016951025E-1
4.251228200E-1,3.305983543E0,-9.075976372E0,-4.686941206E-1
4.350306320E-1,3.396910906E0,-9.104690552E0,-5.620142221E-1
4.449384450E-1,3.428017616E0,-9.018249512E0,-3.655036688E-1
4.548462570E-1,3.413660526E0,-8.879466057E0,-4.399802685E-1
4.647540700E-1,3.418446302E0,-8.743074417E0,-8.922237158E-1
4.746618820E-1,3.439981699E0,-8.633005142E0,-1.060020447E0
4.845696950E-1,3.483052492E0,-8.640183449E0,-1.225125194E0
4.944775070E-1,3.509373426E0,-8.709575653E0,-1.904985905E0
5.043853200E-1,3.538087368E0,-8.896215439E0,-2.414956331E0
5.142349550E-1,3.540480137E0,-9.095118523E0,-2.216351986E0
5.239476110E-1,3.317947626E0,-9.162117958E0,-2.070389748E0
5.336611530E-1,3.025724173E0,-9.133403778E0,-2.158924341E0
5.433754240E-1,2.743371248E0,-8.968000412E0,-1.878664851E0
5.530888610E-1,2.475075960E0,-8.740681648E0,-1.433300734E0
5.628015700E-1,2.252543449E0,-8.621041298E0,-1.335195065E0
5.725150070E-1,2.067996979E0,-8.599505424E0,-1.222732425E0
5.822293820E-1,1.926820397E0,-8.688039780E0,-9.161519408E-1
5.919428200E-1,1.929213285E0,-8.834002495E0,-9.352945685E-1
6.016554760E-1,2.108675003E0,-8.989535332E0,-1.287338614E0
6.113690180E-1,2.410469770E0,-9.075976372E0,-1.265803218E0
6.210833400E-1,2.760120869E0,-9.150154114E0,-1.086341500E0
6.307967780E-1,3.126222849E0,-9.310472488E0,-1.158126116E0
6.405094340E-1,3.404089212E0,-9.501898766E0,-9.403793216E-1
6.502229760E-1,3.533301830E0,-9.600004196E0,-2.841476798E-1
6.599372990E-1,3.521337509E0,-9.422935486E0,1.226321608E-1
6.696507360E-1,3.375375509E0,-8.996713638E0,1.633101404E-1
6.793634450E-1,3.387339592E0,-8.582756042E0,4.555336237E-1
6.890768820E-1,3.679263830E0,-8.371888161E0,7.573283911E-1
6.987912570E-1,4.131806374E0,-8.441280365E0,6.804589629E-1
7.085046950E-1,4.598706245E0,-8.633005142E0,6.996015310E-1
7.182174030E-1,5.000999451E0,-8.948857307E0,1.020538807E0
7.279309450E-1,5.414957523E0,-9.611968994E0,1.068395257E0
7.376452150E-1,5.795715332E0,-1.058166027E1,9.678967595E-1
7.473586530E-1,5.908178329E0,-1.133121204E1,1.015753269E0
7.570713610E-1,5.900999546E0,-1.189621735E1,7.163512707E-1
7.667849030E-1,5.860321522E0,-1.239392376E1,4.914259613E-1
7.764991740E-1,5.893821239E0,-1.278664589E1,4.387838542E-1
7.862126110E-1,5.877071381E0,-1.296132183E1,4.124628007E-1
7.959253200E-1,5.618646622E0,-1.277707481E1,3.239283562E-1
8.056388610E-1,4.931607246E0,-1.231017494E1,7.776673418E-3
8.153531320E-1,3.811168194E0,-1.191296673E1,-8.515457511E-1
8.250665700E-1,2.642573595E0,-1.178824043E1,-2.441277266E0
8.347792780E-1,1.771286964E0,-1.168056393E1,-4.677370071E0
8.444928200E-1,1.476670623E0,-1.148913765E1,-6.585646152E0
8.542071430E-1,1.622931957E0,-1.127348518E1,-7.078567505E0
8.639205800E-1,1.871785522E0,-1.104377365E1,-6.300601006E0
8.736332880E-1,2.065604210E0,-1.072762203E1,-4.761118889E0
8.833468300E-1,2.187937260E0,-1.035912704E1,-2.987139940E0
8.930611010E-1,2.298007011E0,-1.007408237E1,-1.280160069E0
9.027745380E-1,2.300399780E0,-9.877870560E0,3.170489892E-2
9.124872470E-1,2.060818434E0,-9.729516029E0,8.027920127E-1
9.222007880E-1,1.697109461E0,-9.650552750E0,1.245464206E0
9.319151110E-1,1.352243900E0,-9.707980156E0,1.401296735E0
9.416285490E-1,1.215852976E0,-9.904191971E0,1.396511078E0
9.513412570E-1,1.206281662E0,-1.018205833E1,1.363011599E0
9.610547990E-1,1.354636669E0,-1.054098225E1,1.204786181E0
9.707690700E-1,1.599003673E0,-1.096720314E1,8.338986635E-1
9.804826110E-1,2.022533417E0,-1.137189007E1,2.090728730E-1
9.901952680E-1,2.405683994E0,-1.163749313E1,-5.859424472E-1
9.999088090E-1,2.453540564E0,-1.170449162E1,-1.354337573E0
1.009623080E0,2.353041887E0,-1.156331539E1,-1.787737608E0
1.019336622E0,2.108675003E0,-1.123041439E1,-1.842772484E0
1.029049278E0,2.106282234E0,-1.072522926E1,-1.357926875E-1
1.038762820E0,1.895713687E0,-1.005494022E1,1.025324464E0
1.048477090E0,1.491027594E0,-9.322437286E0,1.680957973E-1
1.058190632E0,1.474277854E0,-8.666504860E0,-8.276175261E-1
1.067903288E0,1.342672586E0,-8.087141991E0,-2.027019978E0
1.077616830E0,1.438385487E0,-7.648956776E0,-3.195614576E0
1.087331101E0,1.603789330E0,-7.253841877E0,-4.390231133E0
1.097044643E0,1.814357758E0,-7.019345284E0,-4.691727161E0
1.106757299E0,1.864607096E0,-6.983452797E0,-3.810869217E0
1.116470840E0,1.582253933E0,-7.100701332E0,-2.656930447E0
1.126185163E0,1.223031521E0,-7.158128738E0,-1.409372568E0
1.135898601E0,9.020941257E-1,-7.179664135E0,-5.189434290E-1
1.145611309E0,5.000999570E-1,-7.119843960E0,-2.458625287E-1
1.155324851E0,5.551348329E-1,-7.129415035E0,1.037288666E0
1.165039174E0,9.858429432E-1,-7.232306480E0,1.501795292E0
1.174752611E0,9.762716293E-1,-7.249056339E0,1.363011599E0
1.184465320E0,7.728816867E-1,-7.138986588E0,1.037288666E0
1.194178913E0,5.551348329E-1,-6.933203697E0,6.349952817E-1
1.203893184E0,3.705884218E-1,-6.676872253E0,3.047857881E-1
1.213606726E0,2.246262282E-1,-6.358626842E0,-1.615155302E-2
1.223319382E0,2.102692872E-1,-6.178866386E0,-2.195414752E-1
1.233032924E0,2.820539773E-1,-6.245865345E0,-4.280161560E-1
1.242747247E0,4.208376706E-1,-6.456732750E0,-8.443672657E-1
1.252460684E0,6.628118753E-1,-6.760621071E0,-1.500598907E0
1.262173445E0,1.081854939E0,-7.165307522E0,-2.371885538E0
1.271886986E0,1.697109461E0,-7.672884941E0,-3.712464333E0
1.281601257E0,2.345863581E0,-8.362317085E0,-5.560919762E0
1.291314799E0,2.577967405E0,-9.274580956E0,-7.844869137E0
1.301027455E0,2.034497499E0,-1.046441174E1,-1.011685371E1
1.310741049E0,1.290030479E0,-1.204696465E1,-1.183819103E1
1.320455320E0,1.234995604E0,-1.374676609E1,-1.225962639E1
1.330168861E0,2.199901342E0,-1.467577934E1,-1.181186962E1
1.339881518E0,3.277269602E0,-1.396929836E1,-1.077996540E1
1.349595059E0,3.739084482E0,-1.212832069E1,-8.910273552E0
1.359309382E0,3.571586847E0,-1.054816055E1,-6.051747799E0
1.369022820E0,2.958725214E0,-9.523433685E0,-2.676073074E0
1.378735580E0,1.888535261E0,-9.075976372E0,3.888336942E-2
1.388449122E0,6.723831892E-1,-8.946464539E0,1.372582912E0
1.398163445E0,-5.365904570E-1,-9.391828537E0,6.589235067E-1
1.407876986E0,-1.575673699E0,-1.093609715E1,-1.354337573E0
1.417589643E0,-1.601994753E0,-1.294217968E1,-2.345564365E0
1.427303184E0,-6.418746710E-1,-1.463240910E1,-3.013461113E0
1.437017507E0,1.550848126E0,-1.500120354E1,-5.055735111E0
1.446731049E0,2.298007011E0,-1.359123230E1,-7.265506744E0
1.456443705E0,6.460621357E-1,-1.169492054E1,-7.006783009E0
1.466157247E0,-9.053842425E-1,-1.009083176E1,-4.287040710E0
1.475871570E0,-1.410568953E0,-8.790931702E0,-1.610668778E0
1.485585111E0,-5.748756528E-1,-7.680063248E0,-3.777668774E-1
1.495297768E0,2.030908167E-1,-6.648158550E0,2.258226424E-1
1.505011361E0,3.681955934E-1,-6.164509296E0,8.985049129E-1
1.514725632E0,3.107678294E-1,-6.418447495E0,1.042074203E0
1.524439174E0,1.001994461E-1,-7.105486870E0,7.091727853E-1
1.534151830E0,1.193420291E-1,-7.989036560E0,4.435695112E-1
1.543865424E0,4.351946115E-1,-8.934500694E0,3.981058598E-1
1.553579747E0,6.747759581E-1,-9.664909363E0,6.158527136E-1
1.563293184E0,9.164510965E-1,-1.011476040E1,8.841479421E-1
1.573005945E0,1.550848126E0,-1.061037350E1,1.168893814E0
1.582719486E0,2.362613201E0,-1.107488060E1,1.180858016E0
1.592433809E0,3.212364435E0,-1.110598755E1,9.678967595E-1
1.602147351E0,4.091128349E0,-1.109402275E1,1.030110121E0
1.611860007E0,5.053641319E0,-1.120648575E1,1.130608678E0
1.621573601E0,5.479563713E0,-1.091934681E1,1.173679471E0
1.631287924E0,5.192425251E0,-1.009561825E1,8.458628058E-1
1.641001361E0,4.675276279E0,-9.140582085E0,-2.243271172E-1
1.650714122E0,4.392923355E0,-8.582756042E0,-1.347159147E0
1.660427663E0,4.155734539E0,-8.383852005E0,-2.393420935E0
1.670141986E0,3.890131474E0,-8.395816803E0,-2.889034271E0
1.679855528E0,3.473481178E0,-8.465208054E0,-2.786142826E0
1.689568184E0,2.982653379E0,-8.589934349E0,-2.295315027E0
1.699281778E0,2.353041887E0,-8.666504860E0,-1.857129455E0
1.708996101E0,1.869392633E0,-8.743074417E0,-1.344766378E0
1.718709538E0,1.443171144E0,-8.585148811E0,-8.180462122E-1
1.728422299E0,9.475577474E-1,-8.357531548E0,-4.016951025E-1
1.738135840E0,5.670989752E-1,-8.237890244E0,-1.908276081E-1
1.747850163E0,5.934200287E-1,-8.316853523E0,-4.007977992E-2
1.757563705E0,8.327022791E-1,-8.700003624E0,4.606183618E-2
1.767276361E0,1.249352574E0,-9.195617676E0,-1.854437590E-2
1.776989955E0,1.524527073E0,-9.537791252E0,-1.836491376E-1
1.786704278E0,1.577468276E0,-9.583254814E0,-3.176472187E-1
1.796417820E0,1.670788407E0,-9.396614075E0,-4.591228366E-1
1.806130476E0,2.067996979E0,-9.334401131E0,-4.519443810E-1
1.815844070E0,2.664108992E0,-9.365508080E0,-3.726821244E-1
1.825558393E0,3.104687452E0,-9.396614075E0,-4.088735580E-1
1.835271830E0,3.317947626E0,-9.420542717E0,-4.758726060E-1
1.844984590E0,3.267698526E0,-9.387042999E0,-5.309075117E-1
1.854698184E0,2.987439156E0,-9.224330902E0,-6.146563292E-1
1.864412455E0,2.661715984E0,-9.039784431E0,-6.601199508E-1
1.874125997E0,2.341077805E0,-8.951250076E0,-6.266204119E-1
1.883838705E0,2.101496458E0,-9.034998894E0,-5.835496187E-1
1.893552247E0,1.926820397E0,-9.257830620E0,-6.720840335E-1
1.903266570E0,1.764108539E0,-9.449256897E0,-8.419744968E-1
1.912980111E0,1.666002750E0,-9.554540634E0,-1.012163997E0
1.922692768E0,1.699502230E0,-9.537791252E0,-1.189232826E0
1.932406361E0,1.874178290E0,-9.485149384E0,-1.225125194E0
1.942120684E0,2.039283037E0,-9.418149948E0,-1.229910851E0
1.951834226E0,2.152044773E0,-9.375079155E0,-1.217946768E0
1.961546882E0,2.154437780E0,-9.332008362E0,-1.201196909E0
1.971260476E0,2.046461582E0,-9.296115875E0,-1.174875975E0
1.980974799E0,1.864607096E0,-9.257830620E0,-1.036092162E0
1.990688236E0,1.689931035E0,-9.279366493E0,-7.319046259E-1
2.000400997E0,1.596610904E0,-9.358329773E0,-3.343969584E-1
2.010114590E0,1.584646821E0,-9.415757179E0,1.974078640E-2
2.019828913E0,1.780858278E0,-9.468399048E0,3.454637825E-1
2.029542351E0,2.106282234E0,-9.633803368E0,6.684948206E-1
2.039255111E0,2.544467688E0,-9.906584740E0,9.391828775E-1
2.048968705E0,3.064009428E0,-1.020120144E1,1.135394335E0
2.058683028E0,3.679263830E0,-1.067976570E1,1.221535921E0
2.068396465E0,4.359124660E0,-1.136710358E1,1.082752228E0
2.078109226E0,5.044070244E0,-1.231735325E1,7.426723242E-1
2.087822820E0,5.810072422E0,-1.319372463E1,4.028915167E-1
2.097537090E0,6.722336292E0,-1.373719501E1,-3.768695518E-2
2.107250632E0,7.715656757E0,-1.381376553E1,-6.816553473E-1
2.116963340E0,8.347960472E0,-1.325354576E1,-1.488335729E0
2.126676882E0,7.440482140E0,-1.212592793E1,-2.520240545E0
2.136391205E0,5.185246468E0,-1.137428284E1,-3.652643681E0
2.146104747E0,3.066402197E0,-1.122323513E1,-4.493122578E0
2.155817455E0,1.622931957E0,-1.128066349E1,-4.912165642E0
2.165530997E0,7.776673436E-1,-1.141974640E1,-5.137091160E0
2.175245320E0,5.192425251E-1,-1.181456184E1,-5.060520649E0
2.184958861E0,6.317051649E-1,-1.223839092E1,-4.385445595E0
2.194671570E0,6.029912829E-1,-1.231496048E1,-3.403790236E0
2.204385111E0,3.921238184E-1,-1.186989594E1,-2.362314224E0
2.214099434E0,5.712864175E-2,-1.107009506E1,-1.375872970E0
2.223812976E0,-3.499503136E-1,-1.020837975E1,-5.261218548E-1
2.233525684E0,-7.857431173E-1,-9.434899330E0,2.258226424E-1
2.243239226E0,-1.276570916E0,-8.893822670E0,9.320043921E-1
2.252953549E0,-1.625923038E0,-8.721539497E0,1.358225942E0
2.262667090E0,-1.877468467E0,-8.774181366E0,1.302891970E0
2.272379747E0,-2.009073734E0,-9.051749229E0,1.128215909E0
2.282093340E0,-2.056930065E0,-9.528220177E0,1.018146038E0
2.291807663E0,-1.980359793E0,-1.012911701E1,9.702895880E-1
2.301521205E0,-1.661815286E0,-1.067498016E1,8.362914920E-1
2.311233861E0,-1.250249863E0,-1.100548840E1,5.727819204E-1
2.320947455E0,-9.628120065E-1,-1.116580772E1,2.066800594E-1
2.330661778E0,-7.881359458E-1,-1.111077309E1,5.383851007E-3
2.340375320E0,-9.293124676E-1,-1.090259743E1,-3.559323549E-1
2.350087976E0,-8.934201598E-1,-1.075663471E1,-6.816553473E-1
2.359801570E0,-4.767699242E-1,-1.046201897E1,-9.858429432E-1
2.369515893E0,-1.369891018E-1,-9.956833839E0,-1.682453394E0
2.379229434E0,4.809573591E-1,-9.427721024E0,-2.429313183E0
2.388942090E0,2.032104731E0,-8.936893463E0,-3.810869217E0
2.398655684E0,3.164507866E0,-8.510971069E0,-4.900201797E0
2.408370007E0,3.250948668E0,-8.039285660E0,-4.634299278E0
2.418083549E0,2.714657307E0,-7.660920620E0,-3.865904093E0
2.427796205E0,1.479063511E0,-7.493422985E0,-2.484348059E0
2.437509799E0,3.705884218E-1,-7.445566654E0,-7.103692293E-1
2.447224122E0,-5.198407173E-1,-7.555636406E0,6.302096844E-1
2.456937663E0,-1.534995675E0,-7.512565613E0,1.264606714E0
2.466650320E0,-2.214856386E0,-7.440781116E0,1.149751306E0
2.476363913E0,-2.528615236E0,-7.356733322E0,5.105685592E-1
2.486078236E0,-2.406581402E0,-7.258627415E0,-2.075773627E-1
2.495791674E0,-2.336890459E0,-7.021738052E0,-7.055835724E-1
2.505504434E0,-2.521436930E0,-6.605087757E0,-8.276175261E-1
2.515218028E0,-2.755933523E0,-6.193223000E0,-7.199404836E-1
2.524932351E0,-3.000300407E0,-5.839085579E0,-5.787639618E-1
2.534645788E0,-3.208476067E0,-5.522933960E0,-3.945166469E-1
2.544358549E0,-3.419044495E0,-5.271687508E0,-1.405783296E-1
2.554072143E0,-3.490829229E0,-5.161617756E0,1.561316848E-1
2.563786413E0,-3.407080412E0,-5.178367138E0,3.885345757E-1
2.573499955E0,-3.270689487E0,-5.309972763E0,3.239283562E-1
2.583212663E0,-3.174976587E0,-5.585147381E0,-2.673979402E-1
2.592926257E0,-3.119941711E0,-6.133402824E0,-1.261017561E0
2.602640528E0,-2.844467878E0,-7.110272408E0,-2.493919373E0
2.612354070E0,-2.392224550E0,-8.697610855E0,-4.031008720E0
2.622066778E0,-2.126322031E0,-1.068694401E1,-6.128317833E0
2.631780320E0,-2.054537296E0,-1.275314617E1,-9.070592880E0
2.641494643E0,-1.719243050E0,-1.491506195E1,-1.243191051E1
2.651208184E0,-9.149555564E-1,-1.703390694E1,-1.468475246E1
2.660920840E0,1.166501082E-2,-1.832423592E1,-1.422263908E1
2.670634434E0,5.958128572E-1,-1.782622910E1,-1.146700478E1
2.680348757E0,5.455635786E-1,-1.564995766E1,-7.622037411E0
2.690062299E0,-2.039881349E-1,-1.326550961E1,-4.775475979E0
2.699774955E0,-1.276570916E0,-1.092891788E1,-3.027817965E0
2.709488549E0,-1.872682810E0,-9.111868858E0,-1.770987868E0
2.719202872E0,-2.126322031E0,-7.953144073E0,-7.725825906E-1
2.728916309E0,-2.763111830E0,-7.869096279E0,-7.989036441E-1
2.738629070E0,-3.728017569E0,-9.320044518E0,-1.220339537E0
2.748342663E0,-3.677768469E0,-1.071805096E1,-7.366902828E-1
2.758056986E0,-2.497508526E0,-1.119212914E1,-1.788634956E-1
2.767770424E0,-1.322034478E0,-1.089063358E1,-9.690931439E-1
2.777483184E0,-1.257428288E0,-9.887442589E0,-2.819642305E0
2.787196778E0,-2.554936409E0,-8.929715157E0,-4.588835716E0
2.796911049E0,-5.054239750E0,-8.664112091E0,-5.263910770E0
2.806624590E0,-6.856932163E0,-9.174081802E0,-5.421836853E0
2.816337299E0,-5.128417015E0,-9.937691689E0,-4.236791611E0
2.826050840E0,-2.387438774E0,-1.003818989E1,-1.395015597E0
2.835765163E0,-1.805384636E0,-9.602396965E0,1.281356573E0
2.845478705E0,-2.478366137E0,-8.869894028E0,2.124228239E0
2.855191361E0,-3.399901867E0,-8.108677864E0,1.700399637E0
2.864904955E0,-3.629911900E0,-7.629814148E0,1.018146038E0
2.874619278E0,-3.653840065E0,-7.488637447E0,5.847460628E-1
2.884332820E0,-3.356831074E0,-7.780561924E0,6.565307379E-1
2.894045476E0,-2.796611547E0,-8.134998322E0,1.183250785E0
2.903759070E0,-2.538186550E0,-8.338388443E0,1.920838356E0
2.913473393E0,-2.274677038E0,-8.649754524E0,2.473879576E0
2.923186830E0,-1.896611094E0,-9.183652878E0,2.696412086E0
2.932899590E0,-1.252642632E0,-9.932906151E0,2.749054193E0
2.942613184E0,-5.198407173E-1,-1.062951660E1,2.737090111E0
2.952327455E0,1.360917836E-1,-1.116102219E1,2.715554714E0
2.962040997E0,7.010970116E-1,-1.145324516E1,2.787339211E0
2.971753653E0,9.858429432E-1,-1.147956657E1,2.447558403E0
2.981467247E0,1.201496124E0,-1.131446171E1,1.564008713E0
2.991181570E0,1.455135226E0,-1.100548840E1,-3.529413417E-2
3.000895111E0,1.816750646E0,-1.073958588E1,-2.278565407E0
3.010607768E0,1.984248161E0,-1.052662468E1,-4.440480709E0
3.020321361E0,1.658824325E0,-1.025623608E1,-5.527420521E0
3.030035684E0,9.116654396E-1,-9.975976944E0,-5.297410011E0
3.039749122E0,4.277170449E-2,-9.830014229E0,-4.267898083E0
3.049461882E0,-8.335995674E-1,-9.794121742E0,-2.975175858E0
3.059175424E0,-1.659422517E0,-9.739087105E0,-1.974377751E0
3.068889747E0,-2.195713997E0,-9.494720459E0,-1.086341500E0
3.078603288E0,-2.303390980E0,-9.121439934E0,-3.343969584E-1
3.088315945E0,-1.903789520E0,-8.771788597E0,2.545365095E-1
3.098029538E0,-1.379462242E0,-8.642576218E0,5.703890920E-1
3.107743861E0,-1.013061285E0,-8.652147293E0,5.967101455E-1
3.117457403E0,-7.953144312E-1,-8.747860909E0,4.938187599E-1
3.127170059E0,-7.259225845E-1,-8.884251595E0,3.358924687E-1
3.136883653E0,-6.753742099E-1,-9.068798065E0,2.569293380E-1
3.146597976E0,-5.150550604E-1,-9.267401695E0,2.712862790E-1
3.156311413E0,-3.284149170E-1,-9.451649666E0,3.071786165E-1
3.166024174E0,-2.542374134E-1,-9.626625061E0,2.425723970E-1
3.175737715E0,-2.374876440E-1,-9.707980156E0,1.154536903E-1
3.185452038E0,-2.303091735E-1,-9.684052467E0,2.213360928E-2
3.195165580E0,-1.800599098E-1,-9.578469276E0,5.982056609E-4
3.204878236E0,-1.537388563E-1,-9.559326172E0,-1.615155302E-2
3.214591830E0,-2.422732860E-1,-9.583254814E0,-8.075776696E-2
3.224306153E0,-6.011967063E-1,-9.727123260E0,-2.578266263E-1
3.234019695E0,-1.084846020E0,-9.830014229E0,-6.026921868E-1
3.243732351E0,-1.503889084E0,-9.887442589E0,-1.184447169E0
3.253445945E0,-1.762313843E0,-9.774979591E0,-1.840379715E0
3.263160268E0,-1.944467545E0,-9.485149384E0,-2.383849621E0
3.272873705E0,-2.035394669E0,-9.092725754E0,-2.659323215E0
3.282586465E0,-1.992323995E0,-8.838788033E0,-2.649751902E0
3.292300007E0,-1.755135417E0,-8.879466057E0,-2.426920414E0
3.302014330E0,-1.345962763E0,-9.145368576E0,-2.007877350E0
3.311727872E0,-7.953144312E-1,-9.540184021E0,-1.366301775E0
3.321440528E0,-2.063809484E-1,-9.889835358E0,-6.385845542E-1
3.331154122E0,2.150549293E-1,-1.006690407E1,-1.375873014E-2
3.340868445E0,3.993022740E-1,-1.004536819E1,3.622135222E-1
3.350581986E0,5.312066078E-1,-1.001186943E1,4.435695112E-1
3.360294643E0,7.345965505E-1,-1.006690407E1,4.770690203E-1
3.370008236E0,9.260223508E-1,-1.018684387E1,5.560321808E-1
3.379722507E0,1.201496124E0,-1.043091202E1,7.932206988E-1
3.389436049E0,1.438385487E0,-1.097438240E1,9.870393276E-1
3.399148757E0,1.218245864E0,-1.171167088E1,9.008977413E-1
3.408862299E0,8.015955687E-1,-1.254018497E1,6.756733060E-1
3.418576622E0,2.964109182E-1,-1.340907860E1,5.871388316E-1
3.428290163E0,-2.350948304E-1,-1.399561977E1,6.206383705E-1
3.438002820E0,-7.546364665E-1,-1.404347610E1,6.565307379E-1
3.447716413E0,-1.206879973E0,-1.371326637E1,4.866403043E-1
3.457430736E0,-1.393819213E0,-1.328704548E1,1.298106313E-1
3.467144278E0,-1.429711580E0,-1.284646702E1,-2.333002165E-2
3.476856934E0,-1.745564103E0,-1.249950695E1,7.956135273E-2
3.486570528E0,-2.748754978E0,-1.245404339E1,-4.064807594E-1
3.496284851E0,-4.438984871E0,-1.253300667E1,-3.241078377E0
3.505998288E0,-5.741578102E0,-1.238435268E1,-7.538288593E0
3.515711049E0,-6.134000778E0,-1.172363472E1,-1.063878822E1
3.525424590E0,-5.640780449E0,-1.073001480E1,-1.059093189E1
3.535138913E0,-4.688137531E0,-9.810872078E0,-7.732406139E0
3.544852455E0,-3.917050600E0,-9.320044518E0,-4.287040710E0
3.554565111E0,-3.462115288E0,-9.121439934E0,-1.648953915E0
3.564278705E0,-3.222832918E0,-9.080761909E0,-2.811566554E-2
3.573993028E0,-3.285046339E0,-9.083154678E0,9.655039310E-1
3.583706570E0,-3.457329512E0,-9.116654396E0,1.485045552E0
3.593419226E0,-3.641875982E0,-9.272188187E0,1.822433591E0
3.603132820E0,-4.046263218E0,-9.439684868E0,2.334796667E0
3.612847143E0,-4.814957142E0,-9.585647583E0,2.854338408E0
3.622560580E0,-4.941776752E0,-9.717552185E0,3.266202927E0
3.632273340E0,-4.546662331E0,-9.806086540E0,3.764209032E0
3.641986882E0,-4.472484589E0,-9.547362328E0,2.768196583E0
3.651701205E0,-3.778266907E0,-9.571290970E0,2.392224550E0
3.661414747E0,-3.632304668E0,-9.700801849E0,2.349153519E0
3.671127403E0,-3.349652529E0,-1.001186943E1,1.949552298E0
3.680840997E0,-2.806182861E0,-1.029930687E1,-2.578266263E-1
3.690555320E0,-2.085644007E0,-1.021555805E1,-3.145066261E0
3.700268861E0,-8.599206209E-1,-9.992726326E0,-4.708476543E0
3.709981518E0,1.193420291E-1,-9.688838005E0,-4.869094849E0
3.719695111E0,6.723831892E-1,-9.379864693E0,-3.923331738E0
3.729409434E0,1.017248750E0,-9.075976372E0,-2.532204628E0
3.739122872E0,1.077069283E0,-8.740681648E0,-1.366301775E0
3.748835632E0,7.704889178E-1,-8.407780647E0,3.409772366E-2
3.758549174E0,4.426721931E-1,-8.139784813E0,5.081757307E-1
3.768263497E0,-4.480560422E-1,-7.737491131E0,2.688934505E-1
3.777977038E0,-1.166201949E0,-7.383353233E0,-4.663013220E-1
3.787689695E0,-1.508674622E0,-7.201199532E0,-1.093519926E0
3.797403288E0,-1.527817249E0,-7.110272408E0,-1.304088354E0
3.807117611E0,-1.506281853E0,-7.055237770E0,-1.119840980E0
3.816831153E0,-1.558923960E0,-6.878168583E0,-8.754739761E-1
3.826543809E0,-1.805384636E0,-6.545267105E0,-6.529414654E-1
3.836257403E0,-2.078465462E0,-6.164509296E0,-3.607180119E-1
3.845971674E0,-2.315355062E0,-5.884549141E0,-4.486542568E-2
3.855685215E0,-2.490330219E0,-5.726622581E0,1.995015889E-1
3.865397924E0,-2.502294302E0,-5.668895721E0,2.545365095E-1
3.875111465E0,-2.569293261E0,-5.729015827E0,5.084748194E-2
3.884825788E0,-2.772683144E0,-5.906084538E0,-3.945166469E-1
3.894539330E0,-2.909074068E0,-6.217151642E0,-9.690931439E-1
3.904251986E0,-3.000300407E0,-6.712764740E0,-1.873879194E0
3.913965580E0,-3.141477108E0,-7.390532017E0,-3.214757204E0
3.923679903E0,-3.579662561E0,-8.168498039E0,-5.122734070E0
3.933393340E0,-4.168596268E0,-9.190832138E0,-7.222435951E0
3.943106101E0,-4.460520744E0,-1.055773163E1,-9.281160355E0
3.952819695E0,-4.180560112E0,-1.221924782E1,-1.137846947E1
3.962533965E0,-3.160619497E0,-1.383769321E1,-1.263529968E1
3.972247507E0,-1.745564103E0,-1.453191090E1,-1.202722359E1
3.981960215E0,-6.490531564E-1,-1.389751434E1,-1.019820976E1
3.991673757E0,-2.422732860E-1,-1.261436272E1,-7.624430180E0
4.001388080E0,-5.988038778E-1,-1.120887852E1,-4.713262558E0
4.011101622E0,-1.182951689E0,-1.006929684E1,-1.940878272E0
4.020814278E0,-1.511067510E0,-9.152546883E0,9.391828626E-2
4.030527872E0,-1.444068432E0,-8.587541580E0,8.554341197E-1
4.040242195E0,-1.405783296E0,-8.700003624E0,4.674977362E-1
4.049955632E0,-1.721635938E0,-9.772586823E0,-9.451649189E-1
4.059668393E0,-2.092822552E0,-1.135274696E1,-1.998306036E0
4.069381934E0,-2.255534410E0,-1.280818176E1,-2.793321371E0
4.079096257E0,-1.958824396E0,-1.382812214E1,-4.318446636E0
4.088809799E0,-2.011466503E0,-1.355055428E1,-5.936593056E0
4.098522455E0,-3.419044495E0,-1.203500080E1,-6.094818592E0
4.108236049E0,-5.408676624E0,-1.032323551E1,-4.406980991E0
4.117950372E0,-6.830611229E0,-8.611469269E0,-2.228316069E0
4.127663809E0,-6.442974091E0,-7.148557663E0,-6.314060688E-1
4.137376570E0,-4.738387108E0,-6.298806667E0,1.537388563E-1
4.147090163E0,-3.490829229E0,-6.157330990E0,5.703890920E-1
4.156804434E0,-3.174976587E0,-6.475875378E0,6.397809386E-1
4.166517976E0,-3.404687405E0,-7.074379921E0,5.344967842E-1
4.176230632E0,-3.672982693E0,-7.845168114E0,4.603192508E-1
4.185944226E0,-3.629911900E0,-8.666504860E0,5.081757307E-1
4.195658549E0,-3.392723322E0,-9.401400566E0,7.426723242E-1
4.205372090E0,-2.899502754E0,-9.952048302E0,1.089930773E0
4.215084747E0,-2.298605204E0,-1.033998489E1,1.473081470E0
4.224798340E0,-1.848754644E0,-1.077099228E1,1.635793328E0
4.234512611E0,-1.384247899E0,-1.117537880E1,1.568794370E0
4.244226153E0,-5.940182209E-1,-1.141974640E1,1.571187139E0
4.253938861E0,2.270190418E-1,-1.140778160E1,1.595115423E0
4.263652403E0,7.010970116E-1,-1.107966614E1,1.671685696E0
4.273366726E0,8.111668825E-1,-1.060558796E1,1.901695848E0
4.283080268E0,7.680960894E-1,-1.003818989E1,2.102692842E0
4.292792924E0,8.063812256E-1,-9.710372925E0,1.726720691E0
4.302506518E0,1.103390336E0,-9.722337723E0,5.943173170E-1
4.312220840E0,1.323530078E0,-9.851550102E0,-1.194018483E0
4.321934278E0,1.005284667E0,-9.810872078E0,-3.133102179E0
4.331647038E0,5.120640397E-1,-9.753444672E0,-4.129114628E0
4.341360580E0,-2.829512656E-1,-9.669695854E0,-4.162613869E0
4.351074903E0,-1.269392371E0,-9.542576790E0,-3.394218922E0
4.360788445E0,-2.047358990E0,-9.420542717E0,-2.146960020E0
4.370501101E0,-2.360818624E0,-9.315258980E0,-9.595218897E-1
4.380214695E0,-2.514258385E0,-9.109476089E0,-1.525424421E-1
4.389928965E0,-2.370688915E0,-8.896215439E0,4.627120793E-1
4.399642507E0,-2.119143486E0,-8.747860909E0,8.147560954E-1
4.409355163E0,-1.802991867E0,-8.776574135E0,7.668996453E-1
4.419068757E0,-1.566102386E0,-8.941679001E0,4.531407952E-1
4.428783080E0,-1.324427366E0,-9.133403778E0,1.058823988E-1
4.438496518E0,-1.056132078E0,-9.336793900E0,-2.123630047E-1
4.448209278E0,-7.378866673E-1,-9.492327690E0,-3.825525343E-1
4.457922820E0,-5.270192027E-1,-9.580862045E0,-3.320041299E-1
4.467637143E0,-3.762713671E-1,-9.648159981E0,-2.267199457E-1
4.477350684E0,-2.638086975E-1,-9.700801849E0,-1.788634956E-1
4.487063340E0,-2.207378894E-1,-9.698409081E0,-1.980060786E-1
4.496776934E0,-1.848455518E-1,-9.652945518E0,-2.362912297E-1
4.506491257E0,-2.087737769E-1,-9.571290970E0,-3.200400174E-1
4.516204695E0,-2.327020019E-1,-9.422935486E0,-4.328017831E-1
4.525917455E0,-2.997010350E-1,-9.339186668E0,-5.979065299E-1
4.535630997E0,-3.906283081E-1,-9.401400566E0,-8.036893010E-1
4.545345320E0,-5.748756528E-1,-9.521040916E0,-1.091127157E0
4.555058861E0,-8.766704202E-1,-9.657731056E0,-1.323230863E0
4.564771518E0,-1.159023523E0,-9.782157898E0,-1.459621787E0
4.574485111E0,-1.286142230E0,-9.853942871E0,-1.562812328E0
4.584199434E0,-1.247856975E0,-9.837192535E0,-1.567597985E0
4.593912872E0,-1.096810102E0,-9.710372925E0,-1.426122308E0
4.603625580E0,-9.987043738E-1,-9.556933403E0,-1.287338614E0
4.613339174E0,-9.867402315E-1,-9.466006279E0,-1.323230863E0
4.623053497E0,-8.958129883E-1,-9.619445801E0,-1.406979680E0
4.632766934E0,-5.174478889E-1,-9.923335075E0,-1.217946768E0
4.642479695E0,-5.054837838E-2,-1.014826012E1,-6.720840335E-1
4.652193236E0,2.365903407E-1,-1.016022396E1,-4.486542568E-2
4.661907559E0,3.251247704E-1,-9.983155251E0,3.550350666E-1
4.671621101E0,4.570291340E-1,-9.856335640E0,6.110670567E-1
4.681333757E0,6.221339107E-1,-9.908977509E0,7.621139884E-1
4.691047351E0,7.010970116E-1,-1.017966557E1,7.549355626E-1
4.700761622E0,5.934200287E-1,-1.056730270E1,7.091727853E-1
4.710475163E0,2.676970363E-1,-1.103420258E1,5.057829022E-1
4.720187820E0,-1.680957973E-1,-1.159920788E1,-2.333002165E-2
4.729901413E0,-4.648058116E-1,-1.231735325E1,-4.399802685E-1
4.739615736E0,-7.067800164E-1,-1.321765327E1,-6.002993584E-1
4.749329174E0,-1.384247899E0,-1.394537067E1,-1.177268744E0
4.759041934E0,-2.612364054E0,-1.387837124E1,-2.700001240E0
4.768755476E0,-3.984049797E0,-1.311954784E1,-4.773082733E0
4.778469799E0,-4.989633560E0,-1.222881889E1,-6.494419575E0
4.788183340E0,-5.466104031E0,-1.170688438E1,-7.068996429E0
4.797895997E0,-5.595316887E0,-1.183849049E1,-6.168995857E0
4.807609590E0,-4.927420139E0,-1.241067410E1,-4.619942188E0
4.817323861E0,-3.850051641E0,-1.300229931E1,-3.267399311E0
4.827037403E0,-2.791825771E0,-1.336600780E1,-2.254637241E0
4.836750059E0,-1.908575177E0,-1.327029514E1,-1.658525229E0
4.846463653E0,-1.645065546E0,-1.277707481E1,-1.275374413E0
4.856177976E0,-1.910967946E0,-1.209960651E1,-9.571290612E-1
4.865891413E0,-2.444866419E0,-1.120648575E1,-4.854438901E-1
4.875604174E0,-3.029014349E0,-1.037109184E1,-1.836491376E-1
4.885317715E0,-3.632304668E0,-9.760622978E0,2.258226424E-1
4.895032038E0,-4.187738895E0,-9.430113792E0,6.397809386E-1
4.904745476E0,-4.489234447E0,-9.379864693E0,8.267202377E-1
4.914458236E0,-4.764708042E0,-9.461220741E0,9.032905698E-1
4.924171778E0,-5.181358337E0,-9.523433685E0,1.827219248E0
4.933886101E0,-5.367998600E0,-9.571290970E0,2.737090111E0
4.943599643E0,-5.578567028E0,-9.528220177E0,1.430010676E0
4.953312299E0,-5.300999641E0,-9.719944954E0,5.392823815E-1
4.963025893E0,-4.434199333E0,-9.966405869E0,-6.840481758E-1
4.972740163E0,-3.308974504E0,-1.002622604E1,-1.177268744E0
4.982453705E0,-1.875075698E0,-1.007886791E1,-1.809273005E0
4.992166361E0,-6.514459848E-1,-9.913763046E0,-2.438884497E0
5.001879955E0,-1.537388563E-1,-9.631410599E0,-2.917748213E0
5.011594278E0,2.006980032E-1,-9.576076508E0,-1.234696507E0
5.021307715E0,1.246959686E0,-9.523433685E0,-1.405783296E-1
5.031020476E0,1.548455358E0,-9.406186104E0,-1.405783296E-1
5.040734018E0,1.294816136E0,-9.159725189E0,-7.223333120E-1
5.050448340E0,5.503492355E-1,-8.644968987E0,-1.435693622E0
5.060161882E0,-2.207378894E-1,-8.106285095E0,-2.060818434E0
5.069874538E0,-9.364909530E-1,-7.517351627E0,-2.362314224E0
5.079588132E0,-1.470389485E0,-6.928418159E0,-2.199602127E0
5.089302403E0,-1.570888042E0,-6.523731709E0,-1.706381679E0
5.099015945E0,-1.546959877E0,-6.277271271E0,-1.153340459E0
5.108728601E0,-1.633101463E0,-6.097510338E0,-7.773682475E-1
5.118442195E0,-1.764706731E0,-5.898906231E0,-5.093721151E-1
5.128156518E0,-1.759921074E0,-5.668895721E0,-2.793620527E-1
5.137869955E0,-1.609173179E0,-5.491827011E0,-1.525424421E-1
5.147582715E0,-1.515853167E0,-5.326722145E0,-1.668993831E-1
5.157296257E0,-1.664208174E0,-5.147260666E0,-4.495515525E-1
5.167010580E0,-1.800599098E0,-5.024927616E0,-1.045663476E0
5.176724122E0,-1.827219248E0,-5.010570526E0,-1.744666815E0
5.186436778E0,-1.870290041E0,-5.130510807E0,-2.412563324E0
5.196150372E0,-2.013859272E0,-5.302793980E0,-3.008675337E0
5.205864643E0,-2.327319145E0,-5.537290573E0,-3.865904093E0
5.215578184E0,-2.894717216E0,-5.872584820E0,-4.962415218E0
5.225290840E0,-3.586841106E0,-6.408876419E0,-6.044569016E0
5.235004434E0,-4.151846409E0,-7.222734928E0,-7.287042141E0
5.244718757E0,-4.331307888E0,-8.400602341E0,-8.821739197E0
5.254432195E0,-3.981656790E0,-9.820443153E0,-1.013360405E1
5.264144955E0,-3.330509901E0,-1.118255711E1,-1.067946625E1
5.273858497E0,-2.411366940E0,-1.219053364E1,-1.057657528E1
5.283572820E0,-1.530210137E0,-1.278425312E1,-9.760024071E0
5.293286361E0,-1.020239711E0,-1.282732391E1,-8.295019150E0
5.302999018E0,-9.532406926E-1,-1.231974602E1,-6.288637161E0
5.312712611E0,-1.204487085E0,-1.136710358E1,-4.222434521E0
5.322426934E0,-1.827219248E0,-1.028255749E1,-2.711965322E0
5.332140372E0,-2.870789051E0,-9.217152596E0,-2.024626970E0
5.341853132E0,-3.651447296E0,-8.383852005E0,-1.732702732E0
5.351566726E0,-4.472484589E0,-8.455636978E0,-2.462812662E0
5.361280997E0,-6.193821430E0,-9.789336205E0,-3.702893019E0
5.370994538E0,-7.156334400E0,-1.158485126E1,-3.561716557E0
5.380707195E0,-6.090929985E0,-1.274596786E1,-3.243471146E0
5.390420788E0,-4.144668102E0,-1.256889915E1,-4.392624378E0
5.400135111E0,-4.031906128E0,-1.033519936E1,-6.722036839E0
5.409848653E0,-5.557031631E0,-7.770990849E0,-8.800203323E0
5.419561309E0,-8.030312538E0,-6.487839699E0,-8.543871880E0
5.429274903E0,-8.664710045E0,-6.918846607E0,-4.993521690E0
5.438989226E0,-5.334498882E0,-8.156534195E0,-1.275374413E0
5.448702663E0,-2.765504837E0,-8.771788597E0,6.421737671E-1
5.458415424E0,-2.437688112E0,-8.635397911E0,1.116251707E0
5.468129018E0,-2.449652195E0,-8.395816803E0,1.159322619E0
5.477843288E0,-2.111965179E0,-8.285746574E0,1.054038405E0
5.487556830E0,-1.491924882E0,-8.362317085E0,8.003991842E-1
5.497269538E0,-1.041775107E0,-8.458029747E0,5.297111273E-1
5.506983080E0,-9.675976634E-1,-8.594719887E0,4.651049078E-1
5.516697403E0,-1.168594718E0,-8.838788033E0,6.397809386E-1
5.526410945E0,-1.523031592E0,-9.190832138E0,8.578268886E-1
5.536123601E0,-1.601994753E0,-9.693623543E0,1.111466169E0
5.545837195E0,-1.185344458E0,-1.022991467E1,1.274178028E0
5.555551518E0,-5.294120312E-1,-1.070608711E1,1.266999602E0
5.565265059E0,1.097707376E-1,-1.116341496E1,1.159322619E0
5.574977715E0,8.039883971E-1,-1.152503014E1,7.115656137E-1
5.584691309E0,1.594218135E0,-1.153460121E1,-4.232304990E-1
5.594405632E0,2.183151484E0,-1.109402275E1,-1.835594058E0
5.604119174E0,1.862214208E0,-1.055055332E1,-2.750250578E0
5.613831830E0,9.092726111E-1,-1.035673428E1,-2.917748213E0
5.623545424E0,-1.151545867E-1,-1.049551868E1,-2.704786777E0
5.633259747E0,-9.628120065E-1,-1.061515903E1,-2.038984060E0
5.642973288E0,-1.621137381E0,-1.040937710E1,-1.665703654E0
5.652685945E0,-1.910967946E0,-1.001665497E1,-1.320838094E0
5.662399538E0,-1.767099500E0,-9.537791252E0,-1.016949654E0
5.672113861E0,-1.441675663E0,-9.085547447E0,-8.180462122E-1
5.681827403E0,-1.142273664E0,-8.690432549E0,-6.481558084E-1
5.691540059E0,-9.915258884E-1,-8.309675217E0,-3.825525343E-1
5.701253653E0,-9.245268703E-1,-7.960322857E0,-3.176472187E-1
5.710967976E0,-9.628120065E-1,-7.785347462E0,-4.471587241E-1
5.720681518E0,-1.005882859E0,-7.830811024E0,-4.567300081E-1
5.730394174E0,-1.008275628E0,-8.211568832E0,-6.409773827E-1
5.740107768E0,-7.115656137E-1,-8.824430466E0,-7.103692293E-1
5.749822090E0,-4.241278172E-1,-9.341579437E0,-5.428716540E-1
5.759535632E0,-3.571287692E-1,-9.684052467E0,-3.777668774E-1
5.769248288E0,-2.662015259E-1,-9.995119095E0,-2.793620527E-1
5.778961882E0,-1.585244983E-1,-1.029452133E1,-1.142572835E-1
5.788676205E0,-1.417747438E-1,-1.047159004E1,-1.375873014E-2
5.798389747E0,-1.848455518E-1,-1.047637558E1,-6.879365444E-2
5.808102455E0,-2.853440940E-1,-1.025862885E1,-2.985046208E-1
5.817816049E0,-4.624129832E-1,-9.899406433E0,-5.979065299E-1
5.827530372E0,-5.988038778E-1,-9.477970123E0,-7.797610760E-1
5.837243809E0,-7.187440991E-1,-9.061619759E0,-9.065806866E-1
5.846956570E0,-8.934201598E-1,-8.743074417E0,-1.012163997E0
5.856670163E0,-1.092024446E0,-8.551649094E0,-1.057627559E0
5.866384486E0,-1.345962763E0,-8.486743927E0,-1.014556766E0
5.876098028E0,-1.640279889E0,-8.585148811E0,-9.185447693E-1
5.885810684E0,-1.896611094E0,-8.845966339E0,-7.342974544E-1
5.895524278E0,-1.989931107E0,-9.238688469E0,-5.021936297E-1
5.905238601E0,-2.073679924E0,-9.506684303E0,-3.777668774E-1
5.914952143E0,-2.138286114E0,-9.696016312E0,-3.320041299E-1
5.924664851E0,-2.164607286E0,-9.834799767E0,-4.112663865E-1
5.934378445E0,-2.033001900E0,-9.887442589E0,-6.816553473E-1
5.944092768E0,-1.774278045E0,-9.815657616E0,-1.012163997E0
5.953806309E0,-1.520638824E0,-9.810872078E0,-1.275374413E0
5.963519018E0,-1.377069473E0,-9.880263329E0,-1.344766378E0
5.973232559E0,-1.278963685E0,-9.932906151E0,-1.299302697E0
5.982946934E0,-1.281356573E0,-9.949655533E0,-1.150947690E0
5.992660476E0,-1.202094316E0,-9.920941353E0,-9.137591720E-1
6.002373132E0,-8.814560175E-1,-9.894620895E0,-4.926223755E-1
6.012086726E0,-4.695914388E-1,-9.961619377E0,-6.580262445E-3
6.021801049E0,-1.007976532E-1,-1.013629627E1,3.263211846E-1
6.031514590E0,3.729812205E-1,-1.041416264E1,5.967101455E-1
6.041227299E0,8.183453679E-1,-1.068455124E1,8.338986635E-1
6.050940893E0,1.057926655E0,-1.095045376E1,9.224331379E-1
6.060655215E0,1.031605721E0,-1.150828075E1,6.589235067E-1
6.070368757E0,9.044869542E-1,-1.246600819E1,1.322034448E-1
6.080081465E0,7.298108935E-1,-1.357448292E1,-3.152543902E-1
6.089795059E0,6.053841114E-1,-1.462762356E1,-7.175477147E-1
6.099509382E0,5.982056856E-1,-1.546570969E1,-1.318445325E0
6.109222924E0,3.969094455E-1,-1.569063568E1,-2.233101845E0
6.118935632E0,-4.241278172E-1,-1.501556015E1,-3.678964853E0
6.128649226E0,-1.525424480E0,-1.375633717E1,-5.244768143E0
6.138363549E0,-2.464009047E0,-1.271964741E1,-6.319743633E0
6.148077090E0,-3.265903711E0,-1.204696465E1,-6.405885220E0
6.157789799E0,-3.806980848E0,-1.156331539E1,-5.819344521E0
6.167503393E0,-4.113561153E0,-1.112991524E1,-4.948058128E0
6.177217715E0,-4.166203499E0,-1.073480034E1,-3.892225027E0
6.186931257E0,-3.857230186E0,-1.031605625E1,-2.582453728E0
6.196643965E0,-3.344866991E0,-9.937691689E0,-1.292124271E0
6.206357559E0,-2.856431961E0,-9.585647583E0,-2.195414752E-1
6.216071882E0,-2.590828657E0,-9.202795982E0,6.373881102E-1
6.225785424E0,-2.612364054E0,-8.917751312E0,1.204786181E0
6.235498132E0,-2.858824968E0,-8.920144081E0,1.647757530E0
6.245211726E0,-3.117548704E0,-9.229117393E0,2.030908108E0
6.254926049E0,-3.079263687E0,-9.861121178E0,2.286940336E0
6.264639590E0,-2.818146944E0,-1.055294609E1,2.284547329E0
6.274352299E0,-2.624328136E0,-1.100070286E1,2.188834429E0
6.284065893E0,-2.576471806E0,-1.124716377E1,2.167299032E0
6.293780268E0,-2.650649309E0,-1.141496086E1,2.073979139E0
6.303493809E0,-2.578864574E0,-1.152024460E1,2.318047047E0
6.313206518E0,-2.600399971E0,-1.137189007E1,3.603889942E0
6.322920111E0,-2.741576433E0,-1.105095196E1,1.592722535E0
6.332634434E0,-2.198106766E0,-1.068215847E1,-9.041878581E-1
6.342347976E0,-1.616351724E0,-1.010997486E1,-3.260220766E0
6.352060684E0,-9.939187169E-1,-9.430113792E0,-4.646263599E0
6.361774278E0,-6.083751321E-1,-8.769395828E0,-5.199304581E0
6.371488601E0,4.516452923E-2,-8.235497475E0,-5.182554722E0
6.381202195E0,2.461616248E-1,-7.756633759E0,-4.493122578E0
6.390914903E0,2.093719784E-3,-7.412067413E0,-2.946461916E0
6.400628497E0,-3.619144261E-1,-7.107879639E0,-1.428515077E0
6.410342820E0,-7.402794957E-1,-6.880561352E0,-2.937189937E-1
6.420056361E0,-1.027418256E0,-6.878168583E0,5.632106066E-1
6.429769070E0,-1.293320656E0,-6.909275532E0,1.006181955E0
6.439482663E0,-1.544566989E0,-6.904489517E0,1.042074203E0
6.449197038E0,-1.815255046E0,-6.798906326E0,8.147560954E-1
6.458910580E0,-1.791027784E0,-6.830312252E0,9.822536707E-1
6.468623288E0,-1.456032634E0,-6.806085110E0,8.458628058E-1
6.478336882E0,-1.590030670E0,-6.562016964E0,4.028915167E-1
6.488051205E0,-1.985145450E0,-5.968297958E0,4.244269133E-1
6.497764799E0,-2.229213476E0,-5.269294739E0,7.450651526E-1
6.507477507E0,-2.219642162E0,-4.740181446E0,1.034895778E0
6.517191101E0,-2.167000055E0,-4.495814800E0,1.152144074E0
6.526905424E0,-2.310569286E0,-4.651647091E0,7.477570772E-1
6.536619018E0,-2.339283228E0,-5.185545921E0,1.178465188E-1
6.546331726E0,-2.066501379E0,-5.961119175E0,-5.045864582E-1
6.556045320E0,-1.549352646E0,-6.904489517E0,-1.246660590E0
6.565759643E0,-1.051346421E0,-7.986643791E0,-2.735893488E0
6.575473236E0,-9.245268703E-1,-9.083154678E0,-5.637490273E0
6.585185945E0,-1.554138303E0,-1.011715317E1,-8.929415703E0
6.594899538E0,-2.882753134E0,-1.121127129E1,-1.111047363E1
6.604613861E0,-3.873979807E0,-1.265504074E1,-1.197936726E1
6.614327403E0,-3.766302824E0,-1.422802258E1,-1.203200912E1
6.624040163E0,-2.760719061E0,-1.516391563E1,-1.239123249E1
6.633753757E0,-1.738385677E0,-1.485524082E1,-1.194826031E1
6.643468080E0,-8.359923959E-1,-1.379462242E1,-9.700203896E0
6.653181674E0,-3.068794906E-1,-1.254736328E1,-6.106782436E0
6.662894382E0,-3.882354796E-1,-1.147717381E1,-3.063710213E0
6.672607976E0,-8.623134494E-1,-1.062712383E1,-1.356730461E0
6.682322351E0,-1.515853167E0,-1.001186943E1,-1.124626637E0
6.692035893E0,-2.358425856E0,-1.012433147E1,-2.340778828E0
6.701748601E0,-3.840480328E0,-1.136231804E1,-3.418147087E0
6.711462195E0,-4.553840637E0,-1.265743351E1,-2.261815548E0
6.721176570E0,-3.632304668E0,-1.344018555E1,-1.821237087E0
6.730890111E0,-1.836790442E0,-1.342343616E1,-3.133102179E0
6.740602820E0,-1.783849239E0,-1.232931805E1,-4.308875561E0
6.750316465E0,-3.996013880E0,-1.069890785E1,-3.748655796E0
6.760030788E0,-6.854539394E0,-9.291330338E0,-1.797308922E0
6.769744382E0,-7.845766544E0,-7.931309700E0,-4.591228366E-1
6.779457090E0,-6.567400932E0,-6.413661957E0,-2.721835673E-1
6.789170684E0,-4.364807606E0,-5.448756218E0,1.369891018E-1
6.798885059E0,-3.385545015E0,-5.231009483E0,8.027920127E-1
6.808598601E0,-3.232404232E0,-5.470291615E0,7.283154130E-1
6.818311309E0,-3.297010422E0,-5.975476265E0,4.435695112E-1
6.828024955E0,-3.615555048E0,-6.612266064E0,7.283154130E-1
6.837739278E0,-4.031906128E0,-7.402495861E0,1.037288666E0
6.847452872E0,-4.297808647E0,-8.185248375E0,1.432403445E0
6.857165580E0,-4.563411713E0,-8.934500694E0,2.021337032E0
6.866879174E0,-4.419842720E0,-9.882657051E0,2.895016193E0
6.876593549E0,-3.955335855E0,-1.080449200E1,3.424129248E0
6.886307090E0,-2.538186550E0,-1.156331539E1,3.089133978E0
6.896019799E0,-8.503493667E-1,-1.207328606E1,2.643769979E0
6.905733445E0,4.594219327E-1,-1.232453251E1,2.638984203E0
6.915447820E0,1.167996526E0,-1.225035477E1,2.808874607E0
6.925161361E0,1.579861164E0,-1.195843029E1,2.732304335E0
6.934874070E0,2.096710920E0,-1.153938675E1,1.523330688E0
6.944587715E0,3.073580742E0,-1.111795139E1,-1.416550994E0
6.954302038E0,3.952344894E0,-1.052662468E1,-5.759523869E0
6.964015632E0,4.031308174E0,-9.885049820E0,-8.112865448E0
6.973728340E0,3.107080221E0,-9.518648148E0,-7.061817646E0
6.983441986E0,1.692323804E0,-9.296115875E0,-4.538586140E0
6.993156309E0,8.135597110E-1,-9.174081802E0,-2.381456852E0
7.002869903E0,2.174477577E-1,-9.193224907E0,-7.510471940E-1
7.012582611E0,-5.006981492E-1,-9.231510162E0,1.971087605E-1
7.022296257E0,-1.005882859E0,-9.166903496E0,5.919244885E-1
7.032010580E0,-1.463211060E0,-8.996713638E0,6.326025128E-1
7.041724174E0,-1.846361756E0,-8.822037697E0,4.507479668E-1
7.051436882E0,-1.930110574E0,-8.810073853E0,1.923231184E-1
7.061150528E0,-1.805384636E0,-8.960822105E0,-4.725824669E-2
7.070864851E0,-1.661815286E0,-9.044570923E0,-3.056831062E-1
7.080578445E0,-1.484746456E0,-9.078369141E0,-5.237290859E-1
7.090291153E0,-1.353141189E0,-8.984749794E0,-5.787639618E-1
7.100004799E0,-1.209272742E0,-8.829216003E0,-3.873381615E-1
7.109719122E0,-1.185344458E0,-8.721539497E0,-4.725824669E-2
7.119432715E0,-1.147059321E0,-8.776574135E0,2.856431901E-1
7.129145424E0,-1.017846942E0,-9.015856743E0,4.339981973E-1
7.138859070E0,-9.580263495E-1,-9.317651749E0,3.478565812E-1
7.148573445E0,-9.005986452E-1,-9.542576790E0,1.298106313E-1
7.158286986E0,-9.412766099E-1,-9.645767212E0,-2.841476798E-1
7.167999747E0,-1.123131156E0,-9.636196136E0,-1.043270707E0
7.177713340E0,-1.563709617E0,-9.619445801E0,-2.029412746E0
7.187427715E0,-1.999502420E0,-9.614361763E0,-2.989532709E0
7.197141309E0,-2.277069807E0,-9.566504478E0,-3.669393539E0
7.206854018E0,-2.308176517E0,-9.506684303E0,-3.808476448E0
7.216567663E0,-2.006680965E0,-9.442078590E0,-3.267399311E0
7.226281986E0,-1.544566989E0,-9.370293617E0,-2.352742910E0
7.235995580E0,-1.192523003E0,-9.399007797E0,-1.399801254E0
7.245708340E0,-1.008275628E0,-9.559326172E0,-6.960122585E-1
7.255421934E0,-8.958129883E-1,-9.810872078E0,-3.128615618E-1
7.265136309E0,-7.498508096E-1,-1.001665497E1,-6.640082598E-2
7.274849903E0,-5.054838061E-1,-1.013390255E1,1.417747438E-1
7.284562611E0,-3.451646566E-1,-1.014347458E1,3.574278951E-1
7.294276257E0,-2.781656384E-1,-1.008365345E1,4.651049078E-1
7.303990632E0,-1.776670814E-1,-1.008604622E1,4.746761918E-1
7.313704174E0,6.909275055E-2,-1.022991467E1,4.746761918E-1
7.323416934E0,3.562314808E-1,-1.046919727E1,5.775675774E-1
7.333130528E0,6.484549642E-1,-1.089781189E1,7.354938388E-1
7.342844903E0,8.398807645E-1,-1.185045433E1,6.206383705E-1
7.352558497E0,1.057926655E0,-1.306451225E1,2.282154560E-1
7.362271257E0,1.153639674E0,-1.427587891E1,5.802594870E-2
7.371984851E0,1.124925733E0,-1.519023609E1,1.728814393E-1
7.381699226E0,6.843472719E-1,-1.550878048E1,-2.410768867E-1
7.391412820E0,-4.552344978E-1,-1.486242008E1,-2.101496458E0
7.401125528E0,-1.791027784E0,-1.375872993E1,-4.888237476E0
7.410839174E0,-2.842075109E0,-1.286321640E1,-7.808976650E0
7.420553549E0,-3.570091486E0,-1.237238884E1,-9.590133667E0
7.430267143E0,-3.799802303E0,-1.191057396E1,-9.113663673E0
7.439979851E0,-3.474079370E0,-1.143171024E1,-6.729215622E0
7.449693497E0,-3.112763166E0,-1.103659534E1,-4.162613869E0
7.459407872E0,-2.962015390E0,-1.076381397E1,-2.419741869E0
7.469121413E0,-2.734398127E0,-1.047398281E1,-1.146162033E0
7.478834174E0,-2.581257343E0,-1.010518932E1,-1.453639716E-1
7.488547820E0,-2.629113913E0,-9.672088623E0,6.589235067E-1
7.498262195E0,-2.909074068E0,-9.329615593E0,1.274178028E0
7.507975736E0,-3.423830032E0,-9.253045082E0,1.788933992E0
7.517688497E0,-3.981656790E0,-9.468399048E0,2.069193363E0
7.527402143E0,-4.362414837E0,-9.940084457E0,1.999801517E0
7.537116518E0,-4.206881523E0,-1.054576778E1,1.796112537E0
7.546830111E0,-3.852444410E0,-1.102223873E1,1.633400559E0
7.556542820E0,-3.490829229E0,-1.120409298E1,1.439581871E0
7.566256465E0,-3.198904753E0,-1.111077309E1,1.051645517E0
7.575970840E0,-3.148655415E0,-1.098395348E1,4.124628007E-1
7.585684434E0,-2.945265532E0,-1.086909771E1,-2.865405083E-1
7.595397143E0,-2.832503796E0,-1.083081245E1,2.641077936E-1
7.605110788E0,-3.131905794E0,-1.059601688E1,-5.309075117E-1
7.614825163E0,-3.007478952E0,-1.022512913E1,-1.682453394E0
7.624538757E0,-2.255534410E0,-9.624231339E0,-2.211566210E0
7.634251518E0,-1.252642632E0,-9.116654396E0,-2.333600283E0
7.643965163E0,-4.241278172E-1,-8.666504860E0,-2.596810818E0
7.653679538E0,2.533400953E-1,-8.300103188E0,-3.104388237E0
7.663393132E0,1.504487246E-1,-7.873881817E0,-3.125923634E0
7.673105840E0,-2.853440940E-1,-7.558029652E0,-2.603989124E0
7.682819486E0,-9.628120065E-1,-7.215556622E0,-1.751845241E0
7.692533861E0,-1.613958836E0,-6.875775814E0,-6.337988973E-1
7.702247455E0,-1.697707653E0,-6.684051037E0,9.056833982E-1
7.711960215E0,-1.712064624E0,-6.502196312E0,1.820040703E0
7.721673861E0,-1.783849239E0,-6.444768906E0,1.944766641E0
7.731388236E0,-1.944467545E0,-6.490232468E0,1.379761338E0
7.741101830E0,-2.085644007E0,-6.578766823E0,4.076771438E-1
7.750814538E0,-1.922932148E0,-6.719943523E0,-1.405783296E-1
7.760528184E0,-1.688136339E0,-6.803691864E0,-1.453639716E-1
7.770242559E0,-1.747956991E0,-6.648158550E0,2.401795685E-1
7.779956153E0,-2.009073734E0,-6.226722717E0,8.410771489E-1
7.789668913E0,-2.162214279E0,-5.705087185E0,1.238285661E0
7.799382559E0,-2.195713997E0,-5.405685425E0,1.092323542E0
7.809096934E0,-2.183749676E0,-5.388935566E0,4.411766827E-1
7.818810528E0,-2.016252279E0,-5.630610943E0,-2.434697002E-1
7.828523236E0,-1.621137381E0,-6.126224041E0,-7.677969933E-1
7.838236934E0,-1.204487085E0,-6.880561352E0,-1.617847204E0
7.847951309E0,-1.010668516E0,-7.861917973E0,-3.425325632E0
7.857664903E0,-1.113559842E0,-9.126225471E0,-6.233602047E0
7.867377611E0,-1.645065546E0,-1.059840965E1,-9.527920723E0
7.877091257E0,-2.389831543E0,-1.235803127E1,-1.233141136E1
7.886805632E0,-2.602792740E0,-1.421366596E1,-1.340160179E1
7.896519226E0,-2.449652195E0,-1.540110397E1,-1.263051414E1
7.906231986E0,-2.205285072E0,-1.519502163E1,-1.106740284E1
7.915945632E0,-1.865504384E0,-1.403151226E1,-9.592526436E0
7.925660007E0,-1.357926846E0,-1.265982628E1,-7.928617954E0
7.935373601E0,-1.326820135E0,-1.128066349E1,-5.330909729E0
7.945086361E0,-2.080858469E0,-1.010997486E1,-2.419741869E0
7.954800007E0,-3.241975546E0,-9.064012527E0,-4.926223755E-1
7.964514382E0,-3.998406649E0,-8.276175499E0,5.802594870E-2
7.974227976E0,-4.776672363E0,-8.570791245E0,-9.499505758E-1
7.983940736E0,-6.328118801E0,-1.027298546E1,-2.441277266E0
7.993654382E0,-6.383153439E0,-1.197278690E1,-3.080460072E0
8.003368757E0,-4.621138573E0,-1.263589859E1,-3.616751432E0
8.013082351E0,-2.607578516E0,-1.197517967E1,-4.215256214E0
8.022795111E0,-2.298605204E0,-1.007886791E1,-4.007080555E0
8.032508757E0,-4.295415878E0,-8.242675781E0,-3.214757204E0
8.042223184E0,-7.223333359E0,-7.196413994E0,-2.450848579E0
8.051936726E0,-8.331808090E0,-6.847062111E0,-1.890628934E0
8.061649486E0,-6.378367901E0,-7.275377274E0,-1.060020447E0
8.071363132E0,-3.747160196E0,-8.113463402E0,-8.315058798E-2
8.081077559E0,-2.732005358E0,-8.678468704E0,7.354938388E-1
8.090791153E0,-2.255534410E0,-8.764610291E0,8.650053740E-1
8.100503913E0,-1.697707653E0,-8.810073853E0,9.367900491E-1
8.110217559E0,-1.451246977E0,-9.068798065E0,1.034895778E0
8.119931934E0,-1.532602906E0,-9.257830620E0,1.176072359E0
8.129645528E0,-1.630708575E0,-9.281759262E0,1.755434513E0
8.139358288E0,-1.587637782E0,-9.360722542E0,2.234298229E0
8.149071934E0,-1.331605792E0,-9.662516594E0,2.605484724E0
8.158786309E0,-7.019943595E-1,-1.021316528E1,2.916551590E0
8.168499955E0,1.815554202E-1,-1.089781189E1,3.043670416E0
8.178212663E0,1.201496124E0,-1.150828075E1,2.799303293E0
8.187926361E0,2.250150681E0,-1.183609676E1,2.172084808E0
8.197640736E0,3.073580742E0,-1.174277687E1,7.836494446E-1
8.207354330E0,3.202793121E0,-1.096241760E1,-1.593919039E0
8.217067090E0,2.647359133E0,-1.004058266E1,-4.009473324E0
8.226780736E0,1.483849168E0,-9.530612946E0,-5.108377457E0
8.236495111E0,7.148557901E-2,-9.468399048E0,-4.768297195E0
8.246208757E0,-1.032203913E0,-9.597611427E0,-3.652643681E0
8.255921465E0,-1.367498159E0,-9.568898201E0,-2.252244234E0
8.265635163E0,-1.204487085E0,-9.489934921E0,-1.103091240E0
8.275349538E0,-1.269392371E0,-9.217152596E0,-3.248256743E-1
8.285063132E0,-1.338784218E0,-8.834002495E0,1.441675574E-1
8.294775893E0,-1.202094316E0,-8.431708336E0,7.573283911E-1
8.304489538E0,-1.341177106E0,-8.182855606E0,1.171286702E0
8.314203965E0,-1.721635938E0,-8.326424599E0,1.046859860E0
8.323917559E0,-2.023430586E0,-8.664112091E0,5.584250093E-1
8.333630320E0,-2.131107569E0,-9.003892899E0,5.802594870E-2
8.343343965E0,-1.997109652E0,-9.336793900E0,-2.865405083E-1
8.353058340E0,-1.771885157E0,-9.554540634E0,-4.160520434E-1
8.362771986E0,-1.537388563E0,-9.638588905E0,-3.391826153E-1
8.372484747E0,-1.436890006E0,-9.631410599E0,-1.405783296E-1
8.382198393E0,-1.357926846E0,-9.607182503E0,1.974078640E-2
8.391912768E0,-1.300499082E0,-9.583254814E0,9.631111473E-2
8.401626361E0,-1.290927768E0,-9.504291534E0,6.759724021E-2
8.411339174E0,-1.276570916E0,-9.437292099E0,-1.136590727E-2
8.421052820E0,-1.247856975E0,-9.346364975E0,-1.429711580E-1
8.430767195E0,-1.264606714E0,-9.233902931E0,-3.056831062E-1
8.440480788E0,-1.386640668E0,-9.104690552E0,-4.998008311E-1
8.450193549E0,-1.506281853E0,-8.963214874E0,-7.630113363E-1
8.459907247E0,-1.642672777E0,-8.927322388E0,-1.095912814E0
8.469621622E0,-1.776670814E0,-8.958429337E0,-1.442872047E0
8.479335215E0,-1.832004786E0,-9.107083321E0,-1.768594980E0
8.489047976E0,-1.719243050E0,-9.303294182E0,-1.926521301E0
8.498761674E0,-1.367498159E0,-9.475577354E0,-1.775773525E0
8.508476049E0,-9.556335211E-1,-9.652945518E0,-1.347159147E0
8.518189695E0,-6.729813814E-1,-9.779765129E0,-7.989036441E-1
8.527902455E0,-5.485545993E-1,-9.885049820E0,-2.602194548E-1
8.537616101E0,-5.653043389E-1,-9.954441071E0,1.274178028E-1
8.547330476E0,-7.570292354E-1,-9.983155251E0,2.712862790E-1
8.557044122E0,-9.675976634E-1,-9.973584175E0,1.728814393E-1
8.566756882E0,-9.364909530E-1,-9.959226608E0,-2.333002165E-2
8.576470528E0,-7.067800164E-1,-9.911370277E0,-1.214357466E-1
8.586184955E0,-5.653043389E-1,-9.820443153E0,-6.640082598E-2
8.595898549E0,-4.480560422E-1,-9.822835922E0,7.477571070E-2
8.605611309E0,-3.044866920E-1,-9.980762482E0,2.401795685E-1
8.615324955E0,-7.208377868E-2,-1.036630630E1,5.033900738E-1
8.625039382E0,2.772683203E-1,-1.089302635E1,8.769695163E-1
8.634752976E0,5.312066078E-1,-1.149153042E1,1.058824062E0
8.644465736E0,5.958128572E-1,-1.220010567E1,7.740781307E-1
8.654179434E0,5.479564071E-1,-1.293978691E1,2.688934505E-1
8.663893809E0,4.426721931E-1,-1.373958778E1,4.366901144E-2
8.673607455E0,3.897309899E-1,-1.444098377E1,1.465603858E-1
8.683320215E0,3.801597059E-1,-1.475474262E1,2.497508675E-1
8.693033861E0,1.408774406E-1,-1.455344677E1,-5.739783049E-1
8.702748288E0,-4.887340367E-1,-1.375394440E1,-2.383849621E0
8.712461882E0,-1.302891970E0,-1.288235855E1,-4.495515347E0
8.722174643E0,-2.013859272E0,-1.222642612E1,-6.451348782E0
8.731888340E0,-2.420938253E0,-1.166620636E1,-7.421040535E0
8.741602715E0,-2.873181820E0,-1.119691467E1,-7.033103943E0
8.751316361E0,-3.375973701E0,-1.096002483E1,-5.974878311E0
8.761029122E0,-3.677768469E0,-1.085952663E1,-4.730011940E0
8.770742768E0,-3.780659676E0,-1.078534889E1,-3.463610888E0
8.780457195E0,-3.716053486E0,-1.052901745E1,-2.221137524E0
8.790170788E0,-3.543770313E0,-1.006211853E1,-1.112662554E0
8.799883549E0,-3.337688446E0,-9.547362328E0,-1.549352705E-1
8.809597247E0,-3.330509901E0,-9.188439369E0,4.746761918E-1
8.819311622E0,-3.589233875E0,-9.114261627E0,9.080761671E-1
8.829025268E0,-4.005585194E0,-9.370293617E0,1.231107235E0
8.838738028E0,-4.400700092E0,-9.952048302E0,1.444367528E0
8.848451674E0,-4.592125893E0,-1.076859951E1,1.657328725E0
8.858166101E0,-4.652245522E0,-1.146281719E1,1.867897153E0
8.867879747E0,-5.018347263E0,-1.168056393E1,2.016551256E0
8.877592507E0,-5.482853889E0,-1.144128132E1,1.839183331E0
8.887306153E0,-5.298606873E0,-1.096241760E1,1.358225942E0
8.897020580E0,-4.690530777E0,-1.033041382E1,7.426723242E-1
8.906734174E0,-4.080061913E0,-9.652945518E0,3.649054468E-2
8.916446986E0,-3.708875179E0,-9.030213356E0,-6.744768620E-1
8.926160632E0,-3.359223843E0,-8.551649094E0,-9.185447693E-1
8.935875059E0,-2.918645382E0,-8.249854088E0,-8.108677864E-1
8.945588653E0,-2.531008244E0,-8.005785942E0,-9.475577474E-1
8.955301465E0,-1.791027784E0,-7.711170197E0,-9.738788009E-1
8.965015111E0,-8.359923959E-1,-7.555636406E0,-9.619147182E-1
8.974729538E0,1.145563871E-1,-7.648956776E0,-2.053340912E0
8.984443132E0,6.077769399E-1,-7.835597038E0,-3.456432343E0
8.994155945E0,2.629113793E-1,-7.996214867E0,-3.422932863E0
9.003869590E0,-7.686942816E-2,-8.211568832E0,-2.218744755E0
9.013584018E0,-2.614158690E-1,-8.405387878E0,-6.314060688E-1
9.023297611E0,-3.284149170E-1,-8.582756042E0,-4.247260094E-2
9.033010424E0,-6.323033571E-1,-8.690432549E0,-1.405783296E-1
9.042724070E0,-9.484550953E-1,-8.656932831E0,-5.572285652E-1
9.052438497E0,-1.230808139E0,-8.355138779E0,-7.965108156E-1
9.062152090E0,-1.523031592E0,-7.770990849E0,-7.797610760E-1
9.071864903E0,-1.858325839E0,-7.086344242E0,-5.213362575E-1
9.081578549E0,-2.200499535E0,-6.540481567E0,-1.477568001E-1
9.091292976E0,-2.593221426E0,-6.104688644E0,1.923231184E-1
9.101006570E0,-2.892324448E0,-5.815157413E0,4.770690203E-1
9.110719382E0,-3.215654612E0,-5.525326729E0,5.823532343E-1
9.120433028E0,-3.476472139E0,-5.245366573E0,5.153541565E-1
9.130147455E0,-3.792623997E0,-4.986642361E0,1.971087605E-1
9.139861101E0,-3.917050600E0,-4.826323509E0,-2.338984162E-1
9.149573861E0,-3.759124279E0,-4.840680122E0,-6.505486369E-1
9.159287559E0,-3.483650684E0,-5.077569485E0,-1.012163997E0
9.169001934E0,-3.208476067E0,-5.494219780E0,-1.522134304E0
9.178715580E0,-3.036192894E0,-6.176473618E0,-2.783750057E0
9.188428340E0,-2.925823927E0,-7.342376232E0,-5.134698391E0
9.198142038E0,-2.887538671E0,-9.039784431E0,-8.237590790E0
9.207856465E0,-3.036192894E0,-1.097677517E1,-1.112722397E1
9.217570059E0,-3.390330553E0,-1.293021584E1,-1.278395367E1
9.227282872E0,-3.579662561E0,-1.468056488E1,-1.264487171E1
9.236996518E0,-2.882753134E0,-1.591107464E1,-1.161565876E1
9.246710945E0,-1.353141189E0,-1.620299911E1,-1.006421185E1
9.256424590E0,-2.422732860E-2,-1.518305779E1,-8.340482712E0
9.266137351E0,8.973084688E-1,-1.364148235E1,-6.743572235E0
9.275851049E0,8.422735929E-1,-1.217139149E1,-4.725226402E0
9.285565476E0,-1.609173268E-1,-1.088584709E1,-2.979961395E0
9.295279070E0,-1.676172256E0,-1.041416264E1,-2.558525562E0
9.304991882E0,-3.866801500E0,-1.112752247E1,-2.460419893E0
9.314705528E0,-5.085346222E0,-1.194885921E1,-9.858429432E-1
9.324419955E0,-4.343272209E0,-1.246361542E1,-4.902295470E-1
9.334133601E0,-2.763111830E0,-1.237956715E1,-1.615454435E0
9.343846361E0,-2.320140600E0,-1.076142120E1,-2.625823736E0
9.353560059E0,-4.096811295E0,-8.448458672E0,-2.496312141E0
9.363274486E0,-6.459723949E0,-6.672086716E0,-2.245065928E0
9.372988080E0,-7.754838943E0,-5.491827011E0,-2.520240545E0
9.382700893E0,-6.679863453E0,-5.190331459E0,-2.065604210E0
9.392414590E0,-4.633102894E0,-5.918048382E0,-1.016949654E0
9.402128965E0,-3.773481369E0,-6.765407085E0,5.563312769E-2
9.411842611E0,-3.632304668E0,-7.433602810E0,6.948158741E-1
9.421555424E0,-3.397509098E0,-8.063214302E0,9.583254457E-1
9.431269070E0,-3.021835804E0,-8.814859390E0,1.125823021E0
9.440983497E0,-2.710469961E0,-9.513862610E0,1.422832131E0
9.450697143E0,-2.392224550E0,-9.973584175E0,1.959123492E0
9.460409903E0,-1.918146491E0,-1.034237766E1,2.428116798E0
9.470123601E0,-1.377069473E0,-1.065583706E1,2.708376169E0
9.479838028E0,-1.003489971E0,-1.093609715E1,2.945265532E0
9.489551674E0,-5.126622319E-1,-1.118016434E1,3.148954630E0
9.499264434E0,1.166501082E-2,-1.131446171E1,3.280559778E0
9.508978132E0,3.945166469E-1,-1.117059326E1,3.194418192E0
9.518692559E0,8.590233326E-1,-1.092652512E1,2.801696301E0
9.528406205E0,1.268495083E0,-1.058166027E1,1.681257010E0
9.538118965E0,1.543669701E0,-1.004058266E1,-6.002993584E-1
9.547832663E0,1.543669701E0,-9.470791817E0,-3.650250912E0
9.557547090E0,1.038784146E0,-9.207581520E0,-5.941378593E0
9.567260684E0,6.430710852E-2,-9.296115875E0,-6.068497181E0
9.576973497E0,-1.211665511E0,-9.576076508E0,-4.830510616E0
9.586687195E0,-2.140678883E0,-9.834799767E0,-2.948854923E0
9.596401622E0,-2.312962294E0,-1.006690407E1,-1.165304661E0
9.606115215E0,-2.174178362E0,-1.006929684E1,5.324030295E-2
9.615828028E0,-1.946860313E0,-9.648159981E0,1.013360381E0
9.625541726E0,-1.692921996E0,-9.034998894E0,1.578365684E0
9.635256153E0,-1.470389485E0,-8.587541580E0,1.575972795E0
9.644969799E0,-1.288534999E0,-8.405387878E0,1.353440285E0
9.654682559E0,-1.226022482E0,-8.527720451E0,8.243274093E-1
9.664396257E0,-1.214058399E0,-8.767003059E0,3.215355575E-1
9.674110684E0,-1.115952611E0,-8.975178719E0,8.673982322E-2
9.683824330E0,-9.963115454E-1,-9.116654396E0,-2.093719877E-2
9.693537090E0,-8.742775917E-1,-9.186046600E0,-6.879365444E-2
9.703250788E0,-7.905287743E-1,-9.262616158E0,-1.381855011E-1
9.712965215E0,-7.522436380E-1,-9.394221306E0,-2.985046208E-1
9.722678861E0,-7.187440991E-1,-9.525827408E0,-4.495515525E-1
9.732391622E0,-6.562315822E-1,-9.609575272E0,-4.710869491E-1
9.742105320E0,-6.442674994E-1,-9.645767212E0,-4.519443810E-1
9.751819747E0,-6.972087026E-1,-9.662516594E0,-3.391826153E-1
9.761533393E0,-8.383852243E-1,-9.640981674E0,-2.171486616E-1
9.771246205E0,-1.048953652E0,-9.655338287E0,-1.166501045E-1
9.780959903E0,-1.274178028E0,-9.700801849E0,-2.506481707E-1
9.790674330E0,-1.661815286E0,-9.669695854E0,-7.606185079E-1
9.800387924E0,-2.088036776E0,-9.573683739E0,-1.505384564E0
9.810100736E0,-2.373081923E0,-9.432506561E0,-2.209173441E0
9.819814434E0,-2.363211393E0,-9.248259544E0,-2.666501760E0
9.829528861E0,-2.164607286E0,-9.066405296E0,-2.731107950E0
9.839242507E0,-1.870290041E0,-8.944071770E0,-2.257030010E0
9.848955268E0,-1.623530149E0,-8.896215439E0,-1.493121386E0
9.858668965E0,-1.537388563E0,-8.984749794E0,-7.773682475E-1
9.868383393E0,-1.357926846E0,-9.281759262E0,-3.272185028E-1
9.878097038E0,-9.412766099E-1,-9.688838005E0,-2.267199457E-1
9.887809851E0,-5.270192027E-1,-1.008126068E1,-2.985046208E-1
9.897523549E0,-2.231307179E-1,-1.027777100E1,-2.578266263E-1
9.907237976E0,1.884347759E-2,-1.022273636E1,-1.136590727E-2
9.916951622E0,1.528415531E-1,-1.012193871E1,3.095714152E-1
9.926664382E0,3.370888829E-1,-1.020598698E1,5.967101455E-1
9.936378080E0,6.293123364E-1,-1.049551868E1,7.812566161E-1
9.946092507E0,9.786644578E-1,-1.117059326E1,8.123632669E-1
9.955806153E0,1.275673628E0,-1.220728397E1,5.464608669E-1
9.965518965E0,1.292423368E0,-1.339950752E1,3.430709541E-1
9.975232663E0,1.093819022E0,-1.467099380E1,5.440680385E-1
9.984947090E0,7.657032609E-1,-1.563320732E1,8.362914920E-1
9.994660736E0,2.126621157E-1,-1.574806309E1,3.119642437E-1
1.000437355E1,-9.891330600E-1,-1.457737446E1,-1.481157184E0
1.001408725E1,-2.454437733E0,-1.293739414E1,-3.671786308E0
1.002380167E1,-3.651447296E0,-1.159681511E1,-5.862415314E0
1.003351532E1,-4.403092861E0,-1.068694401E1,-7.797012806E0
1.004322808E1,-5.099703312E0,-1.022512913E1,-8.759226799E0
1.005294178E1,-5.540281773E0,-1.023470020E1,-8.306982994E0
1.006265621E1,-5.470890045E0,-1.055055332E1,-6.588038921E0
1.007236985E1,-4.994419098E0,-1.093609715E1,-4.191328049E0
1.008208266E1,-4.360022068E0,-1.132403278E1,-1.981556296E0
1.009179636E1,-3.866801500E0,-1.158245754E1,-3.224328458E-1
1.010151079E1,-3.457329512E0,-1.166860008E1,7.115656137E-1
1.011122443E1,-3.304188967E0,-1.160399342E1,1.219143152E0
1.012093725E1,-3.356831074E0,-1.131924725E1,1.602293849E0
1.013065095E1,-3.517449379E0,-1.088584709E1,2.023729801E0
1.014036537E1,-3.792623997E0,-1.051466084E1,2.145763636E0
1.015007902E1,-4.000799656E0,-1.027298546E1,2.023729801E0
1.015979183E1,-4.285844326E0,-1.009322548E1,1.855933070E0
1.016950553E1,-4.388735771E0,-9.911370277E0,1.528116345E0
1.017921996E1,-4.051048756E0,-9.851550102E0,1.147358418E0
1.018893360E1,-3.811766386E0,-9.763015747E0,1.092323542E0
1.019864641E1,-3.933800459E0,-9.760622978E0,1.144965649E0
1.020836011E1,-3.967299938E0,-9.830014229E0,-1.333998591E-1
1.021807454E1,-3.957728624E0,-9.918548584E0,-5.285146832E-1
1.022778818E1,-3.816552162E0,-9.643374443E0,-9.882357717E-1
1.023750100E1,-2.983550787E0,-9.209974289E0,-1.136590719E0
1.024721470E1,-2.281855583E0,-8.800502777E0,-2.745763958E-1
1.025692912E1,-1.206879973E0,-8.465208054E0,-3.535395563E-1
1.026664277E1,-2.638086975E-1,-8.158926964E0,-7.821539044E-1
1.027635558E1,-9.870393202E-3,-7.950751305E0,-1.363908887E0
1.028606928E1,-5.150550604E-1,-7.636992455E0,-1.708774447E0
1.029578370E1,-1.470389485E0,-7.349554539E0,-1.385444283E0
1.030549735E1,-2.205285072E0,-7.134200573E0,-1.074377418E0
1.031521016E1,-2.648256540E0,-7.031309128E0,-7.725825906E-1
1.032492386E1,-2.945265532E0,-6.985845566E0,-6.457630396E-1
1.033463829E1,-3.009871721E0,-6.961917400E0,-5.907281041E-1
1.034435193E1,-2.913859844E0,-6.961917400E0,-6.337988973E-1
1.035406475E1,-2.700898647E0,-6.909275532E0,-6.529414654E-1
1.036377845E1,-2.483151674E0,-6.760621071E0,-5.596213937E-1
1.037349287E1,-2.300997972E0,-6.499803543E0,-2.051845491E-1
1.038320652E1,-2.078465462E0,-6.262914181E0,1.465603858E-1
1.039291933E1,-1.805384636E0,-6.111867428E0,4.794618487E-1
1.040263303E1,-1.518245935E0,-5.968297958E0,6.326025128E-1
1.041234746E1,-1.293320656E0,-5.922834396E0,4.339981973E-1
1.042206110E1,-1.120738268E0,-5.975476265E0,5.084748194E-2
1.043177391E1,-1.048953652E0,-6.140581131E0,-3.439682424E-1
1.044148761E1,-1.041775107E0,-6.439982891E0,-7.366902828E-1
1.045120204E1,-1.101595759E0,-6.851847649E0,-1.160519004E0
1.046091568E1,-1.250249863E0,-7.339983463E0,-1.849951029E0
1.047062850E1,-1.422533035E0,-7.830811024E0,-2.960819006E0
1.048034220E1,-1.630708575E0,-8.426922798E0,-4.651049137E0
1.049005662E1,-1.966002941E0,-9.200403214E0,-6.923034191E0
1.049977027E1,-2.449652195E0,-1.044048309E1,-9.465706825E0
1.050948308E1,-2.487937450E0,-1.236521053E1,-1.253480148E1
1.051919678E1,-1.472782373E0,-1.461565971E1,-1.562094402E1
1.052891120E1,-1.537388563E-1,-1.592303848E1,-1.629362679E1
1.053862485E1,2.150549293E-1,-1.528624821E1,-1.344945812E1
1.054833766E1,-6.514459848E-1,-1.369173145E1,-9.254839897E0
1.055805136E1,-1.829612017E0,-1.195125198E1,-5.728417397E0
1.056776579E1,-2.925823927E0,-1.007647514E1,-3.001496792E0
1.057747943E1,-3.493520975E0,-8.525327682E0,-9.954141974E-1
1.058719225E1,-3.634697676E0,-7.440781116E0,1.250249892E-1
1.059690595E1,-3.924229145E0,-7.282555580E0,6.041877344E-2
1.060662037E1,-4.570590496E0,-8.438887596E0,-8.060821295E-1
1.061633402E1,-4.695316315E0,-1.000229740E1,-8.635098934E-1
1.062604683E1,-4.235595226E0,-1.124955654E1,-1.572383523E0
1.063576053E1,-2.715255499E0,-1.199432278E1,-4.112364769E0
1.064547496E1,-1.618744493E0,-1.131206894E1,-7.502396107E0
1.065518865E1,-2.791825771E0,-1.025145054E1,-9.137591362E0
1.066490141E1,-4.520340919E0,-1.015065289E1,-7.954938889E0
1.067461511E1,-5.897111416E0,-1.085952663E1,-5.306981564E0
1.068432954E1,-4.467699051E0,-1.125673485E1,-2.460419893E0
1.069404324E1,-1.855933070E0,-1.066062355E1,-3.535395563E-1
1.070375600E1,-1.182951689E0,-9.190832138E0,1.173679471E0
1.071346975E1,-1.820040703E0,-7.593921661E0,2.064407825E0
1.072318417E1,-2.662613392E0,-6.538088799E0,2.030908108E0
1.073289782E1,-3.352045536E0,-6.104688644E0,1.573580027E0
1.074261058E1,-3.773481369E0,-6.087938786E0,1.066002488E0
1.075232428E1,-3.929014683E0,-6.243472576E0,9.798609018E-1
1.076203870E1,-4.031906128E0,-6.597909451E0,1.516152263E0
1.077175240E1,-4.348057747E0,-7.320840836E0,2.562413931E0
1.078146516E1,-4.805386066E0,-8.778966904E0,2.552842617E0
1.079117891E1,-4.541876316E0,-1.052901745E1,1.731506228E0
1.080089334E1,-3.447758436E0,-1.184327602E1,1.343868971E0
1.081060699E1,-1.937289000E0,-1.258564854E1,1.363011599E0
1.082031975E1,-6.801598072E-1,-1.282493114E1,1.511366606E0
1.083003345E1,-2.303091735E-1,-1.241306686E1,1.351047516E0
1.083974792E1,5.952146277E-2,-1.161835003E1,6.924230456E-1
1.084946157E1,6.532405615E-1,-1.079731274E1,-7.965108156E-1
1.085917433E1,1.412064433E0,-1.028495026E1,-2.077568293E0
1.086888803E1,1.531705618E0,-9.992726326E0,-2.982354403E0
1.087860246E1,1.323530078E0,-9.880263329E0,-3.207578659E0
1.088831610E1,8.518448472E-1,-9.655338287E0,-2.683251381E0
1.089802891E1,2.868396044E-1,-9.458827972E0,-1.814058661E0
1.090774261E1,-2.350948304E-1,-9.193224907E0,-9.810572863E-1
1.091745704E1,-6.227321029E-1,-8.884251595E0,-3.104687333E-1
1.092717068E1,-9.293124676E-1,-8.635397911E0,2.425723970E-1
1.093688350E1,-1.182951689E0,-8.407780647E0,6.708876491E-1
1.094659720E1,-1.357926846E0,-8.197212219E0,9.535398483E-1
1.095631162E1,-1.453639746E0,-8.168498039E0,9.894321561E-1
1.096602527E1,-1.453639746E0,-8.462815285E0,7.283154130E-1
1.097573808E1,-1.302891970E0,-8.934500694E0,2.449652255E-1
1.098545178E1,-9.556335211E-1,-9.566504478E0,-4.280161560E-1
1.099516620E1,-5.724828243E-1,-1.009561825E1,-1.124626637E0
1.100487985E1,-3.044866920E-1,-1.032802105E1,-1.715952992E0
1.101459266E1,-2.039881349E-1,-1.040219784E1,-2.077568293E0
1.102430636E1,-2.877369225E-1,-1.028734303E1,-1.993520379E0
1.103402079E1,-5.892325640E-1,-1.008843899E1,-1.596311808E0
1.104373443E1,-8.814560175E-1,-9.841979027E0,-1.217946768E0
1.105344725E1,-9.867402315E-1,-9.619445801E0,-8.587242365E-1
1.106316094E1,-9.939187169E-1,-9.296115875E0,-5.404788256E-1
1.107287537E1,-1.070489049E0,-8.960822105E0,-3.655036688E-1
1.108258897E1,-1.156630635E0,-8.735896111E0,-4.280161560E-1
1.109230178E1,-1.247856975E0,-8.666504860E0,-6.792625189E-1
1.110201548E1,-1.295713425E0,-8.692825317E0,-1.036092162E0
1.111172990E1,-1.348355532E0,-8.802895546E0,-1.361516118E0
1.112144355E1,-1.367498159E0,-8.991928101E0,-1.584347725E0
1.113115636E1,-1.422533035E0,-9.217152596E0,-1.672882080E0
1.114087006E1,-1.415354609E0,-9.420542717E0,-1.610668778E0
1.115058449E1,-1.322034478E0,-9.648159981E0,-1.373480201E0
1.116029813E1,-1.233201027E0,-9.767801285E0,-1.103091240E0
1.117001095E1,-1.101595759E0,-9.758230209E0,-9.065806866E-1
1.117972464E1,-9.843474030E-1,-9.633803368E0,-8.252246976E-1
1.118943907E1,-8.934201598E-1,-9.454042435E0,-8.611170650E-1
1.119915266E1,-8.096713424E-1,-9.174081802E0,-8.754739761E-1
1.120886548E1,-7.139584422E-1,-8.898608208E0,-7.510471940E-1
1.121857917E1,-6.059823632E-1,-8.810073853E0,-6.266204119E-1
1.122829360E1,-3.810569942E-1,-8.901000977E0,-4.232304990E-1
1.123800725E1,-1.489532143E-1,-9.018249512E0,-1.621137410E-1
1.124772006E1,9.302098304E-2,-9.157332420E0,1.417747438E-1
1.125743376E1,3.610171080E-1,-9.506684303E0,5.321039557E-1
1.126714818E1,6.556333899E-1,-1.011715317E1,1.034895778E0
1.127686183E1,9.954141974E-1,-1.114187908E1,1.334297776E0
1.128657459E1,1.072283626E0,-1.231974602E1,1.185643673E0
1.129628829E1,9.738788009E-1,-1.359841156E1,9.511470199E-1
1.130600272E1,8.374879360E-1,-1.486242008E1,9.655039310E-1
1.131571636E1,8.183453679E-1,-1.581536102E1,1.042074203E0
1.132542917E1,7.369893789E-1,-1.614317703E1,8.291130662E-1
1.133514287E1,6.669992954E-2,-1.567149258E1,-1.794616925E-3
1.134485730E1,-1.111167073E0,-1.474277878E1,-1.773380637E0
1.135457089E1,-2.291426897E0,-1.382094383E1,-4.804189682E0
1.136428370E1,-3.596412420E0,-1.299990654E1,-8.419445992E0
1.137399740E1,-4.879563808E0,-1.234367466E1,-1.110090256E1
1.138371183E1,-5.796612740E0,-1.179063320E1,-1.165155029E1
1.139342548E1,-6.045466423E0,-1.144845963E1,-9.597312927E0
1.140313824E1,-5.547460079E0,-1.144845963E1,-6.307779789E0
1.141285193E1,-4.939383984E0,-1.159442234E1,-3.458825111E0
1.142256636E1,-4.747958183E0,-1.153699398E1,-1.411765337E0
1.143228001E1,-4.683351994E0,-1.118016434E1,-8.793623000E-2
1.144199277E1,-4.841278553E0,-1.056251717E1,7.740781307E-1
1.145170647E1,-5.003990173E0,-1.001426220E1,1.418046474E0
1.146142089E1,-5.018347263E0,-9.820443153E0,1.793719649E0
1.147113454E1,-5.063810825E0,-9.887442589E0,1.966302037E0
1.148084735E1,-4.764708042E0,-9.952048302E0,2.217548370E0
1.149056100E1,-4.458127499E0,-1.002622604E1,2.358724833E0
1.150027542E1,-4.319344044E0,-1.005733299E1,2.595913410E0
1.150998907E1,-4.474877357E0,-9.820443153E0,2.701197624E0
1.151970188E1,-4.913063049E0,-9.782157898E0,2.564806700E0
1.152941558E1,-5.250750065E0,-9.856335640E0,3.749852180E0
1.153913001E1,-5.001597404E0,-9.973584175E0,2.650948286E0
1.154884360E1,-4.240380764E0,-1.031844902E1,1.453938842E0
1.155855641E1,-3.586841106E0,-1.026580715E1,-6.529414654E-1
1.156827011E1,-2.825325251E0,-9.801301003E0,-2.994318485E0
1.157798449E1,-2.090429783E0,-9.257830620E0,-4.524229527E0
1.158769813E1,-9.987043738E-1,-8.850751877E0,-5.299803257E0
1.159741094E1,6.221339107E-1,-8.764610291E0,-5.383552074E0
1.160712464E1,1.141675472E0,-8.577970505E0,-4.124329090E0
1.161683902E1,1.112961650E0,-8.247461319E0,-2.484348059E0
1.162655266E1,7.633104324E-1,-7.857132435E0,-2.003988922E-1
1.163626548E1,8.344969153E-2,-7.395317554E0,1.755434513E0
1.164597912E1,-4.671986103E-1,-7.040880680E0,2.416152716E0
1.165569355E1,-1.307677627E0,-6.782156467E0,1.449153185E0
1.166540720E1,-2.083251238E0,-6.509375095E0,7.238288224E-2
1.167512001E1,-2.241177559E0,-6.349055767E0,-1.155733347E0
1.168483365E1,-2.078465462E0,-6.245865345E0,-1.816451430E0
1.169454808E1,-2.040180445E0,-6.013761520E0,-1.888236165E0
1.170426173E1,-2.128714800E0,-5.688038349E0,-1.454836130E0
1.171397449E1,-2.320140600E0,-5.317151070E0,-8.084749579E-1
1.172368818E1,-2.397010088E0,-4.977071285E0,-6.400800496E-2
1.173340261E1,-2.339283228E0,-4.725824833E0,6.158527136E-1
1.174311626E1,-2.178964138E0,-4.634897232E0,9.583254457E-1
1.175282902E1,-1.989931107E0,-4.687539577E0,8.697910309E-1
1.176254272E1,-1.812862277E0,-4.843072891E0,4.986044168E-1
1.177225714E1,-1.834397674E0,-5.084748268E0,-3.768695518E-2
1.178197074E1,-1.985145450E0,-5.542076111E0,-8.635098934E-1
1.179168355E1,-2.119143486E0,-6.253343105E0,-2.154138565E0
1.180139725E1,-2.123929262E0,-7.258627415E0,-3.782155275E0
1.181111162E1,-2.363211393E0,-8.486743927E0,-5.742774487E0
1.182082527E1,-3.299403429E0,-9.932906151E0,-8.388339043E0
1.183053808E1,-4.680959225E0,-1.169013500E1,-1.157946682E1
1.184025173E1,-5.909075737E0,-1.381855106E1,-1.442154217E1
1.184996615E1,-5.906682491E0,-1.605942917E1,-1.580279922E1
1.185967980E1,-4.704887390E0,-1.712244034E1,-1.538614845E1
1.186939256E1,-3.395116329E0,-1.560210133E1,-1.298016548E1
1.187910626E1,-2.011466503E0,-1.298285770E1,-9.580562592E0
1.188882063E1,-1.223629713E0,-1.021795082E1,-6.188138485E0
1.189853428E1,-1.417747378E0,-8.213961601E0,-3.291327477E0
1.190824709E1,-2.183749676E0,-7.328019142E0,-1.050449133E0
1.191796074E1,-3.438187122E0,-8.130212784E0,-4.007977992E-2
1.192767516E1,-4.657031059E0,-1.061515903E1,5.982056609E-4
1.193738881E1,-4.063312054E0,-1.287278748E1,-6.879365444E-2
1.194710157E1,-2.162214279E0,-1.429980755E1,-3.607180119E-1
1.195681527E1,-5.150550604E-1,-1.519502163E1,-3.542573929E0
1.196652964E1,6.628118753E-1,-1.513520145E1,-8.369195938E0
1.197624329E1,7.489534616E-1,-1.341386509E1,-9.448957443E0
1.198595605E1,-5.054838061E-1,-1.052662468E1,-5.230411053E0
1.199566975E1,-1.930110574E0,-7.620242596E0,-6.194419861E-1
1.200538417E1,-2.875574589E0,-5.106283665E0,6.349952817E-1
1.201509777E1,-3.952943087E0,-3.672384501E0,3.409772366E-2
1.202481058E1,-4.901099205E0,-3.705883980E0,1.058823988E-1
1.203452423E1,-5.640780449E0,-4.790431023E0,5.201398134E-1
1.204423865E1,-6.267998695E0,-6.126224041E0,8.075776696E-1
1.205395230E1,-6.751648426E0,-7.251449108E0,1.061216831E0
1.206366506E1,-6.854539394E0,-8.158926964E0,1.097109199E0
1.207337876E1,-6.454938412E0,-8.922536850E0,1.085145116E0
1.208309313E1,-5.415854931E0,-9.650552750E0,1.118644595E0
1.209280678E1,-4.113561153E0,-1.037587738E1,1.152144074E0
1.210251954E1,-3.024228811E0,-1.113948631E1,1.231107235E0
1.211223324E1,-1.975574136E0,-1.165902805E1,1.389332652E0
1.212194761E1,-9.125627279E-1,-1.181216908E1,1.573580027E0
1.213166126E1,1.645065658E-2,-1.158724403E1,2.057229280E0
1.214137402E1,5.670989752E-1,-1.104377365E1,2.741875648E0
1.215108772E1,8.111668825E-1,-1.053619671E1,3.294916868E0
1.216080214E1,9.427721500E-1,-1.019162941E1,3.376272678E0
1.217051574E1,1.352243900E0,-9.899406433E0,2.284547329E0
1.218022850E1,1.957927108E0,-9.863513947E0,-1.333998591E-1
1.218994220E1,2.439183474E0,-1.005015373E1,-3.082852840E0
1.219965662E1,2.484647274E0,-1.028734303E1,-5.034199715E0
1.220937022E1,2.036890268E0,-1.021077251E1,-5.029414177E0
1.221908298E1,9.690931439E-1,-9.846764565E0,-3.959224224E0
1.222879667E1,-2.566302419E-1,-9.530612946E0,-2.448455811E0
1.223851110E1,-1.214058399E0,-9.324830055E0,-1.091127157E0
1.224822470E1,-1.692921996E0,-9.200403214E0,-1.788634956E-1
1.225793746E1,-1.977967024E0,-8.953642845E0,4.674977362E-1
1.226765115E1,-2.040180445E0,-8.697610855E0,6.972087026E-1
1.227736553E1,-1.865504384E0,-8.635397911E0,5.225326419E-1
1.228707917E1,-1.616351724E0,-8.692825317E0,8.195417374E-2
1.229679193E1,-1.384247899E0,-8.824430466E0,-3.825525343E-1
1.230650563E1,-1.190130115E0,-9.018249512E0,-7.342974544E-1
1.231622001E1,-1.041775107E0,-9.154939651E0,-7.749754190E-1
1.232593365E1,-8.168498278E-1,-9.341579437E0,-7.007979155E-1
1.233564641E1,-6.753742099E-1,-9.561718941E0,-6.649056077E-1
1.234536011E1,-6.610172391E-1,-9.703194618E0,-5.667998791E-1
1.235507449E1,-7.163512707E-1,-9.743872643E0,-4.423730969E-1
1.236478808E1,-7.809575200E-1,-9.684052467E0,-3.056831062E-1
1.237450089E1,-8.264211416E-1,-9.544969559E0,-2.195414752E-1
1.238421454E1,-8.886345029E-1,-9.346364975E0,-1.429711580E-1
1.239392896E1,-9.963115454E-1,-9.205188751E0,-6.640082598E-2
1.240364256E1,-1.166201949E0,-9.138189316E0,-8.075776696E-2
1.241335532E1,-1.379462242E0,-9.217152596E0,-2.841476798E-1
1.242306902E1,-1.657029629E0,-9.365508080E0,-7.725825906E-1
1.243278339E1,-2.009073734E0,-9.449256897E0,-1.534098387E0
1.244249704E1,-2.289033890E0,-9.451649666E0,-2.367099762E0
1.245220980E1,-2.344068766E0,-9.310472488E0,-3.027817965E0
1.246192344E1,-2.186142683E0,-9.183652878E0,-3.241078377E0
1.247163787E1,-1.839183331E0,-9.090332985E0,-2.877070189E0
1.248135147E1,-1.348355532E0,-9.068798065E0,-2.206780672E0
1.249106428E1,-8.742775917E-1,-9.174081802E0,-1.500598907E0
1.250077792E1,-5.892325640E-1,-9.401400566E0,-9.065806866E-1
1.251049235E1,-4.432703853E-1,-9.669695854E0,-4.375874400E-1
1.252020594E1,-2.781656384E-1,-9.975976944E0,-1.262213886E-1
1.252991870E1,4.995017126E-2,-1.017966557E1,1.226321608E-1
1.253963240E1,3.490529954E-1,-1.022273636E1,3.622135222E-1
1.254934678E1,5.024927258E-1,-1.011954594E1,5.536393523E-1
1.255906037E1,6.269195080E-1,-1.006690407E1,6.972087026E-1
1.256877318E1,7.441678643E-1,-1.015065289E1,8.937192559E-1
1.257848683E1,9.188438654E-1,-1.051466084E1,1.075573802E0
1.258820120E1,9.714859724E-1,-1.132403278E1,1.133001566E0
1.259791485E1,8.207381964E-1,-1.231496048E1,1.104287624E0
1.260762761E1,4.351946115E-1,-1.339950752E1,9.008977413E-1
1.261734126E1,1.576271951E-1,-1.435962772E1,8.027920127E-1
1.262705568E1,4.486542661E-3,-1.495095444E1,7.980063558E-1
1.263676928E1,-1.585244983E-1,-1.512084484E1,6.278168559E-1
1.264648204E1,-3.547359705E-1,-1.485284805E1,5.802594870E-2
1.265619574E1,-5.341976285E-1,-1.427348614E1,-8.371888399E-1
1.266591011E1,-1.132702470E0,-1.355294704E1,-2.000698805E0
1.267562371E1,-2.734398127E0,-1.300708485E1,-4.086043835E0
1.268533646E1,-4.934598446E0,-1.252343559E1,-7.339684486E0
1.269505016E1,-6.902695179E0,-1.194407368E1,-1.068903828E1
1.270476454E1,-7.742875099E0,-1.123041439E1,-1.181904793E1
1.271447818E1,-7.122834682E0,-1.071087265E1,-9.872487068E0
1.272419094E1,-5.844469070E0,-1.063190937E1,-6.353243351E0
1.273390459E1,-4.824528694E0,-1.076620674E1,-3.078067303E0
1.274361897E1,-4.180560112E0,-1.070369434E1,-7.103692293E-1
1.275333261E1,-4.170989037E0,-1.036391354E1,8.003991842E-1
1.276304537E1,-4.553840637E0,-9.889835358E0,1.659721613E0
1.277275902E1,-4.879563808E0,-9.576076508E0,2.040479422E0
1.278247344E1,-4.791028976E0,-9.544969559E0,2.246262312E0
1.279218704E1,-4.333701134E0,-9.705587387E0,2.469093800E0
1.280189980E1,-4.118346691E0,-9.698409081E0,2.717947483E0
1.281161344E1,-3.845266104E0,-9.755837440E0,3.031706333E0
1.282132787E1,-3.457329512E0,-9.839586258E0,2.782553673E0
1.283104146E1,-3.486043453E0,-9.715159416E0,2.375474691E0
1.284075423E1,-3.534198999E0,-9.774979591E0,3.034099102E0
1.285046787E1,-3.649054527E0,-9.935298920E0,2.265404940E0
1.286018230E1,-3.335295677E0,-1.047398281E1,1.343868971E0
1.286989589E1,-2.629113913E0,-1.075184917E1,-1.764706671E-1
1.287960865E1,-1.759921074E0,-1.056490993E1,-2.197209358E0
1.288932230E1,-1.135095239E0,-1.008604622E1,-3.753441334E0
1.289903673E1,-6.972087026E-1,-9.657731056E0,-3.937688828E0
1.290875032E1,2.605185509E-1,-9.418149948E0,-3.456432343E0
1.291846308E1,7.824530005E-1,-9.051749229E0,-3.056531906E0
1.292817673E1,6.556333899E-1,-8.621041298E0,-2.422134638E0
1.293789115E1,5.072783828E-1,-8.264211655E0,-1.258624673E0
1.294760475E1,2.123630047E-2,-7.845168114E0,-3.032902777E-1
1.295731751E1,-4.384847581E-1,-7.459923744E0,4.603192508E-1
1.296703115E1,-7.522436380E-1,-7.280162811E0,3.000001311E-1
1.297674553E1,-1.460818172E0,-6.983452797E0,-3.343969584E-1
1.298645917E1,-1.848754644E0,-6.669693947E0,-1.048056364E0
1.299617193E1,-1.812862277E0,-6.408876419E0,-1.380658627E0
1.300588558E1,-1.783849239E0,-6.056832314E0,-1.395015597E0
1.301559996E1,-1.836790442E0,-5.738586903E0,-1.129412293E0
1.302531355E1,-1.966002941E0,-5.410470963E0,-7.701897621E-1
1.303502636E1,-2.162214279E0,-5.082355499E0,-3.535395563E-1
1.304474001E1,-2.399402857E0,-4.795216560E0,8.434699476E-2
1.305445438E1,-2.607578516E0,-4.663611412E0,4.914259613E-1
1.306416798E1,-2.791825771E0,-4.654039860E0,6.421737671E-1
1.307388074E1,-2.985943556E0,-4.764110088E0,4.579264224E-1
1.308359438E1,-3.119941711E0,-5.010570526E0,2.090728730E-1
1.309330881E1,-3.182155132E0,-5.472684383E0,-3.152543902E-1
1.310302240E1,-3.208476067E0,-6.126224041E0,-1.485942841E0
1.311273516E1,-3.124727249E0,-7.026523590E0,-3.260220766E0
1.312244881E1,-2.962015390E0,-8.324031830E0,-5.651846886E0
1.313216318E1,-3.096013308E0,-9.985548019E0,-8.390731812E0
1.314187678E1,-3.605983734E0,-1.197996521E1,-1.133539867E1
1.315158954E1,-4.132703781E0,-1.408415413E1,-1.394028568E1
1.316130324E1,-3.912265062E0,-1.589432430E1,-1.493360615E1
1.317101761E1,-2.691327333E0,-1.649761391E1,-1.442632771E1
1.318073120E1,-1.740778446E0,-1.521895027E1,-1.280788231E1
1.319044396E1,-1.616351724E0,-1.325833130E1,-1.026042366E1
1.320015761E1,-2.088036776E0,-1.108205891E1,-7.114758968E0
1.320987204E1,-2.758326292E0,-8.979964256E0,-3.746263027E0
1.321958563E1,-3.148655415E0,-7.495816231E0,-6.433702111E-1
1.322929839E1,-3.550948858E0,-7.196413994E0,8.243274093E-1
1.323901204E1,-4.793421745E0,-8.719146729E0,4.603192508E-1
1.324872641E1,-5.257928848E0,-1.085234833E1,2.114657015E-1
1.325844001E1,-3.507878065E0,-1.247318649E1,3.023929596E-1
1.326815277E1,-7.211369276E-1,-1.334925842E1,-1.548455358E0
1.327786641E1,1.144068360E0,-1.265264797E1,-5.659025669E0
1.328758079E1,6.556333899E-1,-1.044526863E1,-8.189435959E0
1.329729443E1,-1.963610053E0,-8.173283577E0,-6.975676060E0
1.330700714E1,-5.782256126E0,-6.262914181E0,-3.973581076E0
1.331672084E1,-8.006384850E0,-5.039284706E0,-1.900200248E0
1.332643522E1,-7.412366390E0,-5.185545921E0,-1.387837172E0
1.333614881E1,-5.420640469E0,-6.411269188E0,-6.672984362E-1
1.334586157E1,-4.180560112E0,-7.718348503E0,6.565307379E-1
1.335557522E1,-4.111168385E0,-8.534899712E0,1.384546995E0
1.336528959E1,-4.534698009E0,-8.719146729E0,1.372582912E0
1.337500318E1,-4.680959225E0,-8.783752441E0,9.655039310E-1
1.338471594E1,-4.340879440E0,-8.956035614E0,6.445665956E-1
1.339442959E1,-3.625126362E0,-9.456435204E0,7.115656137E-1
1.340414402E1,-2.966800928E0,-1.020598698E1,1.039681435E0
1.341385761E1,-2.411366940E0,-1.091934681E1,1.355833173E0
1.342357037E1,-1.673779488E0,-1.144367409E1,1.339083314E0
1.343328402E1,-8.455637097E-1,-1.160399342E1,1.358225942E0
1.344299839E1,-2.183450572E-2,-1.142692471E1,1.549651742E0
1.345271199E1,6.795616150E-1,-1.115145111E1,1.939980984E0
1.346242475E1,1.124925733E0,-1.077817059E1,2.198405743E0
1.347213839E1,1.493420482E0,-1.043569756E1,1.753041744E0
1.348185277E1,1.931606054E0,-1.013868904E1,3.526422381E-1
1.349156636E1,2.599502802E0,-9.997511864E0,-1.816451430E0
1.350127912E1,2.760120869E0,-1.010758209E1,-3.580859184E0
1.351099277E1,2.333899498E0,-1.037109184E1,-4.009473324E0
1.352070714E1,1.328315616E0,-1.052662468E1,-3.226721287E0
1.353042074E1,5.473581702E-2,-1.055055332E1,-2.103889227E0
1.354013350E1,-1.154237866E0,-1.039262676E1,-1.098305583E0
1.354984714E1,-2.121536493E0,-1.005972576E1,-5.907281041E-1
1.355956152E1,-2.471187592E0,-9.597611427E0,-4.615156651E-1
1.356927511E1,-2.296212435E0,-9.116654396E0,-4.543372095E-1
1.357898787E1,-2.080858469E0,-8.652147293E0,-6.170491576E-1
1.358870152E1,-1.894218206E0,-8.228319168E0,-9.233304262E-1
1.359841589E1,-1.812862277E0,-7.900203228E0,-1.182054400E0
1.360812954E1,-1.858325839E0,-7.790132999E0,-1.383051515E0
1.361784225E1,-1.795813441E0,-7.984251022E0,-1.387837172E0
1.362755589E1,-1.513460279E0,-8.477172852E0,-1.208375454E0
1.363727032E1,-1.096810102E0,-8.941679001E0,-8.300103545E-1
1.364698391E1,-8.718847632E-1,-9.241081238E0,-3.945166469E-1
1.365669662E1,-8.048857450E-1,-9.382257462E0,-1.764706671E-1
1.366641027E1,-6.681957245E-1,-9.521040916E0,-8.793623000E-2
1.367612464E1,-5.916253924E-1,-9.583254814E0,-1.597209126E-1
1.368583829E1,-5.748756528E-1,-9.588040352E0,-3.320041299E-1
1.369555100E1,-4.959124923E-1,-9.530612946E0,-4.782654345E-1
1.370526464E1,-4.719842672E-1,-9.379864693E0,-5.165506005E-1
1.371497902E1,-4.983053207E-1,-9.198010445E0,-5.380859971E-1
1.372469261E1,-5.844469070E-1,-9.138189316E0,-6.146563292E-1
1.373440537E1,-8.670991063E-1,-9.250652313E0,-8.228318691E-1
1.374411902E1,-1.338784218E0,-9.492327690E0,-1.277767301E0
1.375383339E1,-1.767099500E0,-9.667302132E0,-1.995913148E0
1.376354699E1,-2.126322031E0,-9.700801849E0,-2.831606388E0
1.377325975E1,-2.281855583E0,-9.650552750E0,-3.501895905E0
1.378297339E1,-2.272284269E0,-9.578469276E0,-3.815654755E0
1.379268777E1,-2.095215321E0,-9.511469841E0,-3.688536167E0
1.380240136E1,-1.707278967E0,-9.449256897E0,-2.896212816E0
1.381211412E1,-1.441675663E0,-9.451649666E0,-1.888236165E0
1.382182777E1,-1.444068432E0,-9.415757179E0,-1.031306505E0
1.383154214E1,-1.487139225E0,-9.334401131E0,-4.878367186E-1
1.384125574E1,-1.360319614E0,-9.205188751E0,-1.525424421E-1
1.385096850E1,-1.127916813E0,-9.174081802E0,-1.794616925E-3
1.386068214E1,-7.091727853E-1,-9.238688469E0,1.130608693E-1
1.387039652E1,-3.475574851E-1,-9.365508080E0,2.760719061E-1
1.388011011E1,-1.223330572E-1,-9.564111710E0,5.488536954E-1
1.388982282E1,1.217348501E-1,-9.897013664E0,8.697910309E-1
1.389953646E1,4.208376706E-1,-1.026580715E1,1.147358418E0
1.390925084E1,7.058826685E-1,-1.068455124E1,1.288534999E0
1.391896443E1,7.417750359E-1,-1.130219841E1,1.202393413E0
1.392867720E1,5.240281820E-1,-1.197039413E1,9.559326172E-1
1.393839084E1,1.887338907E-1,-1.265264797E1,8.147560954E-1
1.394810522E1,-1.513460279E-1,-1.325115299E1,7.621139884E-1
1.395781881E1,-2.063809484E-1,-1.361516094E1,5.273182988E-1
1.396753157E1,-2.973082066E-1,-1.378744411E1,-1.190429255E-1
1.397724522E1,-8.575277925E-1,-1.383051491E1,-1.488335729E0
1.398695959E1,-1.740778446E0,-1.378026581E1,-3.437289715E0
1.399667318E1,-2.504687071E0,-1.363908863E1,-5.491528034E0
1.400638589E1,-2.820539713E0,-1.365344620E1,-6.987640381E0
1.401609954E1,-2.813361168E0,-1.358883953E1,-7.413861752E0
1.402581391E1,-2.672184706E0,-1.310519028E1,-6.503991127E0
1.403552751E1,-2.732005358E0,-1.245643616E1,-4.950450897E0
1.404524027E1,-2.911466837E0,-1.181216908E1,-3.477967739E0
1.405495391E1,-3.026621580E0,-1.117298603E1,-2.357528448E0
1.406466829E1,-3.091227770E0,-1.048355389E1,-1.538884044E0
1.407438188E1,-3.198904753E0,-9.696016312E0,-9.379864931E-1
1.408409459E1,-3.438187122E0,-8.948857307E0,-4.160520434E-1
1.409380824E1,-3.773481369E0,-8.489136696E0,6.999006122E-2
1.410352261E1,-4.170989037E0,-8.410173416E0,5.847460628E-1
1.411323621E1,-4.376771927E0,-8.666504860E0,1.022931695E0
1.412294896E1,-4.149453640E0,-9.135796547E0,1.188036442E0
1.413266261E1,-3.768695593E0,-9.717552185E0,1.142572761E0
1.414237699E1,-3.589233875E0,-1.018445110E1,1.211964726E0
1.415209058E1,-3.773481369E0,-1.040219784E1,1.235892892E0
1.416180329E1,-4.053740501E0,-1.046919727E1,1.233500123E0
1.417151693E1,-4.206881523E0,-1.048116112E1,1.032503009E0
1.418123131E1,-4.182952881E0,-1.047398281E1,1.564008713E0
1.419094490E1,-3.780659676E0,-1.044766140E1,3.359523058E0
1.420065761E1,-3.206083298E0,-1.023470020E1,1.113858938E0
1.421037126E1,-2.119143486E0,-9.813264847E0,-7.630113363E-1
1.422008563E1,-6.299105883E-1,-9.662516594E0,-2.290529490E0
1.422979923E1,4.256233275E-1,-9.410971642E0,-4.248755932E0
1.423951199E1,1.811964989E0,-9.212367058E0,-4.842474937E0
1.424922563E1,2.231008053E0,-8.767003059E0,-4.239184380E0
1.425894001E1,1.933998942E0,-8.276175499E0,-2.743072033E0
1.426865355E1,1.182353497E0,-7.732705593E0,-1.069591761E0
1.427836631E1,5.766702294E-1,-7.227520943E0,1.752742529E-1
1.428807996E1,1.241276711E-1,-6.899703979E0,8.578268886E-1
1.429779433E1,-3.595215976E-1,-6.707979202E0,8.865407705E-1
1.430750792E1,-1.333998680E0,-6.408876419E0,-1.549352705E-1
1.431722063E1,-1.781456470E0,-6.459125519E0,-8.324031830E-1
1.432693428E1,-1.484746456E0,-6.798906326E0,-4.663013220E-1
1.433664865E1,-1.731207132E0,-6.878168583E0,-9.523434043E-1
1.434636225E1,-1.982752681E0,-6.703193665E0,-1.277767301E0
1.435607496E1,-2.186142683E0,-6.416054726E0,-1.194018483E0
1.436578860E1,-2.339283228E0,-6.181259155E0,-8.228318691E-1
1.437550298E1,-2.435295343E0,-5.977869034E0,-3.726821244E-1
1.438521657E1,-2.509472847E0,-5.839085579E0,1.495514158E-2
1.439492928E1,-2.614757061E0,-5.707480431E0,2.712862790E-1
1.440464292E1,-2.674577475E0,-5.712265968E0,2.952145040E-1
1.441435730E1,-2.700898647E0,-5.968297958E0,1.923231184E-1
1.442407089E1,-2.636292458E0,-6.466304302E0,-3.290131316E-2
1.443378365E1,-2.459223509E0,-7.189235687E0,-7.007979155E-1
1.444349725E1,-2.195713997E0,-7.979465485E0,-2.359921217E0
1.445321162E1,-1.680957913E0,-8.975178719E0,-5.012664318E0
1.446292522E1,-1.343569875E0,-1.038784122E1,-8.033902168E0
1.447263798E1,-1.525424480E0,-1.213789177E1,-1.061964607E1
1.448235157E1,-1.832004786E0,-1.397647667E1,-1.237208939E1
1.449206594E1,-1.759921074E0,-1.520220089E1,-1.264487171E1
1.450177954E1,-1.491924882E0,-1.499881077E1,-1.182622719E1
1.451149230E1,-1.357926846E0,-1.339950752E1,-9.980463028E0
1.452120589E1,-1.317248821E0,-1.169731331E1,-7.569395542E0
1.453092027E1,-1.520638824E0,-1.026580715E1,-5.031806946E0
1.454063386E1,-1.752742529E0,-9.162117958E0,-2.668894529E0
1.455034662E1,-1.815255046E0,-8.496614456E0,-9.547362328E-1
1.456006022E1,-1.783849239E0,-8.419744492E0,-3.290131316E-2
1.456977459E1,-2.243570328E0,-9.128618240E0,4.366901144E-2
1.457948818E1,-3.294617653E0,-1.101027393E1,-6.290132403E-1
1.458920089E1,-4.048655987E0,-1.343300724E1,-1.627418518E0
1.459891454E1,-3.905086517E0,-1.520459366E1,-3.020639420E0
1.460862891E1,-2.724826813E0,-1.582971859E1,-5.165804863E0
1.461834251E1,-1.398604870E0,-1.455823231E1,-6.465705872E0
1.462805522E1,-1.695314884E0,-1.147478104E1,-5.338088036E0
1.463776886E1,-2.703291416E0,-8.506185532E0,-2.829213619E0
1.464748324E1,-3.253939629E0,-6.428019047E0,-4.447658956E-1
1.465719678E1,-3.368795156E0,-5.266901970E0,1.027717352E0
1.466690954E1,-3.378366470E0,-5.010570526E0,1.669292927E0
1.467662318E1,-3.344866991E0,-5.640182018E0,1.659721613E0
1.468633756E1,-3.761517286E0,-6.820741177E0,1.223928809E0
1.469605110E1,-4.319344044E0,-8.204390526E0,7.621139884E-1
1.470576386E1,-4.484448910E0,-9.420542717E0,6.517450809E-1
1.471547746E1,-4.202095509E0,-1.014586735E1,7.139584422E-1
1.472519183E1,-3.596412420E0,-1.044287586E1,8.554341197E-1
1.473490542E1,-3.052942514E0,-1.036630630E1,9.846464992E-1
1.474461818E1,-2.617149830E0,-1.008126068E1,1.037288666E0
1.475433178E1,-2.102393866E0,-9.997511864E0,1.336690545E0
1.476404615E1,-1.420140266E0,-1.016261673E1,1.666900039E0
1.477375975E1,-6.514459848E-1,-1.052423191E1,1.686042666E0
1.478347246E1,3.798605874E-2,-1.089063358E1,1.753041744E0
1.479318610E1,4.809573591E-1,-1.101505947E1,2.105085611E0
1.480290048E1,6.077769399E-1,-1.098873901E1,2.339582443E0
1.481261402E1,7.704889178E-1,-1.088824081E1,1.760220170E0
1.482232678E1,1.165603757E0,-1.069412231E1,6.999006122E-2
1.483204037E1,1.570289850E0,-1.042373371E1,-2.450848579E0
1.484175475E1,1.462313771E0,-1.002861881E1,-4.909772873E0
1.485146834E1,7.489534616E-1,-9.540184021E0,-6.214459419E0
1.486118105E1,-2.757728100E-1,-9.195617676E0,-6.042176247E0
1.487089470E1,-1.197308660E0,-9.207581520E0,-4.869094849E0
1.488060907E1,-1.702493310E0,-9.516255379E0,-3.351148129E0
1.489032261E1,-1.802991867E0,-9.667302132E0,-1.881057739E0
1.490003537E1,-1.824826360E0,-9.487542152E0,-7.199404836E-1
1.490974902E1,-1.752742529E0,-9.116654396E0,1.704886109E-1
1.491946334E1,-1.633101463E0,-8.819644928E0,7.501499057E-1
1.492917693E1,-1.496710539E0,-8.625826836E0,1.034895778E0
1.493888964E1,-1.360319614E0,-8.582756042E0,9.750752449E-1
1.494860329E1,-1.237986565E0,-8.606683731E0,6.948158741E-1
1.495831766E1,-1.182951689E0,-8.709575653E0,4.818546474E-1
1.496803120E1,-1.108774185E0,-8.834002495E0,3.933202326E-1
1.497774396E1,-1.075274706E0,-8.984749794E0,4.363910258E-1
1.498745756E1,-7.905287743E-1,-9.207581520E0,5.273182988E-1
1.499717193E1,-4.648058116E-1,-9.494720459E0,4.962115884E-1
1.500688553E1,-3.212364316E-1,-9.655338287E0,3.622135222E-1
1.501659824E1,-2.350948304E-1,-9.691230774E0,2.497508675E-1
1.502631188E1,-2.685943544E-1,-9.626625061E0,2.258226424E-1
1.503602626E1,-4.049852192E-1,-9.583254814E0,2.449652255E-1
1.504573980E1,-6.107679605E-1,-9.638588905E0,2.449652255E-1
1.505545256E1,-9.460622668E-1,-9.765408516E0,1.495514158E-2
1.506516615E1,-1.362712502E0,-9.940084457E0,-5.859424472E-1
