"Time (s)","Acceleration x (m/s^2)","Acceleration y (m/s^2)","Acceleration z (m/s^2)"
5.668553000E-2,-4.745565414E0,-6.080760479E0,-4.469194412E0
6.639870700E-2,-4.513162613E0,-6.418447495E0,-4.186542511E0
7.611099800E-2,-3.921836376E0,-6.686443806E0,-4.141078472E0
8.582256100E-2,-2.796611547E0,-6.770192623E0,-4.157828331E0
9.553490500E-2,-1.398604870E0,-6.808477879E0,-4.462016106E0
1.052481340E-1,1.169492081E-1,-6.842276573E0,-4.648656368E0
1.149604260E-1,5.814558864E-1,-6.791728020E0,-4.493122578E0
1.246720400E-1,-1.827219248E0,-6.279664040E0,-4.150650024E0
1.343843840E-1,-4.216452599E0,-5.721837044E0,-3.667000771E0
1.440975610E-1,-4.783850670E0,-5.604289532E0,-3.353540897E0
1.538099050E-1,-4.599304199E0,-5.726622581E0,-3.343969584E0
1.635214670E-1,-3.840480328E0,-5.760122299E0,-4.098007679E0
1.732338110E-1,-3.320938826E0,-5.168796062E0,-5.397908688E0
1.829470400E-1,-2.954836845E0,-4.857429981E0,-5.431707382E0
1.926593320E-1,-2.720041037E0,-4.902893543E0,-4.162613869E0
2.023708940E-1,-2.336890459E0,-6.042475224E0,-3.020639420E0
2.120832380E-1,-2.492722988E0,-6.344270229E0,-2.628216505E0
2.217964670E-1,-2.140678883E0,-6.849454880E0,-2.587239504E0
2.315087590E-1,-1.554138303E0,-7.873881817E0,-2.326421738E0
2.412203210E-1,-2.071287155E0,-8.443673134E0,-2.079961061E0
2.509326650E-1,-3.148655415E0,-8.735896111E0,-1.476371527E0
2.606458940E-1,-4.319344044E0,-9.049356461E0,-8.826524615E-1
2.703581860E-1,-5.691029549E0,-9.262616158E0,-1.421336651E0
2.800697480E-1,-6.481259346E0,-8.496614456E0,-2.596810818E0
2.897821960E-1,-5.602495193E0,-8.585148811E0,-2.893819809E0
2.994953210E-1,-4.733601570E0,-9.092725754E0,-2.386242390E0
3.092076130E-1,-4.494019985E0,-9.540184021E0,-1.591526151E0
3.189192280E-1,-4.388735771E0,-9.700801849E0,-6.242275834E-1
3.286315710E-1,-4.182952881E0,-1.013868904E1,-2.123630047E-1
3.383447480E-1,-3.785445452E0,-1.038784122E1,-2.554338276E-1
3.480570400E-1,-3.232404232E0,-1.060319519E1,-3.487538993E-1
3.577686550E-1,-2.545365095E0,-1.061994553E1,-8.554340899E-2
3.674809980E-1,-2.229213476E0,-1.021077251E1,-5.644070506E-1
3.771941760E-1,-2.523829699E0,-9.442078590E0,-1.043270707E0
3.869065190E-1,-3.076870918E0,-8.659325600E0,-1.033699393E0
3.966180820E-1,-4.130311012E0,-7.869096279E0,-9.305089116E-1
4.063304260E-1,-4.970490932E0,-7.349554539E0,-7.845467329E-1
4.160436550E-1,-4.822135925E0,-7.392924786E0,-6.361917257E-1
4.257559460E-1,-4.127918243E0,-7.854739666E0,-3.921238184E-1
4.354675090E-1,-3.356831074E0,-8.388637543E0,1.704886109E-1
4.451798530E-1,-2.993122101E0,-8.633005142E0,5.679962635E-1
4.548930820E-1,-2.636292458E0,-8.862715721E0,3.813561201E-1
4.646053730E-1,-2.324926376E0,-9.152546883E0,2.880360186E-1
4.743169360E-1,-2.428116798E0,-9.396614075E0,4.459623098E-1
4.840292800E-1,-3.131905794E0,-9.384650230E0,3.813561201E-1
4.937425090E-1,-3.797409534E0,-9.312865257E0,3.598206937E-1
5.034548010E-1,-4.058526516E0,-9.274580956E0,-4.247260094E-2
5.131663630E-1,-4.199702740E0,-9.059226990E0,-4.926223755E-1
5.228788110E-1,-4.331307888E0,-9.078369141E0,-4.064807594E-1
5.325919360E-1,-4.424628258E0,-9.229117393E0,7.716853172E-2
5.423042280E-1,-4.304986954E0,-9.489934921E0,8.913264424E-2
5.520157900E-1,-3.957728624E0,-9.645767212E0,-6.161518395E-2
5.617282380E-1,-3.536591768E0,-9.863513947E0,1.130608693E-1
5.714413630E-1,-2.990729094E0,-9.983155251E0,-2.333002165E-2
5.811536550E-1,-2.772683144E0,-9.942477226E0,-4.184448719E-1
5.908652170E-1,-2.825325251E0,-9.822835922E0,-4.375874400E-1
6.005776650E-1,-3.000300407E0,-9.729516029E0,-1.812563092E-1
6.102907900E-1,-3.282653570E0,-9.595218658E0,-7.597211748E-2
6.200030820E-1,-3.601198196E0,-9.427721024E0,-1.022931710E-1
6.297146960E-1,-3.694518089E0,-9.265008926E0,-1.070788130E-1
6.394270400E-1,-3.728017569E0,-9.353543282E0,-2.793620527E-1
6.491402170E-1,-3.586841106E0,-9.279366493E0,-5.859424472E-1
6.588525610E-1,-3.431008577E0,-9.293723106E0,-7.151548862E-1
6.685641230E-1,-3.270689487E0,-9.300901413E0,-6.888338327E-1
6.782764670E-1,-3.385545015E0,-9.324830055E0,-8.276175261E-1
6.879896960E-1,-3.536591768E0,-9.245866776E0,-7.031907439E-1
6.977019880E-1,-3.531806231E0,-9.255437851E0,1.010967568E-1
7.074135510E-1,-3.665804386E0,-8.905786514E0,7.211369276E-1
7.171258940E-1,-3.751945972E0,-8.491529465E0,8.434699774E-1
7.268391230E-1,-3.739981890E0,-8.094321251E0,1.752742529E-1
7.365514150E-1,-3.766302824E0,-7.565207958E0,-1.344766378E0
7.462629780E-1,-3.933800459E0,-7.024130821E0,-3.142673492E0
7.559753210E-1,-4.046263218E0,-6.715157509E0,-3.885046721E0
7.656885510E-1,-4.338486671E0,-6.334698677E0,-3.497110367E0
7.754008420E-1,-4.503591537E0,-6.327520370E0,-3.080460072E0
7.851124050E-1,-4.276273251E0,-6.303592205E0,-2.704786777E0
7.948248530E-1,-3.917050600E0,-6.408876419E0,-2.309672117E0
8.045379780E-1,-3.239582777E0,-7.129415035E0,-1.119840980E0
8.142503210E-1,-2.363211393E0,-7.934001446E0,6.900302172E-1
8.239618840E-1,-1.997109652E0,-8.094321251E0,2.325225353E0
8.336742280E-1,-2.152642965E0,-7.694420338E0,3.053241730E0
8.433874050E-1,-2.483151674E0,-7.105486870E0,2.026122570E0
8.530997480E-1,-2.796611547E0,-6.420840263E0,-1.621137410E-1
8.628113110E-1,-3.416651726E0,-5.968297958E0,-2.745464802E0
8.725236550E-1,-4.214059830E0,-5.961119175E0,-5.251946449E0
8.822368840E-1,-4.647459984E0,-6.542874336E0,-6.779464722E0
8.919491760E-1,-4.587339878E0,-7.538887024E0,-6.956533432E0
9.016607380E-1,-4.019941807E0,-8.429315567E0,-6.011069775E0
9.113731860E-1,-3.515056372E0,-9.389435768E0,-3.952045679E0
9.210863110E-1,-3.043371201E0,-1.023230743E1,-2.841177702E0
9.307986030E-1,-2.265105724E0,-1.037827015E1,-2.702394009E0
9.405101650E-1,-2.001895189E0,-9.513862610E0,-2.728715181E0
9.502226130E-1,-2.202892303E0,-8.374280930E0,-3.552145243E0
9.599357380E-1,-2.629113913E0,-7.462316513E0,-5.498706341E0
9.696480820E-1,-3.385545015E0,-6.835097790E0,-6.592824459E0
9.793596440E-1,-4.331307888E0,-6.679265499E0,-5.278267860E0
9.890719880E-1,-5.466104031E0,-6.933203697E0,-4.188935280E0
9.987852170E-1,-5.549852848E0,-6.722336292E0,-4.995914459E0
1.008497509E0,-5.102096081E0,-6.413661957E0,-5.809773445E0
1.018209071E0,-4.549055099E0,-6.298806667E0,-5.867201328E0
1.027921519E0,-3.060121059E0,-6.463911057E0,-5.943771362E0
1.037634644E0,-1.209272742E0,-6.607480526E0,-5.503491879E0
1.047346988E0,6.029912829E-1,-6.966702938E0,-5.551348686E0
1.057058551E0,1.814357758E0,-7.119843960E0,-6.542276382E0
1.066770894E0,1.658824325E0,-7.002595425E0,-6.508776665E0
1.076484123E0,7.441678643E-1,-6.758228302E0,-5.871986866E0
1.086196415E0,-6.681957245E-1,-6.092724800E0,-6.147460461E0
1.095907978E0,-1.558923960E0,-5.384150028E0,-8.055437088E0
1.105620426E0,-2.162214279E0,-4.941178799E0,-9.626026154E0
1.115333551E0,-2.078465462E0,-5.005784988E0,-9.247661591E0
1.125045842E0,-1.458425403E0,-5.348257542E0,-8.345268250E0
1.134757457E0,-5.964110494E-1,-5.853442192E0,-8.857631683E0
1.144469801E0,-7.163512707E-1,-5.666502953E0,-8.756834030E0
1.154183030E0,-1.154237866E0,-5.338686466E0,-8.831310272E0
1.163895321E0,-1.688136339E0,-4.577469826E0,-8.129614830E0
1.173606884E0,-2.171785593E0,-4.036392689E0,-8.711369514E0
1.183319332E0,-2.408974171E0,-3.253341436E0,-1.004267693E1
1.193032457E0,-3.251546860E0,-2.621337175E0,-1.084217834E1
1.202744801E0,-3.912265062E0,-2.130509377E0,-1.105543900E1
1.212456363E0,-3.842873096E0,-2.168794632E0,-1.024845982E1
1.222168707E0,-2.312962294E0,-2.678765059E0,-1.001635551E1
1.231881936E0,-1.403390527E0,-3.296412230E0,-9.905986786E0
1.241594228E0,-9.508479238E-1,-3.294019461E0,-9.197412491E0
1.251305790E0,-9.412766099E-1,-3.531208038E0,-9.573384285E0
1.261018238E0,-6.849454641E-1,-3.365804195E0,-1.011924744E1
1.270731363E0,-3.427718580E-1,-3.533600807E0,-9.923035622E0
1.280443707E0,-3.355933726E-1,-3.490530014E0,-9.501599312E0
1.290155269E0,-8.144569993E-1,-2.638087034E0,-1.050957584E1
1.299867613E0,-1.151844978E0,-2.288435698E0,-1.103868866E1
1.309580842E0,-1.192523003E0,-1.543968797E0,-1.093310547E1
1.319293134E0,-1.482353687E0,-2.053939104E0,-1.148375416E1
1.329004748E0,-1.887039781E0,-2.669193745E0,-1.146221828E1
1.338717092E0,-1.908575177E0,-2.829512835E0,-1.116311550E1
1.348430321E0,-1.832004786E0,-3.890131474E0,-1.108415222E1
1.358142613E0,-1.503889084E0,-4.261318207E0,-1.024845982E1
1.367854176E0,-1.570888042E0,-3.509672642E0,-8.991629601E0
1.377566623E0,-1.420140266E0,-3.262912750E0,-9.932606697E0
1.387279748E0,-2.380260229E0,-2.863012314E0,-9.609276772E0
1.396992092E0,-3.878765583E0,-1.972583175E0,-9.894022942E0
1.406703655E0,-4.003192425E0,-1.960619092E0,-1.144786167E1
1.416415998E0,-4.343272209E0,-1.235294700E0,-1.109850979E1
1.426129228E0,-4.127918243E0,-7.301099896E-1,-1.076082230E1
1.435841519E0,-3.950550079E0,-2.057827413E-1,-1.147418308E1
1.445553134E0,-4.206881523E0,4.214358926E-1,-1.069860935E1
1.455265478E0,-4.453341961E0,4.477569461E-1,-1.066032410E1
1.464978707E0,-4.410271168E0,2.991028305E-4,-1.136172009E1
1.474690998E0,-3.873979807E0,-7.731808424E-1,-1.060289669E1
1.484402613E0,-3.402294636E0,-1.321436286E0,-1.083021450E1
1.494114957E0,-3.000300407E0,-1.677966833E0,-1.137129116E1
1.503828186E0,-2.681756020E0,-1.998904228E0,-1.126600742E1
1.513540478E0,-2.607578516E0,-2.020439625E0,-1.157946682E1
1.523252040E0,-2.794218540E0,-1.982154489E0,-1.174726391E1
1.532964488E0,-2.892324448E0,-2.039582253E0,-1.159143066E1
1.542677613E0,-2.796611547E0,-2.101795673E0,-1.145025444E1
1.552389957E0,-2.614757061E0,-1.881655931E0,-1.142393398E1
1.562101519E0,-2.198106766E0,-1.833799481E0,-1.118465137E1
1.571813863E0,-2.150250196E0,-1.833799481E0,-1.141675472E1
1.581527092E0,-2.356033087E0,-1.912762642E0,-1.111047363E1
1.591239384E0,-2.370688915E0,-2.156830549E0,-1.123968601E1
1.600950998E0,-2.717648268E0,-2.027618170E0,-1.091396332E1
1.610663342E0,-2.696112871E0,-2.348555326E0,-1.077757263E1
1.620376571E0,-2.959622622E0,-2.262114763E0,-1.063400269E1
1.630088863E0,-2.930908680E0,-2.360519648E0,-1.077757263E1
1.639800478E0,-2.806182861E0,-2.659622431E0,-1.103868866E1
1.649512821E0,-2.935694218E0,-2.475374937E0,-1.064118099E1
1.659226051E0,-2.717648268E0,-2.681157827E0,-1.083021450E1
1.668938342E0,-2.710469961E0,-3.023630619E0,-1.033699417E1
1.678649905E0,-2.976372242E0,-2.774477959E0,-9.681061745E0
1.688362353E0,-2.676970243E0,-3.076272726E0,-1.018624592E1
1.698075478E0,-2.633899450E0,-2.999702215E0,-1.059332466E1
1.707787821E0,-2.305783749E0,-3.061915636E0,-1.084217834E1
1.717499384E0,-2.200499535E0,-2.654836655E0,-1.077278709E1
1.727211832E0,-1.640279889E0,-2.602194548E0,-1.052632618E1
1.736924957E0,-1.800599098E0,-2.321935177E0,-1.002353382E1
1.746637301E0,-2.107179403E0,-2.226222277E0,-9.748060226E0
1.756348863E0,-2.418545485E0,-2.516052961E0,-9.590133667E0
1.766061207E0,-3.270689487E0,-2.915953398E0,-9.242876053E0
1.775774436E0,-4.204488277E0,-3.169592619E0,-9.233304024E0
1.785486780E0,-4.577768803E0,-3.581457376E0,-9.403493881E0
1.795198342E0,-4.151846409E0,-4.342673779E0,-9.314660072E0
1.804910686E0,-3.672982693E0,-5.070391178E0,-8.886344910E0
1.814623915E0,-3.275475025E0,-5.839085579E0,-8.400302887E0
1.824336207E0,-2.667398930E0,-6.337091446E0,-8.122436523E0
1.834047821E0,-2.176571369E0,-6.626623154E0,-7.919046402E0
1.843760165E0,-1.585245013E0,-6.748657227E0,-7.586144924E0
1.853473394E0,-2.107179403E0,-6.509375095E0,-7.593323708E0
1.863185686E0,-3.167798042E0,-5.762515068E0,-7.895118237E0
1.872897248E0,-3.661018610E0,-5.633003712E0,-7.488039494E0
1.882609696E0,-4.352843285E0,-5.724229813E0,-6.750751019E0
1.892322821E0,-4.769493580E0,-5.654539108E0,-6.319743633E0
1.902035165E0,-4.436592102E0,-5.839085579E0,-5.929414749E0
1.911746728E0,-3.469293833E0,-6.195616245E0,-5.283053398E0
1.921459176E0,-2.327319145E0,-6.528517246E0,-5.182554722E0
1.931172301E0,-1.580459356E0,-7.294519901E0,-5.364409447E0
1.940884644E0,-1.795813441E0,-7.675277710E0,-5.247160912E0
1.950596207E0,-2.930908680E0,-7.378567696E0,-4.928915501E0
1.960308551E0,-3.814159393E0,-7.048058987E0,-4.698905468E0
1.970021780E0,-4.283451557E0,-6.823133945E0,-4.524229527E0
1.979734071E0,-3.926621914E0,-6.471089840E0,-4.983950615E0
1.989445686E0,-3.349652529E0,-5.731408596E0,-5.330909729E0
1.999158030E0,-2.653042078E0,-5.417649746E0,-4.196113586E0
2.008871259E0,-1.913360834E0,-5.589932919E0,-3.305684566E0
2.018583551E0,-1.365105271E0,-6.071189404E0,-3.154637575E0
2.028295165E0,-1.278963685E0,-6.676872253E0,-3.454039574E0
2.038007509E0,-1.360319614E0,-6.890132904E0,-4.026223183E0
2.047720738E0,-2.018645048E0,-6.808477879E0,-4.074079514E0
2.057433030E0,-3.196511984E0,-6.600302219E0,-3.583251953E0
2.067144592E0,-3.572484255E0,-6.550053120E0,-3.101995468E0
2.076857040E0,-2.574079037E0,-6.435197353E0,-3.013461113E0
2.086570165E0,-1.149452209E0,-6.315556049E0,-3.128316402E0
2.096282509E0,-5.940182209E-1,-6.451947212E0,-3.042174816E0
2.105994071E0,-1.163809061E0,-6.640980244E0,-2.735893488E0
2.115706519E0,-2.018645048E0,-6.988238335E0,-2.369492531E0
2.125419644E0,-2.981158018E0,-6.904489517E0,-1.912164450E0
2.135131988E0,-4.192524433E0,-7.208378315E0,-2.137388945E0
2.144843551E0,-4.398307323E0,-7.632206917E0,-2.881855726E0
2.154555894E0,-3.639483213E0,-7.938787460E0,-3.726821184E0
2.164269123E0,-2.863610506E0,-8.151748657E0,-4.299005032E0
2.173981415E0,-1.975574136E0,-7.895417213E0,-3.461217880E0
2.183693030E0,-2.289033890E0,-7.656135082E0,-2.053340912E0
2.193405373E0,-2.925823927E0,-7.684848785E0,-1.186840057E0
2.203118603E0,-3.438187122E0,-8.185248375E0,-6.960122585E-1
2.212830894E0,-3.708875179E0,-8.872286797E0,-5.644070506E-1
2.222542457E0,-3.795016766E0,-9.341579437E0,-1.172483087E0
2.232254905E0,-4.297808647E0,-9.470791817E0,-1.328016520E0
2.241968082E0,-4.939383984E0,-9.300901413E0,-1.146162033E0
2.251680373E0,-5.434997559E0,-8.984749794E0,-1.155733347E0
2.261391936E0,-5.159523964E0,-8.960822105E0,-8.611170650E-1
2.271104384E0,-4.309772491E0,-9.260223389E0,-6.002993584E-1
2.280817509E0,-3.531806231E0,-9.611968994E0,-1.573280841E-1
2.290529853E0,-2.770290375E0,-1.011236763E1,5.201398134E-1
2.300241415E0,-2.171785593E0,-1.051466084E1,8.003991842E-1
2.309953759E0,-1.927717686E0,-1.067258739E1,5.057829022E-1
2.319666988E0,-1.977967024E0,-1.063190937E1,1.106680483E-1
2.329379280E0,-2.440080881E0,-1.039023399E1,-2.769692242E-1
2.339090894E0,-3.074477911E0,-1.007886791E1,-3.583251834E-1
2.348803238E0,-3.665804386E0,-9.712766647E0,-4.247260094E-2
2.358516467E0,-3.962514400E0,-9.418149948E0,5.536393523E-1
2.368228759E0,-3.972085476E0,-9.073583603E0,7.884350419E-1
2.377940321E0,-3.845266104E0,-8.838788033E0,8.338986635E-1
2.387652769E0,-3.483650684E0,-8.714361191E0,9.535398483E-1
2.397365946E0,-3.273082256E0,-8.582756042E0,9.559326172E-1
2.407078238E0,-3.225225925E0,-8.469993591E0,6.565307379E-1
2.416789801E0,-3.117548704E0,-8.546863556E0,3.741776347E-1
2.426502248E0,-3.361616611E0,-8.621041298E0,3.622135222E-1
2.436215373E0,-3.615555048E0,-8.759824753E0,5.249254704E-1
2.445927717E0,-3.680161238E0,-8.944071770E0,6.541379094E-1
2.455639280E0,-3.404687405E0,-9.267401695E0,5.991029739E-1
2.465351728E0,-3.064906597E0,-9.585647583E0,4.363910258E-1
2.475064853E0,-2.846860647E0,-9.786943436E0,1.848455518E-1
2.484777196E0,-2.763111830E0,-9.949655533E0,1.561316848E-1
2.494488759E0,-2.894717216E0,-9.997511864E0,3.263211846E-1
2.504201103E0,-2.933301449E0,-1.001665497E1,1.178465188E-1
2.513914332E0,-2.921038151E0,-9.856335640E0,-3.529413417E-2
2.523626623E0,-3.105584621E0,-9.703194618E0,-1.932204217E-1
2.533338238E0,-3.265903711E0,-9.648159981E0,-3.104687333E-1
2.543050582E0,-3.495913982E0,-9.200403214E0,-4.247260094E-2
2.552763811E0,-3.632304668E0,-8.965607643E0,7.716853172E-2
2.562476103E0,-3.761517286E0,-8.807681084E0,1.489532143E-1
2.572187665E0,-4.072883129E0,-8.673683167E0,2.377867550E-1
2.581900113E0,-4.245166302E0,-8.635397911E0,2.042872310E-1
2.591613290E0,-4.314558506E0,-8.594719887E0,1.680957973E-1
2.601325582E0,-4.412663937E0,-8.664112091E0,1.058823988E-1
2.611037144E0,-4.362414837E0,-8.865108490E0,2.162513435E-1
2.620749592E0,-4.328915119E0,-9.171689034E0,1.298106313E-1
2.630462717E0,-4.204488277E0,-9.353543282E0,-1.357926875E-1
2.640175061E0,-3.890729666E0,-9.504291534E0,-6.170491576E-1
2.649886623E0,-3.347259760E0,-9.629017830E0,-5.835496187E-1
2.659599071E0,-2.751147747E0,-9.604789734E0,-4.136592150E-1
2.669312196E0,-2.147857428E0,-9.126225471E0,-4.902295470E-1
2.679024540E0,-2.097608089E0,-8.570791245E0,-3.897309899E-1
2.688736103E0,-2.435295343E0,-7.861917973E0,-3.272185028E-1
2.698448446E0,-3.052942514E0,-7.213163853E0,-8.659027219E-1
2.708161676E0,-3.689732552E0,-6.859025955E0,-1.416550994E0
2.717873967E0,-4.063312054E0,-6.803691864E0,-1.787737608E0
2.727585582E0,-4.142275333E0,-6.892525673E0,-2.190030813E0
2.737297926E0,-4.034298897E0,-6.921239376E0,-2.805285454E0
2.747011155E0,-4.127918243E0,-7.067201614E0,-3.456432343E0
2.756723446E0,-4.072883129E0,-7.462316513E0,-3.243471146E0
2.766435061E0,-3.637090445E0,-7.617849827E0,-2.556132793E0
2.776147405E0,-2.729612350E0,-7.866703510E0,-2.302493572E0
2.785860634E0,-2.174178362E0,-8.003393173E0,-2.400599241E0
2.795572926E0,-1.894218206E0,-7.960322857E0,-2.462812662E0
2.805284488E0,-2.250748873E0,-7.663313389E0,-2.249851465E0
2.814996936E0,-3.167798042E0,-7.225128174E0,-2.264208317E0
2.824710061E0,-4.608875751E0,-6.952346325E0,-2.932105064E0
2.834422405E0,-5.490032673E0,-6.717550278E0,-4.141078472E0
2.844133967E0,-5.681458473E0,-6.626623154E0,-5.376373291E0
2.853846415E0,-5.659923077E0,-7.249056339E0,-5.364409447E0
2.863559540E0,-4.733601570E0,-8.453244209E0,-3.987937927E0
2.873271884E0,-4.077668667E0,-9.224330902E0,-3.078067303E0
2.882983446E0,-3.048156977E0,-9.114261627E0,-2.142174482E0
2.892695894E0,-3.151048422E0,-8.946464539E0,-2.491526604E0
2.902409019E0,-3.713660717E0,-8.295317650E0,-4.279862404E0
2.912121363E0,-3.562912941E0,-7.546065331E0,-5.967699528E0
2.921832926E0,-2.913859844E0,-7.021738052E0,-6.556932449E0
2.931545269E0,-2.607578516E0,-6.329913139E0,-7.483253479E0
2.941258498E0,-2.138286114E0,-6.078367710E0,-7.811369419E0
2.950970790E0,-1.673779488E0,-6.305984974E0,-6.600003242E0
2.960682405E0,-1.834397674E0,-6.633801460E0,-4.304089546E0
2.970394748E0,-2.131107569E0,-6.856633186E0,-2.833999395E0
2.980107978E0,-2.131107569E0,-6.784549713E0,-3.410968781E0
2.989820269E0,-1.633101463E0,-6.602694988E0,-5.318945408E0
2.999531884E0,-1.089631557E0,-6.473482609E0,-7.861618996E0
3.009244228E0,-2.757728100E-1,-6.322734833E0,-9.719346046E0
3.018957457E0,-7.477570791E-3,-6.135795593E0,-8.369195938E0
3.028669748E0,-7.881359458E-1,-5.922834396E0,-7.165008068E0
3.038381363E0,-1.879861236E0,-5.295615673E0,-7.375576496E0
3.048093707E0,-2.432902336E0,-4.847858906E0,-7.660322666E0
3.057806936E0,-2.521436930E0,-4.668396950E0,-7.464111328E0
3.067519228E0,-2.336890459E0,-4.797609329E0,-7.636394501E0
3.077230790E0,-1.820040703E0,-4.878965378E0,-7.409076214E0
3.086943238E0,-6.538388133E-1,-5.417649746E0,-7.480860710E0
3.096656415E0,1.528415531E-1,-5.843871117E0,-8.883952141E0
3.106368707E0,-2.733799815E-1,-5.295615673E0,-9.343374252E0
3.116080269E0,-1.601994753E0,-4.412065983E0,-9.398708344E0
3.125792717E0,-3.000300407E0,-3.521636724E0,-9.666704178E0
3.135505842E0,-3.519842148E0,-2.874976397E0,-9.185447693E0
3.145218186E0,-3.625126362E0,-2.367697954E0,-8.632407188E0
3.154929748E0,-3.014657497E0,-2.559123755E0,-8.546265602E0
3.164642196E0,-2.023430586E0,-3.076272726E0,-8.958129883E0
3.174355373E0,-1.415354609E0,-3.329911709E0,-9.044271469E0
3.184067665E0,-1.022632599E0,-3.772883177E0,-9.592526436E0
3.193779228E0,-7.881359458E-1,-4.218247414E0,-9.721739769E0
3.203491676E0,-9.891330600E-1,-4.440779686E0,-8.867202759E0
3.213204801E0,-1.379462242E0,-4.165605068E0,-9.865308762E0
3.222917144E0,-2.013859272E0,-3.770490170E0,-1.041117096E1
3.232628707E0,-2.279462576E0,-3.497708559E0,-1.006421185E1
3.242341155E0,-2.521436930E0,-2.678765059E0,-1.035852909E1
3.252054332E0,-2.399402857E0,-2.405983210E0,-1.021256733E1
3.261766623E0,-2.447259426E0,-2.204686880E0,-1.029392338E1
3.271478186E0,-2.392224550E0,-2.195115566E0,-1.038006496E1
3.281190634E0,-2.454437733E0,-2.401197433E0,-1.007856941E1
3.290903811E0,-2.791825771E0,-2.532802820E0,-1.027956581E1
3.300616103E0,-2.691327333E0,-2.860619545E0,-1.038963604E1
3.310327717E0,-2.882753134E0,-2.831905603E0,-1.003789139E1
3.320040061E0,-3.273082256E0,-2.851048231E0,-1.027956581E1
3.329753290E0,-3.574877024E0,-2.731407166E0,-1.082303619E1
3.339465582E0,-3.505485058E0,-2.669193745E0,-1.107697392E1
3.349177196E0,-3.527020693E0,-2.384447813E0,-1.103360462E1
3.358889540E0,-2.993122101E0,-2.587837696E0,-1.140000534E1
3.368602769E0,-2.760719061E0,-2.650051117E0,-1.146221828E1
3.378315061E0,-2.777468920E0,-2.599801779E0,-1.163480091E1
3.388026676E0,-2.751147747E0,-2.535195589E0,-1.174726391E1
3.397739019E0,-2.538186550E0,-2.690729141E0,-1.142632675E1
3.407452248E0,-2.650649309E0,-2.788834810E0,-1.150528908E1
3.417164592E0,-3.033800125E0,-2.827120066E0,-1.132822037E1
3.426876155E0,-3.191726208E0,-2.772084951E0,-1.127318573E1
3.436588603E0,-3.225225925E0,-2.590230465E0,-1.152682495E1
3.446301728E0,-3.378366470E0,-2.559123755E0,-1.159621716E1
3.456014071E0,-3.335295677E0,-2.685943365E0,-1.194586754E1
3.465725634E0,-3.115155935E0,-2.638087034E0,-1.189561844E1
3.475438082E0,-2.921038151E0,-2.492124796E0,-1.140957642E1
3.485151259E0,-2.889931440E0,-2.425125837E0,-1.131625652E1
3.494863551E0,-3.079263687E0,-2.425125837E0,-1.114875889E1
3.504575165E0,-3.366402388E0,-2.501696110E0,-1.109850979E1
3.514287509E0,-3.392723322E0,-2.568695068E0,-1.096421242E1
3.524000738E0,-3.081656456E0,-2.774477959E0,-1.090199947E1
3.533713030E0,-2.966800928E0,-2.750549555E0,-1.076321507E1
3.543424644E0,-3.002693415E0,-2.604587555E0,-1.074885845E1
3.553137092E0,-3.009871721E0,-2.614158630E0,-1.036331463E1
3.562850217E0,-3.024228811E0,-2.623729944E0,-1.058853912E1
3.572562561E0,-2.985943556E0,-2.721835852E0,-1.050479031E1
3.582274123E0,-3.273082256E0,-2.755335331E0,-1.024606609E1
3.591986571E0,-3.167798042E0,-3.059522867E0,-1.050718307E1
3.601699748E0,-3.244368315E0,-3.047558784E0,-1.013599682E1
3.611412040E0,-3.167798042E0,-3.579064369E0,-1.012164021E1
3.621123655E0,-3.153441191E0,-3.801596880E0,-1.003071213E1
3.630835998E0,-2.827718258E0,-4.191926003E0,-1.004267693E1
3.640549228E0,-2.356033087E0,-4.469493389E0,-9.872487068E0
3.650261571E0,-1.853540182E0,-4.759324074E0,-9.824630737E0
3.659973134E0,-1.386640668E0,-4.766502857E0,-9.559027672E0
3.669685478E0,-9.747761488E-1,-4.874179840E0,-9.156734467E0
3.679398707E0,-9.843474030E-1,-4.900500774E0,-9.163912773E0
3.689111051E0,-1.472782373E0,-4.826323509E0,-8.795417786E0
3.698822613E0,-1.870290041E0,-4.859822750E0,-8.574978828E0
3.708535061E0,-2.193320990E0,-4.917250633E0,-8.630014420E0
3.718248238E0,-2.619542599E0,-4.986642361E0,-8.417053223E0
3.727960530E0,-2.825325251E0,-5.036891460E0,-8.148757935E0
3.737672144E0,-3.234797001E0,-5.178367138E0,-7.758727551E0
3.747384592E0,-3.139084101E0,-5.360221863E0,-7.490432262E0
3.757097717E0,-2.873181820E0,-5.563611984E0,-7.547860146E0
3.766810061E0,-2.621935368E0,-5.894120216E0,-6.975676060E0
3.776521623E0,-2.976372242E0,-6.416054726E0,-6.319743633E0
3.786234071E0,-3.356831074E0,-6.727121830E0,-5.953342915E0
3.795947248E0,-3.582055569E0,-7.064808846E0,-5.773880959E0
3.805659540E0,-3.945764542E0,-7.282555580E0,-5.883950710E0
3.815371155E0,-2.985943556E0,-7.792526245E0,-5.931807518E0
3.825083603E0,-1.759921074E0,-7.998608112E0,-5.714060307E0
3.834796728E0,-4.121637046E-1,-7.684848785E0,-5.426921844E0
3.844509071E0,3.466601670E-1,-7.299305439E0,-5.280660629E0
3.854220634E0,3.705884218E-1,-7.347161770E0,-5.029414177E0
3.863933082E0,-3.595215976E-1,-7.328019142E0,-4.426123619E0
3.873646259E0,-1.386640668E0,-7.057630539E0,-4.416552544E0
3.883358551E0,-2.753540754E0,-6.743871689E0,-4.665405750E0
3.893070165E0,-3.416651726E0,-6.451947212E0,-4.387838364E0
3.902782613E0,-3.478864908E0,-6.042475224E0,-4.279862404E0
3.912495738E0,-3.859622955E0,-5.111069202E0,-4.629513741E0
3.922208082E0,-3.395116329E0,-4.692325115E0,-4.706083775E0
3.931919696E0,-3.043371201E0,-5.207081318E0,-4.052544117E0
3.941632040E0,-2.969193697E0,-5.762515068E0,-3.320041418E0
3.951345269E0,-3.093620539E0,-6.547659874E0,-3.159423113E0
3.961057613E0,-2.550150633E0,-7.289734364E0,-3.039782047E0
3.970769176E0,-1.537388563E0,-7.926524162E0,-2.929712296E0
3.980481623E0,-7.570292354E-1,-8.099106789E0,-2.790928602E0
3.990194801E0,-1.015454054E0,-7.325626373E0,-3.253042459E0
3.999907092E0,-1.372283816E0,-6.667301178E0,-4.081258297E0
4.009618707E0,-2.092822552E0,-6.614659309E0,-4.282255173E0
4.019331051E0,-3.273082256E0,-6.545267105E0,-3.997509241E0
4.029044280E0,-3.811766386E0,-6.935596466E0,-3.023032188E0
4.038756623E0,-3.048156977E0,-7.421638489E0,-1.529312730E0
4.048468186E0,-3.136691332E0,-8.283353806E0,-1.098305583E0
4.058180634E0,-2.222034931E0,-8.493922234E0,-9.137591720E-1
4.067893811E0,-2.272284269E0,-8.530113220E0,-1.150947690E0
4.077606103E0,-2.698505640E0,-8.307282448E0,-1.387837172E0
4.087317717E0,-3.637090445E0,-7.744669437E0,-1.454836130E0
4.097030061E0,-4.348057747E0,-7.811668396E0,-1.572383523E0
4.106743290E0,-4.575376034E0,-8.178069115E0,-1.241874933E0
4.116455634E0,-4.802993298E0,-8.369495392E0,-1.071984529E0
4.126167196E0,-4.944169998E0,-8.499007225E0,-1.048056364E0
4.135879644E0,-4.707280159E0,-8.391031265E0,-7.079764009E-1
4.145592821E0,-4.278666019E0,-8.340781212E0,-8.659027219E-1
4.155305113E0,-3.826123476E0,-8.700003624E0,-1.112662554E0
4.165016728E0,-3.684946775E0,-9.003892899E0,-1.119840980E0
4.174729176E0,-3.586841106E0,-9.336793900E0,-8.395816684E-1
4.184442301E0,-3.531806231E0,-9.719944954E0,-3.439682424E-1
4.194154644E0,-3.139084101E0,-1.006451130E1,-8.315058798E-2
4.203866259E0,-2.710469961E0,-1.039262676E1,-1.094716340E-1
4.213578603E0,-2.380260229E0,-1.064148045E1,-1.118644550E-1
4.223291832E0,-2.535793781E0,-1.045484066E1,9.631111473E-2
4.233004176E0,-2.866003275E0,-1.021555805E1,3.550350666E-1
4.242715738E0,-3.174976587E0,-9.954441071E0,5.153541565E-1
4.252428186E0,-3.756731510E0,-9.633803368E0,5.153541565E-1
4.262141363E0,-4.137489319E0,-9.585647583E0,6.732804775E-1
4.271853655E0,-4.012763500E0,-9.619445801E0,8.626125455E-1
4.281565269E0,-3.498306751E0,-9.655338287E0,7.549355626E-1
4.291277613E0,-3.117548704E0,-9.492327690E0,8.219345808E-1
4.300990842E0,-2.868396044E0,-9.332008362E0,5.416752100E-1
4.310703186E0,-2.803789854E0,-9.308079720E0,-5.922235921E-2
4.320414748E0,-2.849253654E0,-9.377471924E0,-3.559323549E-1
4.330127196E0,-2.822932482E0,-9.619445801E0,-2.961117923E-1
4.339840373E0,-2.662613392E0,-9.815657616E0,-1.118644550E-1
4.349552665E0,-2.595614433E0,-9.789336205E0,-3.050848842E-2
4.359264280E0,-2.665006161E0,-9.636196136E0,-4.247260094E-2
4.368976728E0,-2.617149830E0,-9.537791252E0,-1.046859920E-1
4.378689853E0,-2.619542599E0,-9.461220741E0,-7.597211748E-2
4.388402196E0,-2.600399971E0,-9.403793335E0,1.495514158E-2
4.398113811E0,-2.851646423E0,-9.288937569E0,8.195417374E-2
4.407826155E0,-3.256332397E0,-9.140582085E0,-9.511470050E-2
4.417539384E0,-3.538984776E0,-9.090332985E0,-1.046859920E-1
4.427251728E0,-3.646661758E0,-9.083154678E0,5.324030295E-2
4.436963290E0,-3.785445452E0,-9.260223389E0,-1.794616925E-3
4.446675738E0,-3.735196114E0,-9.241081238E0,2.617149651E-1
4.456388915E0,-3.582055569E0,-9.365508080E0,3.430709541E-1
4.466101207E0,-3.318545818E0,-9.446864128E0,4.627120793E-1
4.475812821E0,-3.158226728E0,-9.667302132E0,4.363910258E-1
4.485525165E0,-3.002693415E0,-9.549755096E0,3.646063507E-1
4.495238394E0,-3.043371201E0,-9.576076508E0,1.609173268E-1
4.504950738E0,-3.012264490E0,-9.597611427E0,2.210369855E-1
4.514662301E0,-3.189333439E0,-9.578469276E0,3.502494097E-1
4.524374748E0,-3.375973701E0,-9.446864128E0,3.741776347E-1
4.534087926E0,-3.529413462E0,-9.696016312E0,4.363910258E-1
4.543800217E0,-3.387937784E0,-9.684052467E0,6.613163352E-1
4.553511832E0,-3.385545015E0,-9.511469841E0,4.172484577E-1
4.563224176E0,-3.488436222E0,-9.262616158E0,3.170489892E-2
4.572937405E0,-3.555734396E0,-8.936893463E0,-5.165506005E-1
4.582649748E0,-3.431008577E0,-8.640183449E0,-1.232303619E0
4.592361311E0,-3.375973701E0,-8.364709854E0,-1.792523265E0
4.602073759E0,-3.323331594E0,-8.053643227E0,-2.247458696E0
4.611786936E0,-3.203690529E0,-8.580363274E0,-2.726322412E0
4.621499228E0,-2.983550787E0,-8.633005142E0,-2.163709879E0
4.631210842E0,-2.866003275E0,-8.362317085E0,-1.170090318E0
4.640923186E0,-2.514258385E0,-8.465208054E0,-3.921238184E-1
4.650636415E0,-2.475973129E0,-7.859525204E0,-1.932204217E-1
4.660348759E0,-3.115155935E0,-6.830312252E0,-6.170491576E-1
4.670060321E0,-3.850051641E0,-6.059225082E0,-1.488335729E0
4.679772769E0,-4.546662331E0,-5.372185707E0,-2.654537678E0
4.689485946E0,-4.893920422E0,-5.209474087E0,-3.458825111E0
4.699198238E0,-5.128417015E0,-5.453541756E0,-3.806083441E0
4.708909853E0,-4.893920422E0,-6.121438503E0,-2.982354403E0
4.718622196E0,-4.192524433E0,-7.024130821E0,-1.538884044E0
4.728335426E0,-3.009871721E0,-7.962715626E0,-2.267199457E-1
4.738047769E0,-1.762313843E0,-8.369495392E0,1.250249892E-1
4.747759332E0,-1.367498159E0,-8.134998322E0,-1.543669701E0
4.757471780E0,-1.961217284E0,-7.749455452E0,-4.643870354E0
4.767184957E0,-2.765504837E0,-7.462316513E0,-6.396314144E0
4.776897248E0,-3.742374659E0,-7.569993496E0,-6.051747799E0
4.786608863E0,-4.996811867E0,-7.859525204E0,-4.519443989E0
4.796321207E0,-5.760720730E0,-8.204390526E0,-2.788535595E0
4.806034436E0,-5.092525005E0,-8.518149376E0,-1.787737608E0
4.815746780E0,-3.445365429E0,-8.872286797E0,-1.900200248E0
4.825458342E0,-1.865504384E0,-9.346364975E0,-3.068495989E0
4.835170790E0,-7.091727853E-1,-9.657731056E0,-4.490729809E0
4.844883967E0,-8.503493667E-1,-9.391828537E0,-5.757131100E0
4.854596259E0,-2.452044964E0,-8.371888161E0,-5.840879917E0
4.864307873E0,-3.967299938E0,-7.148557663E0,-5.448457241E0
4.874020217E0,-3.986442566E0,-6.351448536E0,-5.857629776E0
4.883733446E0,-2.897109985E0,-6.209972858E0,-7.100102901E0
4.893445790E0,-1.546959877E0,-6.497410774E0,-7.028318405E0
4.903157353E0,-6.562315822E-1,-6.909275532E0,-5.472385406E0
4.912869801E0,-4.408775866E-1,-7.162914753E0,-4.552943230E0
4.922582978E0,-4.911268353E-1,-7.086344242E0,-5.122734070E0
4.932295269E0,-4.336991012E-1,-7.009773731E0,-5.659025669E0
4.942006832E0,-2.350948304E-1,-7.191628456E0,-6.171388626E0
4.951719280E0,-3.260220885E-1,-7.304090977E0,-6.633502483E0
4.961432457E0,-6.418746710E-1,-7.062416077E0,-7.236793041E0
4.971144748E0,-1.221236825E0,-6.585945129E0,-9.017950058E0
4.980856363E0,-2.425724030E0,-5.745765209E0,-9.259625435E0
4.990568811E0,-3.285046339E0,-5.197509766E0,-7.624430180E0
5.000281936E0,-3.507878065E0,-4.756931305E0,-6.719644070E0
5.009994280E0,-3.550948858E0,-4.297210217E0,-7.799405575E0
5.019705842E0,-3.378366470E0,-3.859024763E0,-8.821739197E0
5.029418290E0,-2.712862730E0,-3.885345697E0,-8.771190643E0
5.039131467E0,-2.011466503E0,-4.048357010E0,-8.704191208E0
5.048843759E0,-1.764706731E0,-4.397708893E0,-8.194221497E0
5.058555373E0,-1.771885157E0,-4.546063900E0,-8.824131966E0
5.068267717E0,-1.697707653E0,-4.431208611E0,-9.340981483E0
5.077980946E0,-1.221236825E0,-4.471886635E0,-9.350552559E0
5.087693290E0,-1.240379453E0,-4.179962158E0,-9.771988869E0
5.097404853E0,-1.439282775E0,-4.218247414E0,-8.824131966E0
5.107117301E0,-1.666600943E0,-3.882952929E0,-9.238089561E0
5.116830426E0,-1.786242127E0,-3.231806040E0,-1.012881851E1
5.126542769E0,-1.293320656E0,-3.425624609E0,-9.793523788E0
5.136254332E0,-1.223629713E0,-3.088236809E0,-9.352945328E0
5.145966780E0,-1.075274706E0,-2.949453115E0,-9.460921288E0
5.155679957E0,-1.264606714E0,-2.851048231E0,-9.523135185E0
5.165392248E0,-1.664208174E0,-2.968595505E0,-9.415457726E0
5.175103863E0,-2.334497690E0,-2.793620348E0,-9.427422523E0
5.184816207E0,-2.423331022E0,-3.037987471E0,-9.312267303E0
5.194529436E0,-2.233999014E0,-3.411267757E0,-1.010967541E1
5.204241780E0,-2.188535452E0,-3.341876030E0,-1.087567806E1
5.213953342E0,-2.866003275E0,-3.042773008E0,-1.003071213E1
5.223665790E0,-2.839682341E0,-3.078665495E0,-1.001396275E1
5.233378915E0,-3.316153049E0,-2.621337175E0,-1.054068279E1
5.243091259E0,-2.930908680E0,-2.879761934E0,-1.078714371E1
5.252802821E0,-2.459223509E0,-2.800798893E0,-1.067946625E1
5.262515269E0,-2.341675997E0,-2.642872572E0,-1.093549824E1
5.272228446E0,-2.281855583E0,-2.192722797E0,-1.074885845E1
5.281940738E0,-2.217249393E0,-1.929512382E0,-1.102163982E1
5.291652301E0,-2.312962294E0,-1.896012783E0,-1.133539867E1
5.301364748E0,-2.796611547E0,-2.018046856E0,-1.107218838E1
5.311077926E0,-3.423830032E0,-2.185544491E0,-1.095942688E1
5.320790217E0,-3.780659676E0,-2.417947292E0,-1.128036404E1
5.330501832E0,-3.572484255E0,-2.377269268E0,-1.130189991E1
5.340214176E0,-3.141477108E0,-1.977368832E0,-1.119422245E1
5.349927405E0,-2.854039192E0,-1.455434322E0,-1.114397335E1
5.359639748E0,-2.648256540E0,-1.184746265E0,-1.122054386E1
5.369351311E0,-2.566900492E0,-1.314257860E0,-1.160369396E1
5.379063759E0,-2.717648268E0,-1.769193292E0,-1.150050354E1
5.388776884E0,-2.942872763E0,-2.108973980E0,-1.155553913E1
5.398489228E0,-3.122334480E0,-2.305185556E0,-1.156511021E1
5.408200790E0,-2.993122101E0,-2.321935177E0,-1.112483025E1
5.417913238E0,-2.763111830E0,-2.168794632E0,-1.079192924E1
5.427626363E0,-2.832503796E0,-1.934298038E0,-1.091157055E1
5.437338707E0,-2.918645382E0,-1.783550143E0,-1.106261730E1
5.447050321E0,-2.935694218E0,-1.903191328E0,-1.085174942E1
5.456762665E0,-2.940479994E0,-2.053939104E0,-1.105065346E1
5.466475894E0,-2.653042078E0,-2.231008053E0,-1.130668545E1
5.476188186E0,-2.243570328E0,-2.408375978E0,-1.101206875E1
5.485899801E0,-1.726421595E0,-2.511267424E0,-1.091157055E1
5.495612144E0,-1.568495274E0,-2.516052961E0,-1.068664455E1
5.505325373E0,-1.664208174E0,-2.468196630E0,-1.072492981E1
5.515037717E0,-2.150250196E0,-2.432304144E0,-1.079671478E1
5.524749280E0,-2.425724030E0,-2.709871531E0,-1.066510963E1
5.534461623E0,-2.339283228E0,-3.011666298E0,-1.068664455E1
5.544174853E0,-2.428116798E0,-3.042773008E0,-1.044227791E1
5.553887196E0,-2.423331022E0,-3.200699329E0,-1.079910755E1
5.563598759E0,-2.289033890E0,-3.119343519E0,-1.055982590E1
5.573311207E0,-2.145464659E0,-3.081058264E0,-1.024845982E1
5.583024332E0,-2.277069807E0,-3.236591816E0,-1.007856941E1
5.592736676E0,-2.341675997E0,-3.416053534E0,-1.005224800E1
5.602448238E0,-1.961217284E0,-3.662813187E0,-1.014556789E1
5.612160686E0,-1.901396751E0,-3.689134359E0,-9.999606133E0
5.621873811E0,-1.870290041E0,-3.607778311E0,-9.695418358E0
5.631586155E0,-1.762313843E0,-3.660420418E0,-9.513564110E0
5.641297717E0,-2.080858469E0,-3.811168194E0,-9.285946846E0
5.651010165E0,-2.296212435E0,-4.167997837E0,-9.259625435E0
5.660723342E0,-2.183749676E0,-4.452744007E0,-9.242876053E0
5.670435634E0,-1.992323995E0,-4.716253281E0,-8.836095810E0
5.680147196E0,-1.906182289E0,-5.012963295E0,-8.639585495E0
5.689859644E0,-2.092822552E0,-5.140082359E0,-8.222934723E0
5.699572821E0,-2.820539713E0,-5.024927616E0,-7.923832417E0
5.709285113E0,-3.979264021E0,-5.140082359E0,-7.346862793E0
5.718996728E0,-4.697709084E0,-5.752943993E0,-6.791429043E0
5.728709071E0,-4.601696968E0,-6.248258114E0,-6.774679184E0
5.738422301E0,-3.960121393E0,-6.617052078E0,-6.628716946E0
5.748134592E0,-3.172583818E0,-6.875775814E0,-6.228816509E0
5.757846207E0,-2.483151674E0,-6.813562393E0,-6.078068733E0
5.767558551E0,-1.537388563E0,-6.758228302E0,-6.027819157E0
5.777271780E0,-4.552344978E-1,-6.784549713E0,-5.804987907E0
5.786984071E0,-6.370890141E-1,-7.189235687E0,-5.055735111E0
5.796695686E0,-1.259821177E0,-8.115856171E0,-4.497908592E0
5.806408030E0,-1.982752681E0,-8.225926399E0,-4.253541470E0
5.816121259E0,-2.358425856E0,-8.386244774E0,-4.169792652E0
5.825833551E0,-2.899502754E0,-8.094321251E0,-4.509872437E0
5.835545165E0,-3.483650684E0,-7.388139248E0,-5.105984211E0
5.845257509E0,-3.888336897E0,-6.320342064E0,-5.311767101E0
5.854970738E0,-3.754338741E0,-5.381757259E0,-5.189733028E0
5.864683030E0,-3.258725405E0,-5.032105923E0,-4.773082733E0
5.874394644E0,-2.435295343E0,-5.214259624E0,-3.997509241E0
5.884106988E0,-1.630708575E0,-5.980261803E0,-3.387040377E0
5.893820217E0,-1.393819213E0,-7.261020184E0,-2.733500719E0
5.903532561E0,-1.343569875E0,-7.953144073E0,-2.596810818E0
5.913244123E0,-1.532602906E0,-7.873881817E0,-3.082852840E0
5.922956467E0,-1.745564103E0,-7.589136124E0,-3.635894060E0
5.932669696E0,-2.016252279E0,-7.148557663E0,-4.196113586E0
5.942381988E0,-2.121536493E0,-6.576374054E0,-4.296612263E0
5.952093603E0,-2.581257343E0,-6.164509296E0,-4.347160339E0
5.961805946E0,-3.105584621E0,-5.597111225E0,-3.947260141E0
5.971519176E0,-3.222832918E0,-5.633003712E0,-3.219542980E0
5.981231467E0,-3.728017569E0,-6.006583214E0,-2.536990166E0
5.990943082E0,-3.964907169E0,-6.260521412E0,-2.015055656E0
6.000655426E0,-3.275475025E0,-6.928418159E0,-2.333600283E0
6.010368655E0,-2.866003275E0,-8.130212784E0,-3.020639420E0
6.020080946E0,-2.487937450E0,-8.860322952E0,-3.279363394E0
6.029792561E0,-2.526222467E0,-9.154939651E0,-2.692822695E0
6.039504905E0,-3.074477911E0,-9.023035049E0,-1.840379715E0
6.049218134E0,-3.864408493E0,-8.489136696E0,-1.002592683E0
6.058930426E0,-4.621138573E0,-8.127820015E0,-8.850452900E-1
6.068642040E0,-5.070989609E0,-7.689634800E0,-8.347960114E-1
6.078354384E0,-5.681458473E0,-7.596314430E0,-6.050850153E-1
6.088067613E0,-5.822933674E0,-7.715955734E0,-4.328017831E-1
6.097779905E0,-5.729314804E0,-8.201997757E0,-6.002993584E-1
6.107491519E0,-5.082953453E0,-9.039784431E0,-6.625127792E-1
6.117203863E0,-4.127918243E0,-9.619445801E0,-5.667998791E-1
6.126917092E0,-3.093620539E0,-9.995119095E0,-4.519443810E-1
6.136629384E0,-2.411366940E0,-1.009322548E1,-4.040879309E-1
6.146340998E0,-1.961217284E0,-9.930513382E0,-4.710869491E-1
6.156053342E0,-1.839183331E0,-9.525827408E0,-4.208376706E-1
6.165766571E0,-1.735992789E0,-9.580862045E0,-4.375874400E-1
6.175478863E0,-2.152642965E0,-9.198010445E0,-3.825525343E-1
6.185190426E0,-2.595614433E0,-9.166903496E0,-4.950151742E-1
6.194902873E0,-2.842075109E0,-9.363115311E0,-2.865405083E-1
6.204616051E0,-2.746362209E0,-9.830014229E0,1.495514158E-2
6.214328342E0,-3.134298563E0,-9.825228691E0,1.417747438E-1
6.224039905E0,-3.457329512E0,-9.825228691E0,3.526422381E-1
6.233752353E0,-3.629911900E0,-9.825228691E0,3.382852972E-1
6.243465478E0,-3.799802303E0,-9.588040352E0,-4.965107143E-2
6.253177821E0,-4.056133270E0,-9.166903496E0,-3.128615618E-1
6.262889384E0,-4.316951275E0,-8.901000977E0,-2.745763958E-1
6.272601832E0,-4.582554340E0,-8.910572052E0,-1.621137410E-1
6.282314957E0,-4.798207760E0,-9.131011009E0,5.802594870E-2
6.292027301E0,-5.035097122E0,-9.186046600E0,3.263211846E-1
6.301738863E0,-4.474877357E0,-9.760622978E0,3.071786165E-1
6.311451207E0,-3.716053486E0,-1.003340435E1,2.712862790E-1
6.321164436E0,-2.858824968E0,-1.034237766E1,1.369891018E-1
6.330876728E0,-2.016252279E0,-1.055533886E1,-4.965107143E-2
6.340588342E0,-1.616351724E0,-1.052423191E1,6.999006122E-2
6.350300686E0,-1.832004786E0,-1.036391354E1,1.704886109E-1
6.360013915E0,-2.193320990E0,-1.002383327E1,1.034895778E-1
6.369726207E0,-2.638685226E0,-9.521040916E0,-1.136590727E-2
6.379437821E0,-3.062513828E0,-9.030213356E0,-1.166501045E-1
6.389150165E0,-3.546163082E0,-8.513363838E0,-1.118644550E-1
6.398863394E0,-4.082454681E0,-8.156534195E0,7.238288224E-2
6.408575686E0,-4.182952881E0,-8.051250458E0,5.081757307E-1
6.418287248E0,-3.976871252E0,-8.245068550E0,9.272187948E-1
6.427999696E0,-3.617947817E0,-8.534899712E0,1.295713425E0
6.437712873E0,-3.316153049E0,-8.848359108E0,1.329512119E0
6.447425165E0,-3.052942514E0,-8.965607643E0,1.082752228E0
6.457136728E0,-2.940479994E0,-9.087940216E0,8.267202377E-1
6.466849176E0,-2.947658300E0,-9.279366493E0,7.139584422E-1
6.476562301E0,-3.036192894E0,-9.449256897E0,6.110670567E-1
6.486274644E0,-3.098406315E0,-9.585647583E0,6.038886309E-1
6.495986207E0,-3.048156977E0,-9.739087105E0,5.871388316E-1
6.505698551E0,-2.899502754E0,-9.870692253E0,5.177469850E-1
6.515411780E0,-2.909074068E0,-9.899406433E0,4.387838542E-1
6.525124071E0,-3.098406315E0,-9.834799767E0,2.904288471E-1
6.534835686E0,-3.332902908E0,-9.798908234E0,2.018944174E-1
6.544548030E0,-3.483650684E0,-9.753444672E0,1.704886109E-1
6.554261259E0,-3.411865950E0,-9.638588905E0,1.345962733E-1
6.563973551E0,-3.478864908E0,-9.743872643E0,-6.580262445E-3
6.573685165E0,-3.519842148E0,-9.473184586E0,3.170489892E-2
6.583397509E0,-3.503092289E0,-9.123832703E0,-7.357929647E-2
6.593110686E0,-3.546163082E0,-8.795717239E0,-1.668993831E-1
6.602823030E0,-3.768695593E0,-8.625826836E0,-1.549352705E-1
6.612534592E0,-4.048655987E0,-8.460422516E0,-6.640082598E-2
6.622247040E0,-4.355236530E0,-8.499007225E0,1.800599098E-1
6.631960165E0,-4.584947109E0,-8.745467186E0,7.692924738E-1
6.641672509E0,-4.443770885E0,-8.936893463E0,1.097109199E0
6.651384071E0,-4.144668102E0,-9.111868858E0,6.445665956E-1
6.661096415E0,-3.706482172E0,-9.011071205E0,5.982056609E-4
6.670809644E0,-3.385545015E0,-8.671290398E0,-9.352945685E-1
6.680521936E0,-3.256332397E0,-8.170890808E0,-1.677667737E0
6.690233551E0,-3.117548704E0,-7.835597038E0,-2.185245275E0
6.699945894E0,-2.885145903E0,-7.648956776E0,-2.615953445E0
6.709659123E0,-2.475973129E0,-7.531708241E0,-2.640180588E0
6.719371415E0,-2.061715841E0,-7.400103092E0,-1.857129455E0
6.729082978E0,-2.214856386E0,-7.141379356E0,-1.067198873E0
6.738795426E0,-2.938086987E0,-6.847062111E0,-6.266204119E-1
6.748508551E0,-3.701696634E0,-6.463911057E0,-7.342974544E-1
6.758220894E0,-4.364807606E0,-6.116652966E0,-1.648953915E0
6.767932457E0,-4.529912472E0,-6.135795593E0,-2.656930447E0
6.777644801E0,-4.099204063E0,-6.413661957E0,-3.897010803E0
6.787358030E0,-3.541377544E0,-6.859025955E0,-5.055735111E0
6.797070321E0,-2.954836845E0,-7.241877556E0,-5.350052357E0
6.806781936E0,-2.708076954E0,-7.445566654E0,-4.674977303E0
6.816494280E0,-3.069692373E0,-7.388139248E0,-3.489931822E0
6.826207509E0,-4.111168385E0,-7.184450150E0,-2.539382935E0
6.835919801E0,-4.977669239E0,-7.093522549E0,-2.264208317E0
6.845631363E0,-5.281857014E0,-7.842775345E0,-2.264208317E0
6.855343811E0,-4.412663937E0,-8.764610291E0,-2.426920414E0
6.865056936E0,-2.341675997E0,-8.977571487E0,-3.226721287E0
6.874769280E0,-1.278963685E0,-8.841180801E0,-4.584050179E0
6.884480842E0,-1.568495274E0,-8.283353806E0,-5.922235966E0
6.894193186E0,-2.229213476E0,-7.404888630E0,-6.027819157E0
6.903906415E0,-2.676970243E0,-6.837490559E0,-5.556134224E0
6.913618707E0,-2.691327333E0,-6.643373013E0,-5.637490273E0
6.923330321E0,-3.572484255E0,-6.772585392E0,-6.358028889E0
6.933042665E0,-2.688934565E0,-6.935596466E0,-6.415456772E0
6.942755894E0,-1.484746456E0,-7.536494255E0,-5.661418438E0
6.952468186E0,-1.333998680E0,-7.682456017E0,-4.395017147E0
6.962179748E0,-1.820040703E0,-7.373782158E0,-4.255934238E0
6.971892196E0,-2.456830740E0,-6.664908409E0,-5.668596745E0
6.981605321E0,-2.822932482E0,-6.267699718E0,-6.425027847E0
6.991317665E0,-2.722434044E0,-6.181259155E0,-6.923034191E0
7.001029228E0,-1.791027784E0,-6.396912098E0,-6.765107632E0
7.010741571E0,-9.580263495E-1,-6.583552361E0,-6.018248081E0
7.020454801E0,-8.623134494E-1,-6.363412857E0,-6.101996899E0
7.030167092E0,-1.341177106E0,-5.824728489E0,-7.155436993E0
7.039878655E0,-2.210070848E0,-5.489434242E0,-7.619644642E0
7.049591103E0,-2.990729094E0,-5.400899887E0,-7.267899513E0
7.059304228E0,-3.850051641E0,-5.343472004E0,-7.421040535E0
7.069016571E0,-3.653840065E0,-5.597111225E0,-8.898308754E0
7.078728134E0,-2.569293261E0,-5.953940868E0,-1.002114105E1
7.088440478E0,-1.649851203E0,-6.064010620E0,-9.432208061E0
7.098153707E0,-1.314856052E0,-5.721837044E0,-7.957331657E0
7.107865998E0,-1.214058399E0,-4.953142643E0,-7.243971348E0
7.117577613E0,-1.377069473E0,-3.930809498E0,-8.120043755E0
7.127289957E0,-2.152642965E0,-2.824727058E0,-9.693025589E0
7.137003186E0,-2.674577475E0,-2.137687922E0,-9.652347565E0
7.146715478E0,-2.909074068E0,-2.547159672E0,-9.003593445E0
7.156427040E0,-2.990729094E0,-2.575873613E0,-1.025085258E1
7.166139488E0,-2.779861689E0,-2.889632463E0,-1.008335495E1
7.175852613E0,-2.528615236E0,-2.542374134E0,-9.070592880E0
7.185564905E0,-2.018645048E0,-2.472982168E0,-9.896415710E0
7.195276519E0,-1.805384636E0,-2.262114763E0,-9.970891953E0
7.204988863E0,-9.723833203E-1,-2.949453115E0,-9.649954796E0
7.214702092E0,-9.747761488E-1,-3.200699329E0,-1.030349445E1
7.224414384E0,-1.695314884E0,-3.018844843E0,-1.007139015E1
7.234125946E0,-2.411366940E0,-2.774477959E0,-9.654740334E0
7.243838394E0,-2.820539713E0,-2.575873613E0,-9.704989433E0
7.253551519E0,-3.005086184E0,-2.334198475E0,-9.561420441E0
7.263263863E0,-3.522234917E0,-2.034796476E0,-1.008814049E1
7.272975426E0,-4.199702740E0,-1.532004714E0,-1.025324535E1
7.282687769E0,-4.429413795E0,-1.718644857E0,-1.055743217E1
7.292400998E0,-5.253142834E0,-1.098604679E0,-1.060768223E1
7.302113290E0,-4.812564373E0,-1.781157374E0,-1.033220863E1
7.311824853E0,-4.048655987E0,-2.135295153E0,-1.061007500E1
7.321537301E0,-3.488436222E0,-1.924726725E0,-1.091874886E1
7.331250426E0,-2.772683144E0,-1.996511340E0,-1.089721298E1
7.340962769E0,-2.219642162E0,-2.293221474E0,-1.092592716E1
7.350674332E0,-2.650649309E0,-1.615753531E0,-1.144068336E1
7.360386676E0,-2.547757864E0,-2.085045815E0,-1.145503998E1
7.370099905E0,-2.784647465E0,-2.130509377E0,-1.166112232E1
7.379812196E0,-2.885145903E0,-1.838585138E0,-1.207507992E1
7.389523759E0,-3.141477108E0,-1.500898004E0,-1.203679562E1
7.399236207E0,-3.366402388E0,-1.240080357E0,-1.172812080E1
7.408949332E0,-3.601198196E0,-1.112961650E0,-1.155075264E1
7.418661676E0,-3.586841106E0,-1.127318621E0,-1.160608673E1
7.428373238E0,-3.347259760E0,-1.297508121E0,-1.182383442E1
7.438085582E0,-3.258725405E0,-1.577468276E0,-1.185972595E1
7.447798811E0,-3.251546860E0,-1.673181176E0,-1.149093246E1
7.457511103E0,-3.308974504E0,-1.627717614E0,-1.150768185E1
7.467222717E0,-3.265903711E0,-1.610967875E0,-1.182622719E1
7.476935061E0,-3.287439108E0,-1.649253011E0,-1.136889839E1
7.486648238E0,-3.536591768E0,-1.314257860E0,-1.119182968E1
7.496360582E0,-3.651447296E0,-1.254437327E0,-1.093549824E1
7.506072144E0,-3.646661758E0,-1.187139153E0,-1.088046360E1
7.515784592E0,-3.771088600E0,-1.208973646E0,-1.068425179E1
7.525497717E0,-3.929014683E0,-1.398006678E0,-1.061964607E1
7.535210061E0,-3.936193228E0,-1.661217093E0,-1.076800060E1
7.544921623E0,-3.771088600E0,-2.156830549E0,-1.086132145E1
7.554633967E0,-3.359223843E0,-2.683550596E0,-1.091396332E1
7.564347196E0,-3.084049225E0,-3.081058264E0,-1.096421242E1
7.574059488E0,-2.708076954E0,-3.492922783E0,-1.065314579E1
7.583771051E0,-2.538186550E0,-3.818346739E0,-1.005703354E1
7.593483498E0,-2.397010088E0,-3.906881094E0,-1.045902824E1
7.603196676E0,-2.111965179E0,-3.957130432E0,-1.045663452E1
7.612908967E0,-1.762313843E0,-4.069892406E0,-1.035135078E1
7.622620530E0,-1.805384636E0,-3.983451605E0,-1.027717304E1
7.632332978E0,-1.901396751E0,-3.909274101E0,-1.049521923E1
7.642046103E0,-1.820040703E0,-3.930809498E0,-1.029631615E1
7.651758446E0,-1.946860313E0,-3.643670797E0,-9.860523224E0
7.661470009E0,-1.604387641E0,-3.729812384E0,-9.736096382E0
7.671182353E0,-1.298106313E0,-3.849453449E0,-9.492028236E0
7.680895582E0,-1.616351724E0,-3.935595036E0,-9.247661591E0
7.690607873E0,-2.040180445E0,-4.201497555E0,-8.639585495E0
7.700319488E0,-2.416152716E0,-4.397708893E0,-8.555836678E0
7.710031832E0,-2.248355865E0,-4.852644444E0,-8.673085213E0
7.719745061E0,-2.123929262E0,-5.242973328E0,-8.579764366E0
7.729457353E0,-1.695314884E0,-6.030511379E0,-8.704191208E0
7.739168967E0,-2.133500576E0,-6.020939827E0,-8.165507317E0
7.748881311E0,-1.970788598E0,-6.164509296E0,-8.041080475E0
7.758594540E0,-1.728814363E0,-6.054439545E0,-7.734799385E0
7.768306832E0,-1.977967024E0,-5.721837044E0,-7.425826073E0
7.778018394E0,-2.317747831E0,-5.183153152E0,-7.217650414E0
7.787730842E0,-2.260320187E0,-5.041677475E0,-6.896713257E0
7.797443967E0,-2.432902336E0,-5.024927616E0,-6.295815468E0
7.807156311E0,-2.743969440E0,-5.436792374E0,-5.776273727E0
7.816867873E0,-2.846860647E0,-6.241079807E0,-5.828916073E0
7.826580321E0,-2.305783749E0,-6.832705021E0,-6.190531254E0
7.836293446E0,-1.827219248E0,-7.371089935E0,-6.157031536E0
7.846005790E0,-1.479960799E0,-7.639385223E0,-5.563312531E0
7.855717353E0,-1.132702470E0,-7.682456017E0,-4.950450897E0
7.865429696E0,-8.886345029E-1,-7.366304398E0,-4.347160339E0
7.875142926E0,-7.163512707E-1,-7.057630539E0,-3.664607763E0
7.884855217E0,-1.365105271E0,-6.794120789E0,-3.382254839E0
7.894566832E0,-2.497508526E0,-7.081558704E0,-3.566502094E0
7.904279176E0,-2.667398930E0,-7.524529934E0,-4.062115669E0
7.913992405E0,-2.700898647E0,-7.653742313E0,-4.610371113E0
7.923704696E0,-2.353640079E0,-7.505387306E0,-4.725226402E0
7.933416311E0,-1.961217284E0,-7.464709282E0,-4.591228485E0
7.943128655E0,-1.324427366E0,-7.052844524E0,-4.411766529E0
7.952841884E0,-6.490531564E-1,-6.384948254E0,-4.064508438E0
7.962554176E0,-1.896311939E-1,-5.582754135E0,-4.076472282E0
7.972265790E0,-2.949153781E-1,-5.015356064E0,-4.246362686E0
7.981978134E0,-1.230808139E0,-5.470291615E0,-4.179363728E0
7.991691363E0,-2.552543640E0,-6.284449577E0,-3.233899832E0
8.001403655E0,-3.507878065E0,-6.798906326E0,-3.233899832E0
8.011115217E0,-3.646661758E0,-7.275377274E0,-3.492324591E0
8.020827665E0,-2.854039192E0,-8.005785942E0,-3.034996510E0
8.030540790E0,-1.573280931E0,-8.575576782E0,-2.688037157E0
8.040253134E0,-6.658028960E-1,-8.515756607E0,-2.278565407E0
8.049964696E0,-9.699904919E-1,-8.204390526E0,-1.983949065E0
8.059677144E0,-1.851147413E0,-7.814061642E0,-1.976770639E0
8.069390321E0,-3.141477108E0,-7.431210041E0,-2.144567251E0
8.079102613E0,-4.149453640E0,-7.416852951E0,-2.884248495E0
8.088814176E0,-4.659423828E0,-7.833203793E0,-3.580859184E0
8.098526623E0,-4.484448910E0,-8.041678429E0,-3.358326674E0
8.108239748E0,-4.336093903E0,-8.429315567E0,-2.400599241E0
8.117952092E0,-4.206881523E0,-8.745467186E0,-1.071984529E0
8.127663655E0,-4.242773533E0,-8.982357025E0,-4.495515525E-1
8.137376103E0,-3.620340586E0,-9.071190834E0,-2.578266263E-1
8.147089228E0,-2.523829699E0,-8.867501259E0,-1.836491376E-1
8.156801571E0,-1.520638824E0,-9.013463974E0,-1.136590727E-2
8.166513134E0,-1.084846020E0,-8.987142563E0,-6.640082598E-2
8.176225582E0,-1.494317770E0,-8.857930183E0,5.563312769E-2
8.185938707E0,-2.526222467E0,-8.831609726E0,2.258226424E-1
8.195651051E0,-3.498306751E0,-8.781359673E0,-6.161518395E-2
8.205362613E0,-3.675375462E0,-8.647361755E0,-5.620142221E-1
8.215074957E0,-3.033800125E0,-9.066405296E0,-6.577271223E-1
8.224788186E0,-2.066501379E0,-9.533005714E0,-5.620142221E-1
8.234500530E0,-1.678565025E0,-1.023230743E1,-3.320041299E-1
8.244212092E0,-1.338784218E0,-1.072044373E1,-1.788634956E-1
8.253924540E0,-1.281356573E0,-1.121366405E1,-1.794616925E-3
8.263637665E0,-2.123929262E0,-1.116102219E1,5.991029739E-1
8.273350009E0,-2.875574589E0,-1.100070286E1,6.278168559E-1
8.283061571E0,-3.435794115E0,-1.072522926E1,7.477571070E-2
8.292774019E0,-3.653840065E0,-1.050269699E1,-4.187439568E-3
8.302487144E0,-3.768695593E0,-1.028973579E1,1.974078640E-2
8.312199488E0,-3.677768469E0,-1.006211853E1,2.976073027E-1
8.321911051E0,-3.230011463E0,-9.983155251E0,4.746761918E-1
8.331623498E0,-2.851646423E0,-9.887442589E0,4.220340848E-1
8.341336623E0,-2.846860647E0,-9.489934921E0,5.009972453E-1
8.351048967E0,-2.092822552E0,-9.777372360E0,4.339981973E-1
8.360760530E0,-1.637887120E0,-9.736694336E0,4.914259613E-1
8.370472978E0,-1.580459356E0,-9.619445801E0,7.163512707E-1
8.380186103E0,-2.030609131E0,-9.327222824E0,8.697910309E-1
8.389898446E0,-2.645863533E0,-9.011071205E0,8.458628058E-1
8.399610009E0,-3.172583818E0,-8.855537415E0,7.860422134E-1
8.409322457E0,-3.584448338E0,-8.740681648E0,5.943173170E-1
8.419035582E0,-3.739981890E0,-8.755039215E0,3.813561201E-1
8.428747926E0,-3.558127165E0,-8.932107925E0,2.425723970E-1
8.438459488E0,-3.263510942E0,-9.250652313E0,4.555336237E-1
8.448171936E0,-2.976372242E0,-9.475577354E0,6.804589629E-1
8.457885061E0,-2.758326292E0,-9.633803368E0,8.362914920E-1
8.467597405E0,-2.626721144E0,-9.676874161E0,9.104689956E-1
8.477308967E0,-2.645863533E0,-9.715159416E0,9.942178130E-1
8.487021415E0,-2.787040234E0,-9.619445801E0,1.171286702E0
8.496734540E0,-2.997907639E0,-9.477970123E0,1.245464206E0
8.506446884E0,-2.938086987E0,-9.430113792E0,1.049252748E0
8.516158446E0,-2.806182861E0,-9.547362328E0,8.961120844E-1
8.525870894E0,-2.588435888E0,-9.743872643E0,8.291130662E-1
8.535584019E0,-2.447259426E0,-9.839586258E0,5.727819204E-1
8.545296363E0,-2.341675997E0,-9.830014229E0,2.497508675E-1
8.555007926E0,-2.339283228E0,-9.686445236E0,1.016949583E-2
8.564720373E0,-2.428116798E0,-9.449256897E0,-3.080759048E-1
8.574433498E0,-2.497508526E0,-9.188439369E0,-7.031907439E-1
8.584145842E0,-2.550150633E0,-8.857930183E0,-9.786644578E-1
8.593857405E0,-2.576471806E0,-8.834002495E0,-1.184447169E0
8.603569853E0,-2.193320990E0,-9.152546883E0,-8.419744968E-1
8.613282978E0,-1.937289000E0,-9.415757179E0,-4.016951025E-1
8.622995321E0,-1.987538338E0,-9.549755096E0,9.870393574E-2
8.632706884E0,-2.502294302E0,-9.482755661E0,1.226321608E-1
8.642419332E0,-3.186940670E0,-9.174081802E0,1.489532143E-1
8.652132457E0,-3.704089403E0,-8.654540062E0,-3.753740489E-1
8.661844801E0,-3.893122435E0,-8.077570915E0,-1.447657704E0
8.671556363E0,-3.936193228E0,-7.730312824E0,-2.805285454E0
8.681268811E0,-3.988835335E0,-7.498209000E0,-3.576073408E0
8.690981936E0,-3.821337700E0,-7.323233604E0,-3.885046721E0
8.700694280E0,-3.096013308E0,-7.249056339E0,-3.698107481E0
8.710405842E0,-2.346461773E0,-7.153343201E0,-3.152244806E0
8.720118290E0,-1.520638824E0,-7.179664135E0,-2.132603168E0
8.729831415E0,-1.379462242E0,-7.048058987E0,-1.976770639E0
8.739543759E0,-2.241177559E0,-6.734300137E0,-2.347957134E0
8.749255321E0,-3.409473181E0,-6.305984974E0,-2.721536636E0
8.758967769E0,-4.613960266E0,-5.963512421E0,-3.485146284E0
8.768680894E0,-5.712564945E0,-5.630610943E0,-4.028615952E0
8.778393238E0,-6.043073654E0,-5.482255936E0,-4.368695736E0
8.788104801E0,-4.561018944E0,-6.401698112E0,-3.763012648E0
8.797817248E0,-2.312962294E0,-8.008178711E0,-1.512562990E0
8.807530373E0,-5.365904570E-1,-9.154939651E0,-8.491529226E-1
8.817242717E0,1.360917836E-1,-9.372686386E0,-1.778166294E0
8.826954280E0,-3.978067636E-1,-8.759824753E0,-3.702893019E0
8.836666728E0,-1.899003863E0,-8.237890244E0,-4.936093807E0
8.846379853E0,-3.579662561E0,-7.684848785E0,-5.407480240E0
8.856092196E0,-4.233202457E0,-7.253841877E0,-5.802595139E0
8.865803759E0,-3.732803345E0,-6.985845566E0,-6.185745716E0
8.875516207E0,-2.511865616E0,-7.095915318E0,-6.135496140E0
8.885229332E0,-1.980359793E0,-7.457530975E0,-4.093222141E0
8.894941676E0,-1.968395710E0,-7.510172844E0,-1.780559182E0
8.904653238E0,-1.573280931E0,-7.828418255E0,-2.946461916E0
8.914365686E0,-7.450651526E-1,-7.895417213E0,-5.218447208E0
8.924078811E0,1.528415531E-1,-8.534899712E0,-6.626324177E0
8.933791155E0,1.055533886E0,-9.399007797E0,-5.580062389E0
8.943502717E0,1.675574064E0,-1.005972576E1,-3.868296862E0
8.953215165E0,1.771286964E0,-9.885049820E0,-4.179363728E0
8.962928290E0,1.428814173E0,-9.209974289E0,-7.073781967E0
8.972640634E0,6.879365072E-3,-7.782954693E0,-9.393922806E0
8.982352196E0,-2.121536493E0,-6.162116528E0,-7.840083599E0
8.992064644E0,-3.665804386E0,-4.826323509E0,-5.517848969E0
9.001777769E0,-4.144668102E0,-3.796811342E0,-5.893522263E0
9.011490113E0,-3.553341627E0,-3.064308405E0,-8.972486496E0
9.021201676E0,-2.722434044E0,-3.047558784E0,-1.048564816E1
9.030914123E0,-2.296212435E0,-3.227020502E0,-8.747262001E0
9.040627248E0,-1.683350682E0,-3.595814228E0,-7.234400272E0
9.050339592E0,-1.300499082E0,-4.215854168E0,-7.909475327E0
9.060051155E0,-8.934201598E-1,-4.941178799E0,-8.778368950E0
9.069763603E0,-6.801598072E-1,-5.870192051E0,-9.252447128E0
9.079476728E0,-1.108774185E0,-6.274878502E0,-9.250054359E0
9.089189071E0,-2.078465462E0,-5.642574787E0,-9.609276772E0
9.098900634E0,-3.052942514E0,-4.630111694E0,-9.484849930E0
9.108613082E0,-3.136691332E0,-4.089034557E0,-1.003789139E1
9.118326207E0,-2.861217737E0,-2.985345364E0,-1.057178974E1
9.128038551E0,-2.186142683E0,-2.843869686E0,-9.963713646E0
9.137750113E0,-2.028216362E0,-2.489732027E0,-9.281160355E0
9.147462561E0,-2.344068766E0,-1.958226204E0,-9.870094299E0
9.157175686E0,-2.753540754E0,-1.884048700E0,-1.014796066E1
9.166888030E0,-2.028216362E0,-2.544766903E0,-9.982855797E0
9.176599592E0,-1.647458434E0,-3.078665495E0,-1.021256733E1
9.186312040E0,-7.833502889E-1,-4.002593994E0,-1.043270683E1
9.196025165E0,-1.058524966E0,-3.811168194E0,-9.838987350E0
9.205737509E0,-8.623134494E-1,-3.466601849E0,-1.071535873E1
9.215449071E0,-9.125627279E-1,-2.707478762E0,-1.097617626E1
9.225161519E0,-6.538388133E-1,-2.214258194E0,-1.086371422E1
9.234874644E0,-1.046560764E0,-1.211366415E0,-1.073210907E1
9.244586988E0,-1.259821177E0,-1.216152072E0,-1.088524914E1
9.254298551E0,-2.162214279E0,-1.160818100E0,-1.028435135E1
9.264010998E0,-3.301796198E0,-1.144068360E0,-1.019103146E1
9.273724123E0,-4.058526516E0,-1.237687469E0,-1.023410225E1
9.283436467E0,-4.278666019E0,-1.077069283E0,-1.060289669E1
9.293148030E0,-3.821337700E0,-9.023932219E-1,-1.076082230E1
9.302860478E0,-2.983550787E0,-7.109674215E-1,-1.081346416E1
9.312573603E0,-2.229213476E0,-4.905286431E-1,-1.148375416E1
9.322285946E0,-2.040180445E0,-5.790630579E-1,-1.162522984E1
9.331997509E0,-2.248355865E0,-5.790630579E-1,-1.204875946E1
9.341709957E0,-2.150250196E0,-1.124925733E0,-1.190997601E1
9.351423082E0,-2.250748873E0,-1.572682738E0,-1.179272747E1
9.361135426E0,-2.411366940E0,-1.488933921E0,-1.202722359E1
9.370846988E0,-2.509472847E0,-1.254437327E0,-1.144307613E1
9.380559436E0,-2.334497690E0,-9.741778970E-1,-1.153161049E1
9.390272561E0,-2.468794823E0,-7.372884750E-1,-1.175683498E1
9.399984905E0,-2.722434044E0,-8.090731502E-1,-1.142632675E1
9.409696467E0,-2.861217737E0,-9.885348678E-1,-1.186451244E1
9.419408811E0,-3.057728291E0,-1.199103236E0,-1.161565876E1
9.429122040E0,-3.079263687E0,-1.206580877E0,-1.136411285E1
9.438834332E0,-3.084049225E0,-1.208973646E0,-1.129950714E1
9.448545946E0,-3.258725405E0,-1.105783105E0,-1.121575832E1
9.458258290E0,-3.005086184E0,-1.326221943E0,-1.122532940E1
9.467971519E0,-3.045764208E0,-1.290329576E0,-1.135214901E1
9.477683811E0,-2.784647465E0,-1.364507079E0,-1.108415222E1
9.487395426E0,-2.581257343E0,-1.378864050E0,-1.114875889E1
9.497107769E0,-2.557329178E0,-1.460219979E0,-1.125643635E1
9.506820998E0,-2.341675997E0,-1.618146300E0,-1.109611702E1
9.516533290E0,-2.320140600E0,-1.931905150E0,-1.080867863E1
9.526244905E0,-2.200499535E0,-2.161616087E0,-1.121336555E1
9.535957248E0,-2.145464659E0,-2.264507532E0,-1.113918781E1
9.545670478E0,-2.073679924E0,-2.559123755E0,-1.084696388E1
9.555382769E0,-1.846361756E0,-2.889632463E0,-1.094985580E1
9.565094384E0,-1.680957913E0,-3.083451033E0,-1.077039337E1
9.574806728E0,-1.700100541E0,-3.420839071E0,-1.063400269E1
9.584519957E0,-1.879861236E0,-3.777668715E0,-1.034895802E1
9.594232248E0,-1.630708575E0,-4.077070713E0,-1.027717304E1
9.603943863E0,-1.451246977E0,-4.014857292E0,-1.032981491E1
9.613656207E0,-1.010668516E0,-4.105784416E0,-1.042552853E1
9.623369436E0,-6.155536175E-1,-4.079463482E0,-1.029153061E1
9.633081728E0,-7.857431173E-1,-4.136891365E0,-9.905986786E0
9.642793290E0,-1.108774185E0,-4.187140465E0,-9.602098465E0
9.652505738E0,-1.484746456E0,-4.364209175E0,-9.250054359E0
9.662218863E0,-2.123929262E0,-4.182354927E0,-9.147162437E0
9.671931207E0,-2.432902336E0,-4.189533234E0,-9.027522087E0
9.681642769E0,-2.645863533E0,-4.105784416E0,-8.656334877E0
9.691355217E0,-2.803789854E0,-4.440779686E0,-8.244769096E0
9.701068342E0,-2.466402054E0,-4.890929699E0,-8.187042236E0
9.710780686E0,-2.370688915E0,-5.197509766E0,-8.311768532E0
9.720492248E0,-2.550150633E0,-5.353043556E0,-7.811369419E0
9.730204696E0,-2.743969440E0,-5.642574787E0,-7.318149090E0
9.739917821E0,-2.899502754E0,-5.745765209E0,-6.877570629E0
9.749630165E0,-3.153441191E0,-5.975476265E0,-6.686144829E0
9.759341728E0,-3.347259760E0,-6.183651924E0,-6.600003242E0
9.769054071E0,-3.232404232E0,-6.219544411E0,-6.358028889E0
9.778767301E0,-3.189333439E0,-6.066403389E0,-6.300601006E0
9.788479644E0,-3.153441191E0,-5.604289532E0,-6.616752625E0
9.798191207E0,-3.163012505E0,-5.597111225E0,-6.777071953E0
9.807903551E0,-3.308974504E0,-5.807978630E0,-6.166603088E0
9.817616780E0,-3.481257915E0,-5.927619934E0,-5.469992638E0
9.827329071E0,-3.129513025E0,-6.406483650E0,-5.058127880E0
9.837040686E0,-2.791825771E0,-6.655336857E0,-5.170590401E0
9.846753030E0,-2.454437733E0,-6.593123913E0,-5.453242779E0
9.856466259E0,-2.085644007E0,-6.521338940E0,-5.441278458E0
9.866178551E0,-1.716850281E0,-6.394519329E0,-5.117948532E0
9.875890113E0,-1.412961721E0,-6.107081413E0,-4.586442947E0
9.885602561E0,-1.738385677E0,-5.695516109E0,-3.674179077E0
9.895315686E0,-2.245963097E0,-6.255735874E0,-3.657429457E0
9.905028030E0,-2.461616278E0,-6.669693947E0,-4.287040710E0
9.914739592E0,-1.913360834E0,-6.595516682E0,-5.108377457E0
9.924452040E0,-1.331605792E0,-6.576374054E0,-5.517848969E0
9.934165165E0,-9.197412133E-1,-6.617052078E0,-5.003093243E0
9.943877509E0,-4.313062727E-1,-6.609873295E0,-4.112364769E0
9.953589071E0,-6.370890141E-1,-6.569195271E0,-3.106781006E0
9.963301519E0,-1.597209096E0,-6.765407085E0,-2.618346214E0
9.973014644E0,-2.763111830E0,-6.810870647E0,-2.455634356E0
9.982726936E0,-3.469293833E0,-6.861418724E0,-2.683251381E0
9.992438551E0,-2.985943556E0,-7.407281399E0,-3.336791277E0
1.000215089E1,-2.152642965E0,-8.144570351E0,-3.954438448E0
1.001186412E1,-1.192523003E0,-8.333602905E0,-4.421338081E0
1.002157642E1,-6.203392744E-1,-8.123034477E0,-5.141876698E0
1.003128803E1,-5.796613097E-1,-7.799704552E0,-4.856831551E0
1.004100037E1,-1.554138303E0,-7.498209000E0,-3.238685369E0
1.005071360E1,-2.904288530E0,-7.514958382E0,-1.625025630E0
1.006042589E1,-3.663411379E0,-7.727920055E0,-5.021936297E-1
1.007013746E1,-4.039084435E0,-7.914559841E0,-3.320041299E-1
1.007984991E1,-4.259523392E0,-8.266604424E0,-7.175477147E-1
1.008956303E1,-4.558626175E0,-8.566005707E0,-1.100698471E0
1.009927537E1,-4.678566456E0,-8.592327118E0,-1.665703654E0
1.010898694E1,-4.819743156E0,-8.518149376E0,-2.213959217E0
1.011869938E1,-4.757529736E0,-8.731110573E0,-2.331207514E0
1.012841251E1,-4.668995380E0,-9.001500130E0,-1.790130496E0
1.013812485E1,-4.369593143E0,-9.291330338E0,-9.714859724E-1
1.014783642E1,-3.665804386E0,-9.592825890E0,-3.993022740E-1
1.015754876E1,-3.134298563E0,-9.820443153E0,-1.357926875E-1
1.016726199E1,-2.767897606E0,-9.717552185E0,2.665006220E-1
1.017697428E1,-2.150250196E0,-9.949655533E0,5.727819204E-1
1.018668589E1,-2.123929262E0,-9.669695854E0,6.158527136E-1
1.019639824E1,-2.425724030E0,-9.437292099E0,2.018944174E-1
1.020611147E1,-2.789433002E0,-9.300901413E0,-1.932204217E-1
1.021582376E1,-3.227618694E0,-9.142974854E0,-4.447658956E-1
1.022553532E1,-3.553341627E0,-8.953642845E0,-7.893323898E-1
1.023524777E1,-3.656233072E0,-8.810073853E0,-1.002592683E0
1.024496095E1,-3.783052683E0,-8.953642845E0,-8.826524615E-1
1.025467324E1,-3.498306751E0,-9.250652313E0,-2.673979402E-1
1.026438480E1,-3.146262646E0,-9.633803368E0,2.641077936E-1
1.027409725E1,-2.653042078E0,-9.944869995E0,3.909274042E-1
1.028381037E1,-2.219642162E0,-1.019162941E1,2.497508675E-1
1.029352272E1,-2.449652195E0,-1.001186943E1,4.124628007E-1
1.030323428E1,-2.631506681E0,-1.030409241E1,4.316053987E-1
1.031294662E1,-2.822932482E0,-1.015304565E1,4.986044168E-1
1.032265985E1,-3.330509901E0,-1.000469017E1,4.507479668E-1
1.033237214E1,-3.548556089E0,-9.901799202E0,2.784647346E-1
1.034208376E1,-3.421437263E0,-9.861121178E0,-1.214357466E-1
1.035179610E1,-2.928216696E0,-9.964012146E0,-1.238285750E-1
1.036150933E1,-2.765504837E0,-9.975976944E0,3.071786165E-1
1.037122162E1,-2.353640079E0,-1.035434151E1,6.948158741E-1
1.038093319E1,-2.586043119E0,-9.985548019E0,7.307082415E-1
1.039064563E1,-2.978765011E0,-9.681659698E0,3.095714152E-1
1.040035876E1,-3.225225925E0,-9.315258980E0,-1.860419661E-1
1.041007110E1,-3.320938826E0,-9.023035049E0,-5.069792867E-1
1.041978267E1,-3.342474222E0,-8.812466621E0,-7.725825906E-1
1.042949501E1,-3.383152008E0,-8.637790680E0,-7.893323898E-1
1.043920824E1,-3.414258718E0,-8.601898193E0,-5.356931686E-1
1.044892053E1,-3.527020693E0,-8.848359108E0,-9.032905847E-2
1.045863214E1,-3.522234917E0,-9.020642281E0,4.244269133E-1
1.046834449E1,-3.227618694E0,-8.970393181E0,8.386843204E-1
1.047805772E1,-3.383152008E0,-9.363115311E0,1.063609719E0
1.048777001E1,-3.277868032E0,-9.281759262E0,1.317547917E0
1.049748157E1,-3.098406315E0,-9.279366493E0,1.264606714E0
1.050719402E1,-3.009871721E0,-9.298508644E0,9.559326172E-1
1.051690720E1,-2.901895761E0,-9.315258980E0,6.326025128E-1
1.052661949E1,-2.971586704E0,-9.260223389E0,4.148556292E-1
1.053633105E1,-2.820539713E0,-9.253045082E0,2.114657015E-1
1.054604350E1,-2.507079840E0,-9.418149948E0,8.913264424E-2
1.055575662E1,-2.181356907E0,-9.700801849E0,1.322034448E-1
1.056546897E1,-1.937289000E0,-9.923335075E0,1.369891018E-1
1.057518053E1,-1.927717686E0,-9.966405869E0,-1.375873014E-2
1.058489287E1,-2.104786634E0,-9.964012146E0,2.213360928E-2
1.059460610E1,-2.353640079E0,-9.841979027E0,6.520441920E-2
1.060431839E1,-2.662613392E0,-9.629017830E0,-3.511467278E-1
1.061402996E1,-2.842075109E0,-9.633803368E0,-6.481558084E-1
1.062374240E1,-3.029014349E0,-9.566504478E0,-7.031907439E-1
1.063345553E1,-3.057728291E0,-9.446864128E0,-1.060020447E0
1.064316787E1,-3.014657497E0,-9.363115311E0,-1.316052437E0
1.065287944E1,-3.179762125E0,-9.195617676E0,-1.272981644E0
1.066259188E1,-3.311367512E0,-9.068798065E0,-1.270588875E0
1.067230501E1,-3.330509901E0,-8.860322952E0,-1.232303619E0
1.068201735E1,-2.962015390E0,-8.659325600E0,-1.083948612E0
1.069172892E1,-2.600399971E0,-8.359924316E0,-1.368694544E0
1.070144126E1,-2.547757864E0,-7.883453369E0,-2.038984060E0
1.071115449E1,-2.751147747E0,-7.574779034E0,-2.450848579E0
1.072086678E1,-3.088835001E0,-7.426424026E0,-2.431705952E0
1.073057834E1,-3.122334480E0,-7.680063248E0,-2.493919373E0
1.074029079E1,-2.741576433E0,-8.228319168E0,-2.221137524E0
1.075000392E1,-2.413759947E0,-8.546863556E0,-1.275374413E0
1.075971626E1,-2.705684185E0,-8.314460754E0,-1.016949654E0
1.076942782E1,-3.237190008E0,-7.605885983E0,-1.658525229E0
1.077914027E1,-3.423830032E0,-6.727121830E0,-2.436491728E0
1.078885339E1,-3.646661758E0,-6.325127602E0,-2.652144909E0
1.079856574E1,-4.182952881E0,-6.107081413E0,-2.223530531E0
1.080827730E1,-4.925027370E0,-6.174080849E0,-1.967199326E0
1.081798964E1,-5.411069393E0,-6.157330990E0,-2.513062000E0
1.082770287E1,-5.379962444E0,-6.099903107E0,-3.135494947E0
1.083741517E1,-4.948955536E0,-6.119045734E0,-3.657429457E0
1.084712673E1,-4.498805523E0,-5.992226124E0,-4.359124660E0
1.085683918E1,-4.467699051E0,-6.066403389E0,-4.921737194E0
1.086655230E1,-4.297808647E0,-6.284449577E0,-5.199304581E0
1.087626464E1,-3.663411379E0,-6.456732750E0,-4.653441906E0
1.088597621E1,-3.493520975E0,-6.890132904E0,-3.882653952E0
1.089568855E1,-3.196511984E0,-7.948358536E0,-3.513859987E0
1.090540178E1,-2.550150633E0,-8.520542145E0,-4.090829372E0
1.091511412E1,-1.568495274E0,-8.331210136E0,-5.496313572E0
1.092482569E1,-1.147059321E0,-8.161319733E0,-6.777071953E0
1.093453803E1,-1.925324917E0,-7.495816231E0,-7.035496712E0
1.094425126E1,-2.789433002E0,-6.847062111E0,-6.915855408E0
1.095396355E1,-2.971586704E0,-6.844669342E0,-6.106782436E0
1.096367511E1,-2.305783749E0,-7.450352192E0,-4.842474937E0
1.097338756E1,-7.570292354E-1,-8.290532112E0,-3.372683525E0
1.098310074E1,5.359922647E-1,-9.054141998E0,-2.608774900E0
1.099281303E1,1.392921925E0,-9.116654396E0,-4.102793694E0
1.100252459E1,1.158425212E0,-8.249854088E0,-6.803392887E0
1.101223704E1,2.461616248E-1,-6.981060028E0,-8.744869232E0
1.102195016E1,-9.340981245E-1,-5.760122299E0,-9.161520004E0
1.103166251E1,-2.363211393E0,-4.426422596E0,-7.935796261E0
1.104137407E1,-3.361616611E0,-3.442374468E0,-6.468098640E0
1.105108642E1,-3.179762125E0,-3.341876030E0,-6.961319447E0
1.106079964E1,-1.927717686E0,-3.748954773E0,-8.553443909E0
1.107051194E1,-1.288534999E0,-4.699503899E0,-8.790332794E0
1.108022355E1,-9.556335211E-1,-5.455934525E0,-7.287042141E0
1.108993589E1,-8.670991063E-1,-5.738586903E0,-6.058926105E0
1.109964912E1,-1.055833027E-1,-5.839085579E0,-7.327720165E0
1.110936142E1,7.627122104E-2,-6.387341022E0,-9.413064957E0
1.111907298E1,-2.159522474E-1,-5.566004753E0,-9.968499184E0
1.112878543E1,-9.963115454E-1,-5.618646622E0,-9.973284721E0
1.113849855E1,-2.250748873E0,-5.199902534E0,-8.900702477E0
1.114821089E1,-3.019443035E0,-4.816751957E0,-8.848059654E0
1.115792246E1,-3.435794115E0,-4.053142548E0,-1.019342422E1
1.116763490E1,-4.154239178E0,-4.455136776E0,-1.054307556E1
1.117734803E1,-4.029513359E0,-4.014857292E0,-9.413064957E0
1.118706037E1,-3.409473181E0,-3.332304716E0,-8.986844063E0
1.119677194E1,-2.870789051E0,-2.599801779E0,-9.374779701E0
1.120648428E1,-2.257927179E0,-2.834298372E0,-1.052154064E1
1.121619751E1,-2.645863533E0,-2.865405083E0,-1.026042366E1
1.122590980E1,-2.320140600E0,-3.191128016E0,-9.472886086E0
1.123562142E1,-1.534995675E0,-4.354638100E0,-1.037288570E1
1.124533376E1,-1.247856975E0,-4.220640182E0,-1.008574772E1
1.125504699E1,-1.199701428E0,-4.634897232E0,-1.023888779E1
1.126475928E1,-1.695314884E0,-2.920739174E0,-1.057418251E1
1.127447089E1,-1.992323995E0,-2.719442844E0,-1.023888779E1
1.128418324E1,-2.190928221E0,-2.523231506E0,-9.850952148E0
1.129389647E1,-2.289033890E0,-2.458625317E0,-1.002592659E1
1.130360876E1,-2.547757864E0,-2.216650963E0,-1.054786110E1
1.131332032E1,-2.973979473E0,-1.661217093E0,-1.013360405E1
1.132303277E1,-3.182155132E0,-1.275972724E0,-1.005942631E1
1.133274595E1,-3.167798042E0,-9.741778970E-1,-1.037527943E1
1.134245824E1,-3.112763166E0,-7.731808424E-1,-1.045902824E1
1.135216980E1,-2.978765011E0,-8.880363107E-1,-1.073689461E1
1.136188225E1,-2.904288530E0,-9.885348678E-1,-1.145982552E1
1.137159537E1,-2.693720102E0,-1.405185103E0,-1.104826069E1
1.138130772E1,-2.466402054E0,-1.737787485E0,-1.098814106E1
1.139101928E1,-2.140678883E0,-1.896012783E0,-1.070818043E1
1.140073173E1,-2.267498493E0,-1.670788407E0,-1.083260727E1
1.141044485E1,-2.590828657E0,-1.328614831E0,-1.101924706E1
1.142015720E1,-2.794218540E0,-1.230509043E0,-1.109611702E1
1.142986876E1,-3.100799084E0,-1.072283626E0,-1.155314636E1
1.143958121E1,-3.249154091E0,-9.574281573E-1,-1.180708408E1
1.144929433E1,-3.163012505E0,-9.885348678E-1,-1.154596710E1
1.145900668E1,-3.031407118E0,-1.048355460E0,-1.156032467E1
1.146871824E1,-2.796611547E0,-1.151246786E0,-1.131147099E1
1.147843058E1,-2.653042078E0,-1.136889815E0,-1.166112232E1
1.148814381E1,-2.688934565E0,-1.112961650E0,-1.140718365E1
1.149785616E1,-2.808575630E0,-1.122532964E0,-1.137129116E1
1.150756772E1,-2.842075109E0,-1.093819022E0,-1.119182968E1
1.151728006E1,-2.868396044E0,-1.134497046E0,-1.114397335E1
1.152699329E1,-3.055335522E0,-1.170389414E0,-1.131386375E1
1.153670563E1,-3.098406315E0,-1.275972724E0,-1.108415222E1
1.154641720E1,-3.060121059E0,-1.448255897E0,-1.100967598E1
1.155612954E1,-2.748754978E0,-1.668395638E0,-1.085174942E1
1.156584277E1,-2.870789051E0,-1.744965911E0,-1.144068336E1
1.157555506E1,-2.801397085E0,-1.843370795E0,-1.116790104E1
1.158526668E1,-2.653042078E0,-2.006082773E0,-1.082542896E1
1.159497902E1,-2.569293261E0,-2.113759756E0,-1.104347515E1
1.160469225E1,-2.679363251E0,-2.327019930E0,-1.085892868E1
1.161440454E1,-2.681756020E0,-2.721835852E0,-1.094507027E1
1.162411616E1,-2.344068766E0,-3.104986429E0,-1.062682438E1
1.163382850E1,-2.272284269E0,-3.416053534E0,-1.082303619E1
1.164354173E1,-2.186142683E0,-3.569493294E0,-1.106979561E1
1.165325402E1,-1.776670814E0,-3.617349625E0,-1.050479031E1
1.166296563E1,-1.417747378E0,-3.832703590E0,-1.042313576E1
1.167267798E1,-1.240379453E0,-4.022035599E0,-1.046620655E1
1.168239121E1,-9.460622668E-1,-4.053142548E0,-1.017188931E1
1.169210350E1,-7.259225845E-1,-4.476672173E0,-9.850952148E0
1.170181506E1,-1.178166032E0,-4.591826439E0,-9.757631302E0
1.171152751E1,-1.697707653E0,-4.407280445E0,-9.874879837E0
1.172124069E1,-2.085644007E0,-4.282853603E0,-1.006660461E1
1.173095298E1,-2.382653236E0,-4.093820572E0,-9.614062309E0
1.174066454E1,-2.339283228E0,-4.153641224E0,-9.413064957E0
1.175037699E1,-2.293819666E0,-4.357030869E0,-8.888737679E0
1.176009017E1,-2.248355865E0,-4.797609329E0,-8.366803169E0
1.176980246E1,-2.233999014E0,-5.152046204E0,-8.175078392E0
1.177951402E1,-2.269891262E0,-5.522933960E0,-7.871190071E0
1.178922647E1,-2.320140600E0,-5.975476265E0,-7.818548203E0
1.179893964E1,-1.568495274E0,-6.638587475E0,-7.514360428E0
1.180865194E1,-1.027418256E0,-7.495816231E0,-7.368398190E0
1.181836350E1,-1.927717686E0,-7.134200573E0,-7.648358345E0
1.182807595E1,-2.837289333E0,-6.916453838E0,-7.471289635E0
1.183778907E1,-2.892324448E0,-6.880561352E0,-6.810571671E0
1.184750142E1,-3.146262646E0,-6.729514599E0,-6.358028889E0
1.185721298E1,-3.562912941E0,-6.590730667E0,-6.106782436E0
1.186692543E1,-3.625126362E0,-6.509375095E0,-5.687739372E0
1.187663855E1,-3.261118174E0,-6.449554443E0,-5.513063431E0
1.188635089E1,-2.641077995E0,-6.593123913E0,-5.213661671E0
1.189606246E1,-1.791027784E0,-6.719943523E0,-5.091627598E0
1.190577491E1,-8.599206209E-1,-6.636194706E0,-4.782654285E0
1.191548803E1,-7.761718631E-1,-6.533303261E0,-4.399802685E0
1.192520037E1,-1.463211060E0,-6.190830231E0,-4.998307228E0
1.193491194E1,-1.534995675E0,-6.176473618E0,-5.489135265E0
1.194462438E1,-1.750349760E0,-6.181259155E0,-5.283053398E0
1.195433751E1,-2.128714800E0,-5.999404430E0,-4.634299278E0
1.196404985E1,-2.631506681E0,-5.745765209E0,-4.016652107E0
1.197376142E1,-3.620340586E0,-5.309972763E0,-3.712464333E0
1.198347386E1,-3.586841106E0,-5.355436325E0,-4.440480709E0
1.199318699E1,-2.813361168E0,-5.417649746E0,-4.938487053E0
1.200289933E1,-1.783849239E0,-5.075176716E0,-4.452444553E0
1.201261089E1,-8.766704202E-1,-4.948357105E0,-3.702893019E0
1.202232324E1,-9.484550953E-1,-5.755336761E0,-2.886641502E0
1.203203647E1,-1.185344458E0,-6.518946171E0,-2.441277266E0
1.204174881E1,-1.563709617E0,-7.088737011E0,-3.094816923E0
1.205146037E1,-1.980359793E0,-7.725526810E0,-3.662214994E0
1.206117282E1,-3.354438305E0,-7.222734928E0,-3.109174013E0
1.207088595E1,-4.676173687E0,-6.743871689E0,-2.618346214E0
1.208059829E1,-4.156631947E0,-6.918846607E0,-3.123530865E0
1.209030985E1,-2.901895761E0,-7.339983463E0,-3.279363394E0
1.210002230E1,-2.140678883E0,-7.491030216E0,-2.939283609E0
1.210973543E1,-2.260320187E0,-7.433602810E0,-2.841177702E0
1.211944777E1,-2.863610506E0,-7.766204834E0,-3.401397467E0
1.212915933E1,-3.718446493E0,-8.477172852E0,-3.578466177E0
1.213887168E1,-4.070490360E0,-8.826823235E0,-3.334398270E0
1.214858490E1,-3.646661758E0,-9.190832138E0,-2.541775942E0
1.215829725E1,-3.478864908E0,-9.312865257E0,-1.012163997E0
1.216800881E1,-3.375973701E0,-9.121439934E0,5.802594870E-2
1.217772116E1,-3.495913982E0,-8.637790680E0,4.172484577E-1
1.218743438E1,-3.929014683E0,-8.261817932E0,3.095714152E-1
1.219714673E1,-4.273880482E0,-8.379066467E0,-4.247260094E-2
1.220685829E1,-4.048655987E0,-8.546863556E0,-3.921238184E-1
1.221657063E1,-3.799802303E0,-8.673683167E0,-9.257232547E-1
1.222628386E1,-3.620340586E0,-8.493922234E0,-1.272981644E0
1.223599621E1,-3.349652529E0,-8.592327118E0,-1.462014675E0
1.224570777E1,-3.189333439E0,-8.637790680E0,-1.490728498E0
1.225542011E1,-2.875574589E0,-8.903393745E0,-1.493121386E0
1.226513334E1,-2.688934565E0,-9.621838570E0,-9.113663435E-1
1.227484563E1,-2.351247311E0,-1.048594666E1,3.574278951E-1
1.228455725E1,-2.171785593E0,-1.105334473E1,1.487438321E0
1.229426959E1,-2.353640079E0,-1.112512970E1,1.475474238E0
1.230398282E1,-2.772683144E0,-1.074706364E1,6.613163352E-1
1.231369511E1,-2.923431158E0,-1.049312592E1,-3.702892959E-1
1.232340673E1,-3.378366470E0,-9.949655533E0,-1.292124271E0
1.233311907E1,-3.711267948E0,-9.679266930E0,-1.541276932E0
1.234283230E1,-3.952943087E0,-9.717552185E0,-1.488335729E0
1.235254459E1,-3.885943890E0,-9.815657616E0,-1.069591761E0
1.236225621E1,-4.010370731E0,-9.937691689E0,-3.104687333E-1
1.237196855E1,-3.976871252E0,-1.033519936E1,6.828517914E-1
1.238168178E1,-4.096811295E0,-1.021795082E1,1.525723577E0
1.239139407E1,-4.056133270E0,-1.004058266E1,1.573580027E0
1.240110569E1,-3.763910055E0,-9.774979591E0,1.322333574E0
1.241081803E1,-3.373580933E0,-9.497113228E0,9.846464992E-1
1.242053126E1,-3.017050266E0,-9.150154114E0,4.100699723E-1
1.243024360E1,-2.748754978E0,-8.826823235E0,-5.922235921E-2
1.243995516E1,-2.681756020E0,-8.532505989E0,-4.304089844E-1
1.244966751E1,-3.038585663E0,-8.292924881E0,-7.271189690E-1
1.245938074E1,-3.399901867E0,-8.331210136E0,-7.151548862E-1
1.246909308E1,-3.608376503E0,-8.599505424E0,-4.734797776E-1
1.247880464E1,-3.672982693E0,-8.939286232E0,-9.032905847E-2
1.248851699E1,-3.591626883E0,-9.346364975E0,3.837489188E-1
1.249823022E1,-3.435794115E0,-9.712766647E0,8.338986635E-1
1.250794256E1,-3.361616611E0,-9.971191406E0,1.180858016E0
1.251765412E1,-3.155833960E0,-9.961619377E0,1.068395257E0
1.252736657E1,-2.959622622E0,-9.767801285E0,6.373881102E-1
1.253707970E1,-2.775076151E0,-9.578469276E0,1.947159469E-1
1.254679204E1,-2.600399971E0,-9.480362892E0,-1.740778536E-1
1.255650360E1,-2.466402054E0,-9.451649666E0,-3.511467278E-1
1.256621605E1,-2.533401012E0,-9.487542152E0,-3.176472187E-1
1.257592918E1,-2.662613392E0,-9.583254814E0,-7.597211748E-2
1.258564152E1,-2.705684185E0,-9.739087105E0,2.210369855E-1
1.259535308E1,-2.846860647E0,-9.789336205E0,5.775675774E-1
1.260506553E1,-3.014657497E0,-9.751050949E0,7.908278704E-1
1.261477866E1,-3.076870918E0,-9.664909363E0,6.613163352E-1
1.262449100E1,-3.136691332E0,-9.533005714E0,2.641077936E-1
1.263420256E1,-3.127120018E0,-9.394221306E0,-1.740778536E-1
1.264391501E1,-3.112763166E0,-9.164510727E0,-6.026921868E-1
1.265362819E1,-2.995514870E0,-8.968000412E0,-6.840481758E-1
1.266334048E1,-2.782254457E0,-8.884251595E0,-8.324031830E-1
1.267305204E1,-2.854039192E0,-9.020642281E0,-1.306481123E0
1.268276449E1,-2.655434847E0,-9.238688469E0,-1.246660590E0
1.269247766E1,-2.483151674E0,-9.298508644E0,-8.467600942E-1
1.270218996E1,-2.502294302E0,-9.198010445E0,-9.427721500E-1
1.271190157E1,-2.612364054E0,-8.917751312E0,-7.725825906E-1
1.272161392E1,-3.060121059E0,-8.582756042E0,-6.720840335E-1
1.273132714E1,-3.625126362E0,-8.111070633E0,-1.282552958E0
1.274103944E1,-3.984049797E0,-7.682456017E0,-2.163709879E0
1.275075105E1,-4.218845367E0,-7.514958382E0,-2.527418852E0
1.276046339E1,-4.285844326E0,-7.524529934E0,-2.546561480E0
1.277017662E1,-4.075275898E0,-7.519744396E0,-2.970390320E0
1.277988892E1,-3.905086517E0,-7.330412388E0,-3.592823267E0
1.278960053E1,-3.871587038E0,-6.868597507E0,-4.342374802E0
1.279931287E1,-4.309772491E0,-6.341877460E0,-4.765904427E0
1.280902610E1,-4.647459984E0,-6.035296917E0,-4.521836758E0
1.281873845E1,-4.467699051E0,-6.361020088E0,-3.317648649E0
1.282845001E1,-3.301796198E0,-7.268198967E0,-8.635098934E-1
1.283816246E1,-2.655434847E0,-7.677670479E0,2.976073027E-1
1.284787558E1,-2.892324448E0,-7.392924786E0,-5.667998791E-1
1.285758793E1,-3.510270834E0,-7.040880680E0,-1.933699846E0
1.286729949E1,-4.462913513E0,-6.753442764E0,-3.137887716E0
1.287701194E1,-5.133202553E0,-6.573981285E0,-4.227220535E0
1.288672511E1,-5.183751106E0,-6.609873295E0,-4.488337040E0
1.289643740E1,-4.795814991E0,-6.827919483E0,-4.232006073E0
1.290614902E1,-3.869194269E0,-6.861418724E0,-4.117150307E0
1.291586136E1,-2.703291416E0,-7.026523590E0,-4.023830414E0
1.292557459E1,-1.697707653E0,-7.500601768E0,-3.918546200E0
1.293528688E1,-1.350748420E0,-8.024929047E0,-3.686143398E0
1.294499850E1,-1.690529227E0,-8.594719887E0,-3.056531906E0
1.295471084E1,-2.262712955E0,-9.027820587E0,-2.932105064E0
1.296442407E1,-2.432902336E0,-9.332008362E0,-4.409373760E0
1.297413642E1,-1.628315806E0,-9.727123260E0,-6.269494534E0
1.298384798E1,-5.174478889E-1,-1.005254745E1,-6.616752625E0
1.299356032E1,-2.691925503E-3,-1.009083176E1,-6.111567974E0
1.300327355E1,1.645065658E-2,-9.544969559E0,-4.739583492E0
1.301298589E1,-6.179464459E-1,-8.656932831E0,-3.971188307E0
1.302269746E1,-1.310070395E0,-7.591528893E0,-4.562514782E0
1.303240991E1,-2.174178362E0,-6.294020653E0,-6.269494534E0
1.304212308E1,-2.559721947E0,-5.362614632E0,-7.418647289E0
1.305183537E1,-2.918645382E0,-4.749752998E0,-7.854440212E0
1.306154694E1,-2.609971285E0,-4.776073933E0,-8.160721779E0
1.307125938E1,-1.829612017E0,-4.969892502E0,-6.915855408E0
1.308097256E1,-1.245165110E0,-5.362614632E0,-5.857629776E0
1.309068485E1,-7.187440991E-1,-5.743372440E0,-5.965306759E0
1.310039647E1,-6.155536175E-1,-5.420042515E0,-6.470491409E0
1.311010881E1,-1.130309582E0,-4.969892502E0,-7.935796261E0
1.311982204E1,-1.700100541E0,-4.555634975E0,-8.472087860E0
1.312953438E1,-2.454437733E0,-4.435994148E0,-8.065009117E0
1.313924595E1,-3.438187122E0,-4.390530586E0,-8.280661583E0
1.314895829E1,-4.290630341E0,-4.199104786E0,-7.902296543E0
1.315867152E1,-4.197309971E0,-4.211068630E0,-7.677371502E0
1.316838386E1,-2.741576433E0,-4.735395908E0,-8.062616348E0
1.317809543E1,-1.173380375E0,-5.221437931E0,-8.840881348E0
1.318780787E1,-5.748756528E-1,-4.740181446E0,-1.052393341E1
1.319752105E1,-1.326820135E0,-3.689134359E0,-1.032263660E1
1.320723334E1,-2.358425856E0,-3.064308405E0,-8.950951576E0
1.321694496E1,-2.562114954E0,-2.592623234E0,-9.283554077E0
1.322665730E1,-2.428116798E0,-2.573480844E0,-9.460921288E0
1.323637053E1,-2.289033890E0,-3.002095222E0,-9.690632820E0
1.324608282E1,-1.779063582E0,-3.449851990E0,-1.049043369E1
1.325579444E1,-1.795813441E0,-3.512065411E0,-1.017906761E1
1.326550678E1,-1.939681888E0,-3.576671600E0,-9.142376900E0
1.327522001E1,-1.776670814E0,-3.425624609E0,-9.647562027E0
1.328493235E1,-1.977967024E0,-3.236591816E0,-9.896415710E0
1.329464392E1,-2.279462576E0,-2.807977438E0,-1.095224857E1
1.330435636E1,-2.104786634E0,-3.090629578E0,-1.109372425E1
1.331406949E1,-2.588435888E0,-2.511267424E0,-9.877272606E0
1.332378183E1,-2.904288530E0,-2.796013355E0,-1.033699417E1
1.333349339E1,-3.423830032E0,-2.396411896E0,-1.074885845E1
1.334320584E1,-3.330509901E0,-2.221436739E0,-1.063639545E1
1.335291902E1,-2.837289333E0,-2.199901342E0,-1.057896805E1
1.336263131E1,-2.624328136E0,-2.231008053E0,-1.033938694E1
1.337234293E1,-3.364009619E0,-1.658824325E0,-1.054068279E1
1.338205527E1,-3.634697676E0,-2.010868311E0,-1.069860935E1
1.339176850E1,-3.457329512E0,-2.259721994E0,-1.063878822E1
1.340148084E1,-3.136691332E0,-2.266900301E0,-1.136411285E1
1.341119241E1,-2.993122101E0,-2.199901342E0,-1.099053383E1
1.342090475E1,-3.062513828E0,-2.030010939E0,-1.124925709E1
1.343061798E1,-3.323331594E0,-1.979761600E0,-1.148614693E1
1.344033032E1,-3.529413462E0,-1.927119493E0,-1.095942688E1
1.345004188E1,-3.646661758E0,-1.891227245E0,-1.109850979E1
1.345975433E1,-3.490829229E0,-1.869691849E0,-1.132104206E1
1.346946751E1,-2.916252613E0,-1.924726725E0,-1.125882912E1
1.347917980E1,-2.492722988E0,-1.958226204E0,-1.117029476E1
1.348889142E1,-2.353640079E0,-1.886441588E0,-1.119900799E1
1.349860376E1,-2.444866419E0,-1.773978829E0,-1.129711437E1
1.350831699E1,-2.712862730E0,-1.673181176E0,-1.166351509E1
1.351802928E1,-2.801397085E0,-1.627717614E0,-1.141675472E1
1.352774089E1,-2.863610506E0,-1.390828133E0,-1.119661522E1
1.353745324E1,-2.789433002E0,-1.110568762E0,-1.117508030E1
1.354716647E1,-2.688934565E0,-1.053141117E0,-1.063400269E1
1.355687881E1,-2.717648268E0,-1.084247708E0,-1.062921715E1
1.356659037E1,-2.990729094E0,-1.194317579E0,-1.100728321E1
1.357630282E1,-3.115155935E0,-1.536790371E0,-1.103121185E1
1.358601600E1,-3.093620539E0,-1.967797518E0,-1.119661522E1
1.359572829E1,-2.844467878E0,-2.300399780E0,-1.119661522E1
1.360543990E1,-2.617149830E0,-2.542374134E0,-1.071057320E1
1.361515225E1,-2.619542599E0,-2.513660192E0,-1.086371422E1
1.362486548E1,-2.832503796E0,-2.461018085E0,-1.066510963E1
1.363457777E1,-2.877967358E0,-2.367697954E0,-1.067228794E1
1.364428938E1,-3.215654612E0,-2.413161755E0,-1.053829002E1
1.365400183E1,-3.251546860E0,-2.621337175E0,-1.029631615E1
1.366371496E1,-3.251546860E0,-2.829512835E0,-1.066032410E1
1.367342730E1,-3.227618694E0,-3.102593660E0,-1.023888779E1
1.368313886E1,-3.067299604E0,-3.325126171E0,-1.027717304E1
1.369285131E1,-2.846860647E0,-3.612564087E0,-1.063878822E1
1.370256449E1,-2.595614433E0,-3.906881094E0,-1.007378292E1
1.371227678E1,-2.416152716E0,-4.103391647E0,-9.860523224E0
1.372198839E1,-2.284248352E0,-4.340281010E0,-1.008574772E1
1.373170074E1,-2.317747831E0,-4.570291042E0,-9.987641335E0
1.374141397E1,-2.250748873E0,-4.548456669E0,-9.669096947E0
1.375112631E1,-1.968395710E0,-4.744967461E0,-9.990034103E0
1.376083787E1,-1.894218206E0,-4.697110653E0,-9.503992081E0
1.377055032E1,-1.872682810E0,-4.677968502E0,-9.254839897E0
1.378026345E1,-1.534995675E0,-4.821537495E0,-8.881559372E0
1.378997579E1,-1.336391449E0,-4.948357105E0,-8.627620697E0
1.379968735E1,-1.647458434E0,-4.888536453E0,-8.601300240E0
1.380939980E1,-2.047358990E0,-4.931607246E0,-8.555836678E0
1.381911298E1,-2.360818624E0,-5.094319344E0,-8.124829292E0
1.382882527E1,-2.708076954E0,-5.372185707E0,-7.301399231E0
1.383853688E1,-3.105584621E0,-5.412863731E0,-7.157829762E0
1.384824923E1,-3.445365429E0,-5.226223946E0,-7.358827114E0
1.385796246E1,-3.735196114E0,-5.298008442E0,-7.301399231E0
1.386767480E1,-3.598805189E0,-5.673681736E0,-6.693323135E0
1.387738636E1,-3.426223040E0,-5.903691769E0,-6.264708996E0
1.388709881E1,-3.550948858E0,-6.087938786E0,-6.238387585E0
1.389681199E1,-3.534198999E0,-6.303592205E0,-6.252744675E0
1.390652428E1,-3.098406315E0,-6.684051037E0,-5.618347645E0
1.391623589E1,-2.305783749E0,-7.158128738E0,-5.055735111E0
1.392594824E1,-1.448854089E0,-7.541279793E0,-5.084448814E0
1.393566147E1,-8.264211416E-1,-7.445566654E0,-5.058127880E0
1.394537381E1,-6.299105883E-1,-7.591528893E0,-4.828117847E0
1.395508537E1,-1.235593796E0,-7.320840836E0,-4.473979950E0
1.396479782E1,-1.647458434E0,-6.861418724E0,-4.212863445E0
1.397451095E1,-2.035394669E0,-6.413661957E0,-4.131507397E0
1.398422329E1,-2.413759947E0,-5.831906796E0,-4.093222141E0
1.399393491E1,-2.281855583E0,-5.712265968E0,-4.093222141E0
1.400364725E1,-2.626721144E0,-6.236293793E0,-4.229613304E0
1.401336048E1,-3.019443035E0,-6.411269188E0,-4.392624378E0
1.402307282E1,-3.280260801E0,-6.518946171E0,-4.445266247E0
1.403278438E1,-3.263510942E0,-6.609873295E0,-4.323232174E0
1.404249683E1,-2.997907639E0,-6.719943523E0,-4.339982033E0
1.405220996E1,-2.416152716E0,-6.774978161E0,-4.328018188E0
1.406192230E1,-1.740778446E0,-6.945167542E0,-4.162613869E0
1.407163386E1,-1.168594718E0,-7.091129780E0,-3.343969584E0
1.408134631E1,-1.255035520E0,-7.203592777E0,-2.144567251E0
1.409105949E1,-1.987538338E0,-7.349554539E0,-1.485942841E0
1.410077178E1,-2.988336325E0,-7.692027569E0,-1.916949987E0
1.411048339E1,-3.285046339E0,-8.089534760E0,-2.615953445E0
1.412019574E1,-2.993122101E0,-8.448458672E0,-3.104388237E0
1.412990897E1,-2.892324448E0,-8.537292480E0,-3.767798424E0
1.413962131E1,-3.043371201E0,-8.285746574E0,-3.964009762E0
1.414933287E1,-3.442972660E0,-7.881060600E0,-4.304089546E0
1.415904532E1,-3.498306751E0,-7.443173885E0,-4.153042793E0
1.416875850E1,-3.869194269E0,-7.074379921E0,-3.214757204E0
1.417847079E1,-4.123132706E0,-6.916453838E0,-2.252244234E0
1.418818241E1,-3.905086517E0,-7.201199532E0,-1.392622828E0
1.419789475E1,-3.498306751E0,-7.977072716E0,-6.481558084E-1
1.420760798E1,-3.464508057E0,-8.577970505E0,-3.873381615E-1
1.421732032E1,-3.988835335E0,-8.908179283E0,-4.447658956E-1
1.422703188E1,-4.776672363E0,-8.867501259E0,-7.821539044E-1
1.423674433E1,-4.958526611E0,-8.889037132E0,-1.232303619E0
1.424645746E1,-4.716851711E0,-8.982357025E0,-1.323230863E0
1.425616980E1,-4.242773533E0,-9.083154678E0,-1.292124271E0
1.426588142E1,-3.615555048E0,-9.075976372E0,-9.762716293E-1
1.427559376E1,-2.801397085E0,-9.413364410E0,-5.333003402E-1
1.428530699E1,-2.080858469E0,-9.643374443E0,1.016949583E-2
1.429501928E1,-1.800599098E0,-9.830014229E0,6.493522525E-1
1.430473089E1,-2.054537296E0,-9.956833839E0,1.214357495E0
1.431444324E1,-2.935694218E0,-9.660123825E0,1.054038405E0
1.432415647E1,-3.804588079E0,-9.171689034E0,1.633101404E-1
1.433386881E1,-4.132703781E0,-8.881858826E0,-7.701897621E-1
1.434358037E1,-4.094418526E0,-8.960822105E0,-1.040877819E0
1.435329282E1,-4.039084435E0,-8.951250076E0,-4.902295470E-1
1.436300600E1,-3.512663603E0,-9.360722542E0,4.866403043E-1
1.437271829E1,-2.782254457E0,-9.629017830E0,1.082752228E0
1.438242990E1,-2.416152716E0,-9.770194054E0,1.302891970E0
1.439214225E1,-2.097608089E0,-9.473184586E0,1.243071318E0
1.440185548E1,-2.406581402E0,-9.399007797E0,8.386843204E-1
1.441156782E1,-2.866003275E0,-9.207581520E0,6.661019921E-1
1.442127938E1,-3.478864908E0,-8.968000412E0,6.278168559E-1
1.443099183E1,-3.960121393E0,-9.255437851E0,1.417747438E-1
1.444070501E1,-4.106382847E0,-9.590433121E0,-3.200400174E-1
1.445041730E1,-4.130311012E0,-9.806086540E0,-8.706883192E-1
1.446012892E1,-4.015156269E0,-1.004058266E1,-1.083948612E0
1.446984126E1,-3.806980848E0,-1.021077251E1,-9.427721500E-1
1.447955449E1,-3.546163082E0,-1.032323551E1,-7.845467329E-1
1.448926683E1,-3.431008577E0,-1.022752190E1,-4.088735580E-1
1.449897839E1,-3.148655415E0,-9.892228127E0,-4.247260094E-2
1.450869084E1,-3.117548704E0,-9.322437286E0,1.010967568E-1
1.451840397E1,-3.232404232E0,-8.762217522E0,6.041877344E-2
1.452811631E1,-3.586841106E0,-8.302495956E0,-5.204389244E-2
1.453782793E1,-3.850051641E0,-8.012965202E0,3.649054468E-2
1.454754027E1,-4.068097591E0,-7.989036560E0,4.220340848E-1
1.455725350E1,-4.000799656E0,-8.213961601E0,6.445665956E-1
1.456696584E1,-3.713660717E0,-8.613862038E0,4.387838542E-1
1.457667741E1,-3.421437263E0,-9.044570923E0,2.880360186E-1
1.458638985E1,-3.098406315E0,-9.525827408E0,1.947159469E-1
1.459610298E1,-2.712862730E0,-9.908977509E0,5.383851007E-3
1.460581532E1,-2.356033087E0,-1.015304565E1,-1.477568001E-1
1.461552688E1,-2.004287958E0,-1.026819992E1,-1.477568001E-1
1.462523933E1,-1.738385677E0,-1.026341438E1,1.016949583E-2
1.463495251E1,-1.812862277E0,-1.013629627E1,1.995015889E-1
1.464466480E1,-2.133500576E0,-9.944869995E0,3.502494097E-1
1.465437642E1,-2.519043922E0,-9.703194618E0,2.330010980E-1
1.466408876E1,-2.837289333E0,-9.533005714E0,6.999006122E-2
1.467380199E1,-3.160619497E0,-9.420542717E0,-8.793623000E-2
1.468351433E1,-3.277868032E0,-9.324830055E0,-1.692921966E-1
1.469322589E1,-3.428615808E0,-9.171689034E0,-2.315055877E-1
1.470293834E1,-3.493520975E0,-9.049356461E0,-2.769692242E-1
1.471265152E1,-3.574877024E0,-9.030213356E0,-2.362912297E-1
1.472236381E1,-3.708875179E0,-9.006285667E0,-5.443671346E-2
1.473207543E1,-3.804588079E0,-9.027820587E0,6.281159073E-2
1.474178777E1,-3.885943890E0,-9.099904060E0,1.633101404E-1
1.475150100E1,-3.871587038E0,-9.200403214E0,2.425723970E-1
1.476121334E1,-3.833301783E0,-9.420542717E0,2.952145040E-1
1.477092491E1,-3.787838221E0,-9.600004196E0,3.454637825E-1
1.478063735E1,-3.876372576E0,-9.669695854E0,1.369891018E-1
1.479035053E1,-3.996013880E0,-9.609575272E0,5.982056609E-4
1.480006282E1,-4.046263218E0,-9.523433685E0,-3.849453330E-1
1.480977438E1,-3.842873096E0,-9.420542717E0,-8.300103545E-1
1.481948683E1,-3.622733593E0,-9.276973724E0,-1.337587833E0
1.482920001E1,-3.282653570E0,-9.205188751E0,-1.893021822E0
1.483891230E1,-3.103191853E0,-9.209974289E0,-1.842772484E0
1.484862392E1,-2.873181820E0,-9.164510727E0,-1.227517962E0
1.485833626E1,-2.748754978E0,-9.080761909E0,-8.491529226E-1
1.486804949E1,-2.715255499E0,-8.838788033E0,-1.064806104E0
1.487776183E1,-2.533401012E0,-8.575576782E0,-1.430907965E0
1.488747339E1,-2.260320187E0,-8.266604424E0,-1.603490233E0
1.489718584E1,-2.279462576E0,-7.814061642E0,-1.950449586E0
1.490689902E1,-2.478366137E0,-7.376174927E0,-2.613560438E0
1.491661131E1,-2.382653236E0,-7.038487911E0,-2.826820850E0
1.492632293E1,-2.298605204E0,-6.961917400E0,-2.685644388E0
1.493603527E1,-2.397010088E0,-6.887740135E0,-3.008675337E0
1.494574850E1,-2.367997169E0,-6.571588516E0,-3.901796341E0
1.495546084E1,-2.578864574E0,-6.080760479E0,-4.801796913E0
1.496517240E1,-3.531806231E0,-5.774479389E0,-5.024628639E0
1.497488485E1,-4.628317356E0,-5.585147381E0,-3.743870020E0
1.498459798E1,-5.686244011E0,-5.487041473E0,-1.979163408E0
1.499431032E1,-6.272784710E0,-5.680860043E0,-1.067198873E0
1.500402194E1,-5.487639427E0,-6.528517246E0,-7.797610760E-1
1.501373428E1,-4.707280159E0,-7.366304398E0,-2.642573595E0
1.502344751E1,-3.383152008E0,-7.811668396E0,-3.669393539E0
1.503315985E1,-1.851147413E0,-8.276175499E0,-2.369492531E0
1.504287142E1,-1.597209096E0,-8.424530029E0,-6.194419861E-1
1.505258386E1,-3.007478952E0,-7.634599686E0,-4.591228366E-1
1.506229699E1,-5.073382378E0,-6.365805626E0,-2.855534792E0
