"Time (s)","Gyroscope x (rad/s)","Gyroscope y (rad/s)","Gyroscope z (rad/s)"
4.216313400E-2,1.933026195E0,-1.349514365E0,1.137702987E-1
5.187553000E-2,2.255553484E0,-1.187028885E0,-2.209739983E-1
6.158870700E-2,2.257996798E0,-1.169925213E0,-1.085781008E-1
7.130099800E-2,2.303199530E0,-1.074633002E0,-1.328592747E-2
8.101256100E-2,2.352067471E0,-9.927794933E-1,4.169032723E-2
9.072490500E-2,2.382609844E0,-9.585720897E-1,3.191677108E-2
1.004381340E-1,2.377722979E0,-9.109259844E-1,-6.948387623E-2
1.101504260E-1,2.334963560E0,-8.388460279E-1,-2.759502530E-1
1.198620400E-1,2.273878813E0,-7.850914598E-1,-5.166240931E-1
1.295743840E-1,2.238449812E0,-7.643226385E-1,-6.216897964E-1
1.392875610E-1,2.286095858E0,-7.227849960E-1,-5.691569448E-1
1.489999050E-1,2.343515396E0,-7.301151752E-1,-4.530959427E-1
1.587114670E-1,2.361840963E0,-7.875348330E-1,-3.639122546E-1
1.684238110E-1,2.304421186E0,-8.351809382E-1,-3.333698809E-1
1.781370400E-1,2.138270855E0,-8.034168482E-1,-3.150444627E-1
1.878493320E-1,1.955016613E0,-7.288935184E-1,-2.954973578E-1
1.975608940E-1,1.853615999E0,-6.714738607E-1,-3.089359999E-1
2.072732380E-1,1.816965222E0,-6.714738607E-1,-3.822376728E-1
2.169864670E-1,1.809635043E0,-6.946860552E-1,-4.433223903E-1
2.266987590E-1,1.790087938E0,-6.922426820E-1,-5.288410187E-1
2.364103210E-1,1.790087938E0,-6.336013079E-1,-6.791094542E-1
2.461226650E-1,1.829182148E0,-5.163186193E-1,-8.110524416E-1
2.558358940E-1,1.896375299E0,-3.831539452E-1,-8.745805621E-1
2.655481860E-1,1.946464777E0,-2.951919436E-1,-8.660287261E-1
2.752597480E-1,1.902483821E0,-2.756448388E-1,-7.634063363E-1
2.849721960E-1,1.739998460E0,-2.695363462E-1,-5.532749295E-1
2.946853210E-1,1.486954927E0,-2.658712566E-1,-3.553603888E-1
3.043976130E-1,1.190083146E0,-3.232909143E-1,-2.148655206E-1
3.141092280E-1,9.518527389E-1,-4.222481549E-1,-1.256818175E-1
3.238215710E-1,8.064711094E-1,-5.089884996E-1,-6.704048812E-2
3.335347480E-1,7.356128097E-1,-5.187620521E-1,-3.038965166E-2
3.432470400E-1,7.368345261E-1,-4.417952895E-1,-1.450762246E-2
3.529586550E-1,7.844805717E-1,-3.025220931E-1,-3.161134571E-2
3.626709980E-1,8.321266770E-1,-1.913478971E-1,-1.049130186E-1
3.723841760E-1,8.247964978E-1,-1.327065676E-1,-2.063136548E-1
3.820965190E-1,7.832589149E-1,-1.290414780E-1,-2.930539846E-1
3.918080820E-1,7.356128097E-1,-1.290414780E-1,-3.382566571E-1
4.015204260E-1,6.940752268E-1,-1.009425074E-1,-2.918322682E-1
4.112336550E-1,6.769714952E-1,-6.795676053E-2,-1.733279079E-1
4.209459460E-1,6.562026739E-1,-6.673506647E-2,-6.093201414E-2
4.306575090E-1,6.146650314E-1,-6.551336497E-2,-4.734066315E-3
4.403698530E-1,5.780141950E-1,-9.239064902E-2,-4.734066315E-3
4.500830820E-1,5.755708218E-1,-1.241547018E-1,-1.939439960E-2
4.597953730E-1,5.767925382E-1,-7.650861889E-2,-4.504998401E-2
4.695069360E-1,5.596888065E-1,1.145338640E-2,-9.513945878E-2
4.792192800E-1,5.291464329E-1,7.788302377E-3,-1.562241912E-1
4.889325090E-1,4.937172830E-1,-9.361234307E-2,-1.855448484E-1
4.986448010E-1,4.570664763E-1,-1.766875684E-1,-1.769929975E-1
5.083563630E-1,4.008685052E-1,-1.779092699E-1,-1.488940120E-1
5.180688110E-1,3.092414141E-1,-1.473668963E-1,-9.391776472E-2
5.277819360E-1,1.919587553E-1,-1.278197914E-1,-2.550287358E-2
5.374942280E-1,7.589777559E-2,-1.510319859E-1,4.046862945E-2
5.472057900E-1,-2.061609551E-2,-2.084516287E-1,8.200624585E-2
5.569182380E-1,-7.559234649E-2,-2.206685692E-1,1.003316641E-1
5.666313630E-1,-8.292251825E-2,-1.485885978E-1,9.177979827E-2
5.763436550E-1,-8.414421231E-2,-2.031067200E-2,4.657710344E-2
5.860552170E-1,-1.159082651E-1,1.116323397E-1,3.817795310E-3
5.957676650E-1,-1.782146841E-1,2.154763639E-1,-3.038965166E-2
6.054807900E-1,-2.441861928E-1,2.875563502E-1,-5.604523420E-2
6.151930820E-1,-3.028275371E-1,3.217637837E-1,-6.459710002E-2
6.249046960E-1,-3.639122546E-1,3.352024257E-1,-5.482354015E-2
6.346170400E-1,-4.494308829E-1,3.413109183E-1,-3.894151375E-2
6.443302170E-1,-5.593833923E-1,3.425326049E-1,-1.572931744E-2
6.540425610E-1,-7.010999322E-1,3.303156495E-1,1.359135192E-2
6.637541230E-1,-8.806890249E-1,2.887780368E-1,3.680354729E-2
6.734664670E-1,-1.081046939E0,2.179197669E-1,4.779879749E-2
6.831796960E-1,-1.286291599E0,1.372879148E-1,5.512896553E-2
6.928919880E-1,-1.475654244E0,4.932591692E-2,5.390727147E-2
7.026035510E-1,-1.602710485E0,-1.908897609E-2,3.191677108E-2
7.123158940E-1,-1.654021621E0,-7.284353673E-2,1.481304597E-2
7.220291230E-1,-1.674790502E0,-1.119377613E-1,1.114796288E-2
7.317414150E-1,-1.726101637E0,-1.217113137E-1,2.214321308E-2
7.414529780E-1,-1.856822968E0,-9.116895497E-2,5.757235363E-2
7.511653210E-1,-2.076727867E0,-1.542389300E-2,1.259872466E-1
7.608785510E-1,-2.317401886E0,2.977880463E-2,2.212794125E-1
7.705908420E-1,-2.516537905E0,-2.886253223E-2,3.568875194E-1
7.803024050E-1,-2.635042429E0,-6.795676053E-2,4.998257756E-1
7.900148530E-1,-2.654589415E0,2.244863659E-2,6.354338527E-1
7.997279780E-1,-2.586174488E0,2.704526186E-1,7.308787704E-1
8.094403210E-1,-2.420024157E0,5.734328628E-1,7.211052179E-1
8.191518840E-1,-2.157359838E0,8.251019120E-1,5.780141950E-1
8.288642280E-1,-1.851936221E0,8.996253014E-1,3.532224298E-1
8.385774050E-1,-1.578276634E0,7.163711190E-1,1.211004704E-1
8.482897480E-1,-1.417012930E0,4.537068009E-1,-6.093201414E-2
8.580013110E-1,-1.381583810E0,3.229855001E-1,-1.562241912E-1
8.677136550E-1,-1.458550572E0,3.657447994E-1,-1.317902952E-1
8.774268840E-1,-1.639361382E0,5.221216679E-1,6.261184346E-3
8.871391760E-1,-1.866596460E0,7.212579250E-1,1.956238300E-1
8.968507380E-1,-2.038855553E0,9.387195110E-1,3.666610718E-1
9.065631860E-1,-2.109713793E0,1.151294351E0,4.888305068E-1
9.162763110E-1,-2.085279942E0,1.206270576E0,5.279247165E-1
9.259886030E-1,-2.035190344E0,1.162289619E0,4.631749392E-1
9.357001650E-1,-2.018086672E0,1.097539783E0,3.006895781E-1
9.454126130E-1,-2.020529985E0,9.778137207E-1,1.406475753E-1
9.551257380E-1,-2.032747030E0,9.484930634E-1,6.123743951E-2
9.648380820E-1,-2.076727867E0,1.130525589E0,5.146388337E-2
9.745496440E-1,-2.108492136E0,1.442057610E0,1.064401343E-1
9.842619880E-1,-2.060845852E0,1.736486077E0,2.457133085E-1
9.939752170E-1,-1.982657433E0,1.907523274E0,4.485146105E-1
1.003687509E0,-1.970440507E0,2.096885920E0,6.085565686E-1
1.013399071E0,-2.032747030E0,2.250819445E0,6.844543815E-1
1.023111519E0,-2.136590958E0,2.186069727E0,6.771242023E-1
1.032824644E0,-2.212336063E0,2.059013367E0,5.938962698E-1
1.042536988E0,-2.168354988E0,1.935622215E0,4.485146105E-1
1.052248551E0,-2.016865015E0,1.763363361E0,2.457133085E-1
1.061960894E0,-1.847049356E0,1.620425105E0,2.580829710E-2
1.071674123E0,-1.661351800E0,1.500699043E0,-1.415638477E-1
1.081386415E0,-1.496423125E0,1.336991906E0,-2.197522968E-1
1.091097978E0,-1.449998736E0,1.025459886E0,-2.185306102E-1
1.100810426E0,-1.553842664E0,7.188144922E-1,-1.733279079E-1
1.110523551E0,-1.701667786E0,5.526640415E-1,-6.826218218E-2
1.120235842E0,-1.768860936E0,4.915793240E-1,8.444963396E-2
1.129947457E0,-1.767639279E0,4.097257853E-1,2.066190839E-1
1.139659801E0,-1.795738220E0,2.973299026E-1,2.310529798E-1
1.149373030E0,-1.836054206E0,9.452861547E-2,2.261662036E-1
1.159085321E0,-1.861709714E0,-8.383878320E-2,2.225011140E-1
1.168796884E0,-1.831167340E0,-1.925695986E-1,2.237228155E-1
1.178509332E0,-1.815285325E0,-2.304421216E-1,2.286095917E-1
1.188222457E0,-1.873926640E0,-2.023431510E-1,2.261662036E-1
1.197934801E0,-1.978992462E0,-2.157817930E-1,2.615953386E-1
1.207646363E0,-2.080393076E0,-2.475458533E-1,3.373403847E-1
1.217358707E0,-2.022973299E0,-2.145601064E-1,4.216373265E-1
1.227071936E0,-1.816506982E0,-7.895200700E-2,4.399627447E-1
1.236784228E0,-1.594158649E0,4.566083103E-2,4.020902216E-1
1.246495790E0,-1.437781692E0,2.733541466E-2,3.239017725E-1
1.256208238E0,-1.404796004E0,-1.290414780E-1,2.457133085E-1
1.265921363E0,-1.428008199E0,-2.841966748E-1,1.748550236E-1
1.275633707E0,-1.396244168E0,-3.171824515E-1,1.101052165E-1
1.285345269E0,-1.343711257E0,-3.135173619E-1,4.535540938E-2
1.295057613E0,-1.365701795E0,-3.599417508E-1,1.114796288E-2
1.304770842E0,-1.392579079E0,-4.063661397E-1,-1.084253844E-2
1.314483134E0,-1.366923451E0,-4.027010500E-1,-5.848862603E-2
1.324194748E0,-1.332715988E0,-3.746020794E-1,-8.780929446E-2
1.333907092E0,-1.355928183E0,-4.796678126E-1,-7.192726433E-2
1.343620321E0,-1.333937645E0,-4.381301999E-1,-7.925742865E-2
1.353332613E0,-1.322942495E0,-4.833329022E-1,-1.036913246E-1
1.363044176E0,-1.338824511E0,-6.384881139E-1,-1.769929975E-1
1.372756623E0,-1.296065211E0,-7.301151752E-1,-2.942756712E-1
1.382469748E0,-1.286291599E0,-8.070819378E-1,-4.274403751E-1
1.392182092E0,-1.182447553E0,-6.959077120E-1,-4.836383164E-1
1.401893655E0,-9.857547879E-1,-3.794888556E-1,-4.628695250E-1
1.411605998E0,-8.794673681E-1,-2.292204350E-1,-4.225535989E-1
1.421319228E0,-7.805100679E-1,-1.143811494E-1,-3.614688516E-1
1.431031519E0,-6.632274389E-1,-4.107947648E-2,-2.991624475E-1
1.440743134E0,-5.801522136E-1,-2.519745007E-2,-2.295258641E-1
1.450455478E0,-4.494308829E-1,-3.252761811E-2,-1.513374150E-1
1.460168707E0,-3.016058207E-1,-8.093725890E-3,-6.581879407E-2
1.469880998E0,-1.916533262E-1,5.665608495E-2,5.039489828E-3
1.479592613E0,-5.848862603E-2,1.201841980E-1,3.313846514E-2
1.489304957E0,5.757235363E-2,1.580567211E-1,2.702999115E-2
1.499018186E0,1.369825006E-1,1.714953631E-1,-3.512371797E-3
1.508730478E0,2.225011140E-1,1.837123185E-1,-4.382828996E-2
1.518442040E0,3.031329513E-1,1.849340051E-1,-8.170082420E-2
1.528154488E0,3.837648034E-1,1.885990947E-1,-1.073564067E-1
1.537867613E0,4.705050886E-1,2.105895877E-1,-1.293469071E-1
1.547579957E0,5.657972693E-1,2.338017821E-1,-1.635543555E-1
1.557291519E0,6.659762263E-1,2.582356930E-1,-2.038702667E-1
1.567003863E0,7.820371985E-1,2.875563502E-1,-2.539597452E-1
1.576717092E0,8.736643195E-1,3.107685447E-1,-3.040492237E-1
1.586429384E0,9.579612017E-1,3.071034551E-1,-3.529170156E-1
1.596140998E0,1.045923233E0,3.217637837E-1,-3.895678520E-1
1.605853342E0,1.154654026E0,3.339807391E-1,-3.859027624E-1
1.615566571E0,1.257276416E0,3.523061574E-1,-3.700207174E-1
1.625278863E0,1.348903418E0,3.510844707E-1,-3.431434333E-1
1.634990478E0,1.424648523E0,3.388675153E-1,-3.187095523E-1
1.644702821E0,1.482068181E0,3.156553209E-1,-2.979407609E-1
1.654416051E0,1.538266063E0,2.411319613E-1,-2.600682080E-1
1.664128342E0,1.556591511E0,1.507265568E-1,-2.234173864E-1
1.673839905E0,1.581025362E0,6.276455522E-2,-1.892099380E-1
1.683552353E0,1.625006437E0,-2.641914412E-2,-1.415638477E-1
1.693265478E0,1.622563004E0,-1.314848661E-1,-1.097997949E-1
1.702977821E0,1.582247138E0,-2.475458533E-1,-9.269607067E-2
1.712689384E0,1.528492570E0,-3.709369898E-1,-9.636115283E-2
1.722401832E0,1.477181435E0,-4.906630516E-1,-1.061347127E-1
1.732114957E0,1.458855987E0,-5.725166202E-1,-1.562241912E-1
1.741827301E0,1.473516345E0,-6.531484127E-1,-1.989834905E-1
1.751538863E0,1.511388779E0,-7.252284288E-1,-2.258607745E-1
1.761251207E0,1.567586780E0,-7.618792653E-1,-2.270824611E-1
1.770964436E0,1.640888453E0,-7.716528177E-1,-1.769929975E-1
1.780676780E0,1.706859946E0,-7.484406233E-1,-5.848862603E-2
1.790388342E0,1.750993609E0,-7.227849960E-1,9.666658193E-2
1.800100686E0,1.790087938E0,-7.093463540E-1,2.249445021E-1
1.809813915E0,1.831625462E0,-7.264500856E-1,3.104631305E-1
1.819526207E0,1.878049850E0,-7.863131166E-1,3.385621011E-1
1.829237821E0,1.926917672E0,-8.339592218E-1,3.031329513E-1
1.838950165E0,1.978228807E0,-8.510629535E-1,2.200577259E-1
1.848663394E0,2.006327868E0,-9.023740888E-1,9.422318637E-2
1.858375686E0,1.977007151E0,-1.030652046E0,-1.068982761E-3
1.868087248E0,1.926917672E0,-1.123500824E0,-1.450762246E-2
1.877799696E0,1.963568568E0,-1.112505555E0,6.261184346E-3
1.887512821E0,2.104063272E0,-1.040425539E0,6.978929788E-2
1.897225165E0,2.270213842E0,-9.634588361E-1,1.797417998E-1
1.906936728E0,2.413151979E0,-9.500201941E-1,2.677038014E-1
1.916649176E0,2.523104668E0,-1.012326598E0,2.738122940E-1
1.926362301E0,2.565863848E0,-1.078298092E0,1.834068894E-1
1.936074644E0,2.560977221E0,-1.079519868E0,-2.061609551E-2
1.945786207E0,2.554868698E0,-1.014770031E0,-2.356343269E-1
1.955498551E0,2.562198877E0,-9.182561636E-1,-3.431434333E-1
1.965211780E0,2.581745863E0,-8.107470274E-1,-3.516952991E-1
1.974924071E0,2.617175102E0,-7.276718020E-1,-2.942756712E-1
1.984635686E0,2.640387297E0,-6.018372774E-1,-1.989834905E-1
1.994348030E0,2.636722088E0,-4.185830951E-1,-9.269607067E-2
2.004061259E0,2.657490969E0,-3.465031087E-1,-3.771981969E-2
2.013773551E0,2.684368372E0,-4.271349311E-1,-7.192726433E-2
2.023485165E0,2.708802223E0,-5.260922313E-1,-1.806580722E-1
2.033197509E0,2.739344597E0,-5.309789777E-1,-3.126010895E-1
2.042910738E0,2.725905895E0,-4.711159468E-1,-4.213318825E-1
2.052623030E0,2.653825998E0,-4.161396921E-1,-4.726430774E-1
2.062334592E0,2.564642191E0,-4.173613787E-1,-4.482091665E-1
2.072047040E0,2.493783951E0,-4.564556181E-1,-3.920112252E-1
2.081760165E0,2.460798264E0,-4.369085133E-1,-3.834593594E-1
2.091472509E0,2.480345249E0,-2.817533016E-1,-4.567610323E-1
2.101184071E0,2.532878160E0,-8.261708915E-2,-5.703786016E-1
2.110896519E0,2.579302549E0,6.398624927E-2,-6.632274389E-1
2.120609644E0,2.575637579E0,1.055238619E-1,-7.010999322E-1
2.130321988E0,2.519439459E0,1.389677543E-2,-6.717792749E-1
2.140033551E0,2.389939785E0,-1.253764033E-1,-5.630484819E-1
2.149745894E0,2.177365065E0,-2.536543310E-1,-4.433223903E-1
2.159459123E0,1.887823462E0,-3.501681983E-1,-3.663556576E-1
2.169171415E0,1.560256600E0,-3.611634374E-1,-3.272614181E-1
2.178883030E0,1.291483760E0,-3.379512429E-1,-3.162661791E-1
2.188595373E0,1.135106921E0,-3.208475113E-1,-2.832804024E-1
2.198308603E0,1.060583591E0,-2.756448388E-1,-2.307475507E-1
2.208020894E0,1.030041218E0,-2.047865391E-1,-2.038702667E-1
2.217732457E0,1.010494113E0,-1.827960461E-1,-2.295258641E-1
2.227444905E0,9.591829181E-1,-2.145601064E-1,-2.967190444E-1
2.237158082E0,9.164236188E-1,-2.646495700E-1,-3.431434333E-1
2.246870373E0,8.993198872E-1,-2.548760176E-1,-3.150444627E-1
2.256581936E0,8.638907075E-1,-1.437018216E-1,-2.038702667E-1
2.266294384E0,7.820371985E-1,-3.374931216E-2,-8.414421231E-2
2.276007509E0,6.562026739E-1,1.756185852E-2,-3.161134571E-2
2.285719853E0,5.254813433E-1,2.855710872E-2,-3.527642787E-2
2.295431415E0,4.534013867E-1,2.367033064E-2,-9.269607067E-2
2.305143759E0,4.289674759E-1,6.520794332E-2,-1.806580722E-1
2.314856988E0,4.179722369E-1,1.873773932E-1,-2.576248348E-1
2.324569280E0,3.837648034E-1,3.132119179E-1,-3.040492237E-1
2.334280894E0,2.970244884E-1,3.645231128E-1,-3.064926267E-1
2.343993238E0,1.760767251E-1,3.229855001E-1,-2.661767006E-1
2.353706467E0,6.123743951E-2,1.995943487E-1,-1.989834905E-1
2.363418759E0,-2.428117767E-2,1.389677543E-2,-1.269035190E-1
2.373130321E0,-8.903098851E-2,-1.718007922E-1,-5.971032009E-2
2.382842769E0,-1.220167428E-1,-2.756448388E-1,-1.328592747E-2
2.392555946E0,-1.195733473E-1,-3.037438095E-1,8.704573847E-3
2.402268238E0,-1.024696305E-1,-2.854183912E-1,2.092151903E-2
2.411979801E0,-8.780929446E-2,-2.206685692E-1,2.702999115E-2
2.421692248E0,-8.292251825E-2,-1.314848661E-1,1.847812906E-2
2.431405373E0,-8.292251825E-2,-6.673506647E-2,2.092151903E-2
2.441117717E0,-7.681404054E-2,-4.107947648E-2,3.558185324E-2
2.450829280E0,-5.726693198E-2,-1.786728203E-2,5.879404768E-2
2.460541728E0,-4.016320780E-2,1.878355257E-2,6.368082762E-2
2.470254853E0,-4.504998401E-2,5.543438718E-2,4.902049154E-2
2.479967196E0,-7.681404054E-2,8.353336155E-2,2.702999115E-2
2.489678759E0,-1.097997949E-1,1.177408099E-1,7.482878864E-3
2.499391103E0,-1.378987730E-1,1.324011385E-1,5.039489828E-3
2.509104332E0,-1.916533262E-1,1.226275861E-1,6.261184346E-3
2.518816623E0,-2.722851634E-1,7.131642103E-2,1.527118147E-4
2.528528238E0,-3.712424338E-1,1.023169141E-2,-3.512371797E-3
2.538240582E0,-4.628695250E-1,-2.153236605E-2,-1.450762246E-2
2.547953811E0,-5.263976455E-1,-5.085303262E-2,-1.450762246E-2
2.557666103E0,-5.642701387E-1,-4.474456236E-2,-3.512371797E-3
2.567377665E0,-5.813738704E-1,-1.542389300E-2,9.926267900E-3
2.577090113E0,-5.899257660E-1,2.733541466E-2,4.169032723E-2
2.586803290E0,-6.229115129E-1,5.665608495E-2,8.078455180E-2
2.596515582E0,-6.962131858E-1,5.176930502E-2,1.247655526E-1
2.606227144E0,-8.012788892E-1,3.833066672E-2,1.687465608E-1
2.615939592E0,-9.246700406E-1,-4.107947648E-2,2.041756958E-1
2.625652717E0,-1.050504565E0,-1.840177327E-1,2.334963679E-1
2.635365061E0,-1.162900448E0,-3.416163325E-1,2.579302490E-1
2.645076623E0,-1.261857748E0,-4.503471553E-1,2.579302490E-1
2.654789071E0,-1.310725451E0,-5.065450668E-1,2.066190839E-1
2.664502196E0,-1.296065211E0,-4.845545888E-1,1.198787764E-1
2.674214540E0,-1.256971002E0,-3.159607351E-1,2.092151903E-2
2.683926103E0,-1.231315374E0,-1.046075895E-1,-6.337540597E-2
2.693638446E0,-1.244753957E0,4.688252881E-2,-1.097997949E-1
2.703351676E0,-1.321720719E0,1.751604527E-1,-9.269607067E-2
2.713063967E0,-1.448776960E0,2.545706034E-1,-1.572931744E-2
2.722775582E0,-1.597823739E0,2.484621257E-1,7.711946964E-2
2.732487926E0,-1.773747683E0,1.592784226E-1,1.491994411E-1
2.742201155E0,-1.993652701E0,-1.985253533E-3,2.066190839E-1
2.751913446E0,-2.258760452E0,-1.632489264E-1,2.725905776E-1
2.761625061E0,-2.479887247E0,-3.110739589E-1,3.239017725E-1
2.771337405E0,-2.588618040E0,-4.063661397E-1,3.544441164E-1
2.781050634E0,-2.589839697E0,-3.440597057E-1,3.556658030E-1
2.790762926E0,-2.515316248E0,-1.265980899E-1,3.434488773E-1
2.800474488E0,-2.393146753E0,1.324011385E-1,3.165715933E-1
2.810186936E0,-2.250208616E0,3.217637837E-1,2.958027720E-1
2.819900061E0,-2.130482435E0,4.366030693E-1,3.263451457E-1
2.829612405E0,-2.082836390E0,5.367820263E-1,4.265241027E-1
2.839323967E0,-2.117043972E0,7.041541934E-1,5.694623590E-1
2.849036415E0,-2.205005884E0,1.064554095E0,7.394306064E-1
2.858749540E0,-2.279529333E0,1.385859728E0,8.884773254E-1
2.868461884E0,-2.296633005E0,1.391968250E0,9.177979827E-1
2.878173446E0,-2.251430273E0,1.280794024E0,8.371661901E-1
2.887885894E0,-2.143921137E0,1.148851037E0,6.868977547E-1
2.897599019E0,-2.007091284E0,1.052337170E0,5.584670901E-1
2.907311363E0,-1.904469013E0,1.092653036E0,4.961606860E-1
2.917022926E0,-1.825058937E0,1.311336398E0,4.717268050E-1
2.926735269E0,-1.737096906E0,1.560562015E0,4.436278343E-1
2.936448498E0,-1.672347069E0,1.874537468E0,4.424061179E-1
2.946160790E0,-1.623479247E0,2.261814594E0,4.460712075E-1
2.955872405E0,-1.552621007E0,2.562351465E0,4.277457893E-1
2.965584748E0,-1.454885483E0,2.555021286E0,4.008685052E-1
2.975297978E0,-1.393800735E0,2.217833757E0,3.532224298E-1
2.985010269E0,-1.421899676E0,1.685174823E0,2.811424434E-1
2.994721884E0,-1.529408813E0,1.134190679E0,2.090624720E-1
3.004434228E0,-1.657686710E0,7.359182239E-1,1.711899489E-1
3.014147457E0,-1.699224353E0,7.432484031E-1,1.626380831E-1
3.023859748E0,-1.573389769E0,9.423846006E-1,1.711899489E-1
3.033571363E0,-1.414569497E0,1.059667230E0,1.956238300E-1
3.043283707E0,-1.352263093E0,1.065775752E0,2.359397560E-1
3.052996936E0,-1.382805467E0,1.007134438E0,2.725905776E-1
3.062709228E0,-1.437781692E0,9.008470178E-1,2.982461751E-1
3.072420790E0,-1.512305140E0,7.566870451E-1,3.031329513E-1
3.082133238E0,-1.569724798E0,5.331169367E-1,2.762556672E-1
3.091846415E0,-1.588050127E0,2.790044844E-1,1.882936656E-1
3.101558707E0,-1.597823739E0,1.800472289E-1,6.612421572E-2
3.111270269E0,-1.602710485E0,1.360662282E-1,-2.428117767E-2
3.120982717E0,-1.640583038E0,1.634016447E-2,-2.428117767E-2
3.130695842E0,-1.705332875E0,-8.139539510E-2,6.612421572E-2
3.140408186E0,-1.715106368E0,-8.628217876E-2,2.029540092E-1
3.150119748E0,-1.688229084E0,-5.818320066E-2,3.361186981E-1
3.159832196E0,-1.584385037E0,8.597674966E-2,4.008685052E-1
3.169545373E0,-1.490314603E0,2.447970361E-1,3.837648034E-1
3.179257665E0,-1.480540991E0,2.008160353E-1,3.190149665E-1
3.188969228E0,-1.550177574E0,4.581354442E-4,2.249445021E-1
3.198681676E0,-1.597823739E0,-1.827960461E-1,1.223221645E-1
3.208394801E0,-1.552621007E0,-2.866400778E-1,4.657710344E-2
3.218107144E0,-1.531852245E0,-2.915268540E-1,1.847812906E-2
3.227818707E0,-1.536738992E0,-2.866400778E-1,1.527118147E-4
3.237531155E0,-1.515970230E0,-3.086305857E-1,1.527118147E-4
3.247244332E0,-1.507418275E0,-3.477247953E-1,3.069507517E-2
3.256956623E0,-1.467102408E0,-3.636068404E-1,4.657710344E-2
3.266668186E0,-1.424343109E0,-3.733803928E-1,6.368082762E-2
3.276380634E0,-1.373031974E0,-3.770454824E-1,6.734590977E-2
3.286093811E0,-1.304617047E0,-3.990359604E-1,6.856760383E-2
3.295806103E0,-1.234980464E0,-4.124746025E-1,7.101099193E-2
3.305517717E0,-1.169008970E0,-3.929274976E-1,4.779879749E-2
3.315230061E0,-1.092042208E0,-3.892624080E-1,1.603474095E-2
3.324943290E0,-1.004080176E0,-3.257342875E-1,-8.399149403E-3
3.334655582E0,-9.100096822E-1,-2.365505993E-1,-2.061609551E-2
3.344367196E0,-8.061656952E-1,-1.534753740E-1,-3.038965166E-2
3.354079540E0,-7.182036638E-1,-1.485885978E-1,-1.817270555E-2
3.363792769E0,-6.143596172E-1,-1.168245375E-1,-3.161134571E-2
3.373505061E0,-5.215108395E-1,-1.131594554E-1,-5.848862603E-2
3.383216676E0,-4.396573007E-1,-1.021642014E-1,-8.170082420E-2
3.392929019E0,-3.663556576E-1,-8.994726092E-2,-1.036913246E-1
3.402642248E0,-2.832804024E-1,-8.994726092E-2,-1.391204596E-1
3.412354592E0,-2.002051920E-1,-6.917845458E-2,-1.782146841E-1
3.422066155E0,-1.036913246E-1,-2.886253223E-2,-2.112004459E-1
3.431778603E0,1.114796288E-2,1.878355257E-2,-2.368560284E-1
3.441491728E0,1.284306347E-1,4.932591692E-2,-2.600682080E-1
3.451204071E0,2.493783981E-1,8.231166750E-2,-2.735068500E-1
3.460915634E0,3.605526090E-1,1.067455560E-1,-2.845021188E-1
3.470628082E0,4.741701782E-1,1.201841980E-1,-3.040492237E-1
3.480341259E0,6.048914790E-1,1.372879148E-1,-3.284831047E-1
3.490053551E0,7.368345261E-1,1.763821393E-1,-3.431434333E-1
3.499765165E0,8.590039611E-1,2.093679011E-1,-3.358132839E-1
3.509477509E0,9.640696645E-1,2.252499312E-1,-3.064926267E-1
3.519190738E0,1.060583591E0,2.435753495E-1,-2.686200738E-1
3.528903030E0,1.152210593E0,2.692309320E-1,-2.466295809E-1
3.538614644E0,1.246281147E0,2.728960216E-1,-2.295258641E-1
3.548327092E0,1.330578089E0,2.619007528E-1,-2.038702667E-1
3.558040217E0,1.427091956E0,2.509055138E-1,-1.757712960E-1
3.567752561E0,1.510167122E0,2.802261710E-1,-1.501157135E-1
3.577464123E0,1.598129153E0,3.303156495E-1,-1.281252056E-1
3.587176571E0,1.670209169E0,3.205420971E-1,-1.000262350E-1
3.596889748E0,1.715411782E0,2.863346636E-1,-9.391776472E-2
3.606602040E0,1.775427580E0,2.521272004E-1,-7.559234649E-2
3.616313655E0,1.835290551E0,2.252499312E-1,-4.993676394E-2
3.626025998E0,1.886601806E0,1.922641695E-1,-1.084253844E-2
3.635739228E0,1.906148911E0,1.116323397E-1,2.336490713E-2
3.645451571E0,1.885380030E0,-2.641914412E-2,3.924693540E-2
3.655163134E0,1.832847238E0,-1.889045089E-1,1.847812906E-2
3.664875478E0,1.790087938E0,-3.599417508E-1,-2.550287358E-2
3.674588707E0,1.781535983E0,-4.857762754E-1,-9.147437662E-2
3.684301051E0,1.786422849E0,-5.615213513E-1,-1.586675793E-1
3.694012613E0,1.797418118E0,-6.580352187E-1,-1.855448484E-1
3.703725061E0,1.816965222E0,-7.252284288E-1,-1.831014603E-1
3.713438238E0,1.832847238E0,-7.765395641E-1,-1.904316396E-1
3.723150530E0,1.853615999E0,-8.754968047E-1,-2.038702667E-1
3.732862144E0,1.911035657E0,-9.035958052E-1,-1.965401024E-1
3.742574592E0,2.001441002E0,-8.510629535E-1,-1.476723254E-1
3.752287717E0,2.079629421E0,-7.875348330E-1,-8.903098851E-2
3.762000061E0,2.117501974E0,-6.971294284E-1,-3.527642787E-2
3.771711623E0,2.139492512E0,-6.482616663E-1,-4.734066315E-3
3.781424071E0,2.173699856E0,-6.861341596E-1,7.482878864E-3
3.791137248E0,2.231119633E0,-7.276718020E-1,3.802524135E-2
3.800849540E0,2.287317514E0,-7.997517586E-1,9.544488788E-2
3.810561155E0,2.317859888E0,-8.718317747E-1,1.675248593E-1
3.820273603E0,2.312973261E0,-9.035958052E-1,1.821851879E-1
3.829986728E0,2.271435499E0,-9.133693576E-1,1.211004704E-1
3.839699071E0,2.184695244E0,-9.292513728E-1,-5.955760833E-3
3.849410634E0,2.067412615E0,-9.976662993E-1,-1.757712960E-1
3.859123082E0,1.988002419E0,-1.088071704E0,-3.993414044E-1
3.868836259E0,1.989224076E0,-1.149156451E0,-6.009209752E-1
3.878548551E0,2.025874853E0,-1.136939406E0,-7.108734846E-1
3.888260165E0,2.068634272E0,-1.059972763E0,-7.169819474E-1
3.897972613E0,2.130940676E0,-9.109259844E-1,-6.534538269E-1
3.907685738E0,2.172478199E0,-7.191199064E-1,-5.508314967E-1
3.917398082E0,2.130940676E0,-5.969504714E-1,-4.005630910E-1
3.927109696E0,2.045422077E0,-5.688515306E-1,-2.832804024E-1
3.936822040E0,2.008771181E0,-6.299362183E-1,-2.417428046E-1
3.946535269E0,2.036870241E0,-6.897992492E-1,-2.295258641E-1
3.956247613E0,2.097954988E0,-6.788040400E-1,-2.136438340E-1
3.965959176E0,2.187138557E0,-6.164975762E-1,-2.331909388E-1
3.975671623E0,2.283652544E0,-5.297572613E-1,-3.174878657E-1
3.985384801E0,2.353289127E0,-5.016583204E-1,-4.335488379E-1
3.995097092E0,2.330076933E0,-5.383091569E-1,-5.007420182E-1
4.004808707E0,2.205464125E0,-5.688515306E-1,-5.373928547E-1
4.014521051E0,2.052752256E0,-5.822901726E-1,-5.361711979E-1
4.024234280E0,1.929361105E0,-5.358657837E-1,-4.543176591E-1
4.033946623E0,1.876828194E0,-4.527905285E-1,-3.333698809E-1
4.043658186E0,1.884158373E0,-4.259132445E-1,-2.661767006E-1
4.053370634E0,1.901262045E0,-4.637857676E-1,-2.539597452E-1
4.063083811E0,1.914700747E0,-5.566345453E-1,-3.260397315E-1
4.072796103E0,1.924474239E0,-6.128324866E-1,-4.054498672E-1
4.082507717E0,1.922030926E0,-6.201626658E-1,-4.372139275E-1
4.092220061E0,1.890266895E0,-6.152759194E-1,-3.810159862E-1
4.101933290E0,1.819408536E0,-5.627430081E-1,-2.881672084E-1
4.111645634E0,1.695864677E0,-5.334223509E-1,-2.038702667E-1
4.121357196E0,1.499171853E0,-5.664080977E-1,-1.207950488E-1
4.131069644E0,1.256054640E0,-6.067240238E-1,-3.527642787E-2
4.140782821E0,1.006829023E0,-6.836907864E-1,4.779879749E-2
4.150495113E0,7.808154821E-1,-7.166765332E-1,1.027750522E-1
4.160206728E0,6.354338527E-1,-6.348230243E-1,1.064401343E-1
4.169919176E0,5.926745534E-1,-4.527905285E-1,9.300149232E-2
4.179632301E0,6.329904795E-1,-2.108950168E-1,6.978929788E-2
4.189344644E0,7.197307944E-1,-5.650337320E-3,3.436015919E-2
4.199056259E0,8.015843034E-1,1.421747059E-1,-2.428117767E-2
4.208768603E0,8.406785131E-1,2.509055138E-1,-1.049130186E-1
4.218481832E0,8.296833038E-1,3.339807391E-1,-1.977618039E-1
4.228194176E0,7.453863621E-1,3.474193811E-1,-2.454078794E-1
4.237905738E0,5.938962698E-1,2.924431264E-1,-2.490729690E-1
4.247618186E0,4.033119082E-1,1.812689304E-1,-2.209739983E-1
4.257331363E0,2.139492482E-1,7.375980914E-2,-1.403421611E-1
4.267043655E0,8.322793990E-2,-7.635590737E-4,-3.771981969E-2
4.276755269E0,1.481304597E-2,-6.673506647E-2,5.390727147E-2
4.286467613E0,-1.328592747E-2,-1.009425074E-1,1.003316641E-1
4.296180842E0,-5.955760833E-3,-1.351499557E-1,1.113269106E-1
4.305893186E0,-1.068982761E-3,-1.937913001E-1,9.666658193E-2
4.315604748E0,-1.939439960E-2,-2.243336588E-1,7.589777559E-2
4.325317196E0,-5.482354015E-2,-2.377723008E-1,6.245913357E-2
4.335030373E0,-8.780929446E-2,-2.780882120E-1,3.680354729E-2
4.344742665E0,-1.012479365E-1,-3.220692277E-1,-7.177455351E-3
4.354454280E0,-1.024696305E-1,-3.147390485E-1,-4.138490185E-2
4.364166728E0,-1.036913246E-1,-2.573194206E-1,-4.993676394E-2
4.373879853E0,-1.134648770E-1,-1.644706279E-1,-4.749337584E-2
4.383592196E0,-1.195733473E-1,-4.352286831E-2,-3.771981969E-2
4.393303811E0,-1.146865711E-1,8.108997345E-2,-3.649812192E-2
4.403016155E0,-1.012479365E-1,1.653869003E-1,-3.161134571E-2
4.412729384E0,-9.513945878E-2,2.325800955E-1,-1.695101149E-2
4.422441728E0,-8.903098851E-2,2.802261710E-1,-5.955760833E-3
4.432153290E0,-8.780929446E-2,2.985515893E-1,1.374406274E-3
4.441865738E0,-1.012479365E-1,3.095468581E-1,1.236965694E-2
4.451578915E0,-1.183516532E-1,2.777827978E-1,2.092151903E-2
4.461291207E0,-1.427855492E-1,2.460187376E-1,2.825168520E-2
4.471002821E0,-1.769929975E-1,2.215848416E-1,2.947338112E-2
4.480715165E0,-2.344126403E-1,2.166980654E-1,2.336490713E-2
4.490428394E0,-3.211529553E-1,2.020377368E-1,1.969982497E-2
4.500140738E0,-4.372139275E-1,1.910424829E-1,2.092151903E-2
4.509852301E0,-5.520532131E-1,1.800472289E-1,1.481304597E-2
4.519564748E0,-6.461237073E-1,1.714953631E-1,1.359135192E-2
4.529277926E0,-7.218687534E-1,1.702736765E-1,2.092151903E-2
4.538990217E0,-7.853968740E-1,1.531699449E-1,1.114796288E-2
4.548701832E0,-8.281561732E-1,8.475505561E-2,-1.695101149E-2
4.558414176E0,-8.696937561E-1,1.878355257E-2,-3.038965166E-2
4.568127405E0,-9.356653094E-1,-2.031067200E-2,-1.695101149E-2
4.577839748E0,-1.051726222E0,-5.329642445E-2,1.481304597E-2
4.587551311E0,-1.241088867E0,-1.021642014E-1,4.902049154E-2
4.597263759E0,-1.491536260E0,-1.852394342E-1,8.933641016E-2
4.606976936E0,-1.778634548E0,-2.512109280E-1,1.345391124E-1
4.616689228E0,-2.065732718E0,-2.121167034E-1,1.491994411E-1
4.626400842E0,-2.261203766E0,-1.290414780E-1,1.455343664E-1
4.636113186E0,-2.316179991E0,-5.818320066E-2,1.284306347E-1
4.645826415E0,-2.236769915E0,3.466558084E-2,4.779879749E-2
4.655538759E0,-2.081614733E0,1.959292591E-1,-3.771981969E-2
4.665250321E0,-1.926459551E0,4.182776511E-1,-4.382828996E-2
4.674962769E0,-1.842162609E0,5.868715048E-1,3.069507517E-2
4.684675946E0,-1.848271132E0,6.797202826E-1,1.748550236E-1
4.694388238E0,-1.906912446E0,7.835643291E-1,3.654393852E-1
4.704099853E0,-1.996096134E0,9.558232427E-1,5.706840754E-1
4.713812196E0,-2.092609882E0,1.037676811E0,7.137750387E-1
4.723525426E0,-2.174463511E0,9.008470178E-1,7.259919643E-1
4.733237769E0,-2.219666243E0,5.954233408E-1,5.829010010E-1
4.742949332E0,-2.236769915E0,2.472404242E-1,3.410054743E-1
4.752661780E0,-2.268533945E0,7.620319724E-2,1.430909634E-1
4.762374957E0,-2.327175379E0,2.325800955E-1,8.322793990E-2
4.772087248E0,-2.336948872E0,6.235223413E-1,1.614163816E-1
4.781798863E0,-2.246543407E0,1.058445573E0,3.336753249E-1
4.791511207E0,-2.088944912E0,1.374864459E0,5.450284481E-1
4.801224436E0,-1.922794461E0,1.492147088E0,7.430956960E-1
4.810936780E0,-1.821393847E0,1.454274654E0,8.359444737E-1
4.820648342E0,-1.850714445E0,1.325996637E0,7.699729800E-1
4.830360790E0,-1.998539567E0,1.217265844E0,5.841227174E-1
4.840073967E0,-2.159803152E0,1.201383829E0,3.532224298E-1
4.849786259E0,-2.259982109E0,1.227039456E0,1.748550236E-1
4.859497873E0,-2.268533945E0,1.219709277E0,1.223221645E-1
4.869210217E0,-2.203784227E0,1.162289619E0,1.736333370E-1
4.878923446E0,-2.102383614E0,1.146407604E0,2.652604282E-1
4.888635790E0,-1.957001925E0,1.322331548E0,3.434488773E-1
4.898347353E0,-1.734653473E0,1.633863688E0,3.764346242E-1
4.908059801E0,-1.468324065E0,1.811009407E0,3.544441164E-1
4.917772978E0,-1.288735032E0,1.688839912E0,2.774773538E-1
4.927485269E0,-1.271631241E0,1.411515355E0,1.846285909E-1
4.937196832E0,-1.349819779E0,1.141520858E0,9.177979827E-2
4.946909280E0,-1.458550572E0,9.460496902E-1,-2.305948362E-2
4.956622457E0,-1.564837933E0,8.079982400E-1,-1.598892659E-1
4.966334748E0,-1.665016890E0,6.430694461E-1,-2.771719396E-1
4.976046363E0,-1.794516563E0,5.477772951E-1,-3.297048211E-1
4.985758811E0,-1.864153147E0,5.453338623E-1,-2.673983872E-1
4.995471936E0,-1.787186384E0,5.441122055E-1,-1.183516532E-1
5.005184280E0,-1.640583038E0,5.184566379E-1,5.757235363E-2
5.014895842E0,-1.568503022E0,4.891359508E-1,2.249445021E-1
5.024608290E0,-1.584385037E0,4.060607255E-1,3.556658030E-1
5.034321467E0,-1.651578307E0,1.788255423E-1,4.326325655E-1
5.044033759E0,-1.729766726E0,-5.940489471E-2,4.460712075E-1
5.053745373E0,-1.732210159E0,-1.803526580E-1,4.216373265E-1
5.063457717E0,-1.683342338E0,-1.156028435E-1,3.849864900E-1
5.073170946E0,-1.629587770E0,-3.206948051E-3,3.446705639E-1
5.082883290E0,-1.592936993E0,6.032116711E-2,2.896943092E-1
5.092594853E0,-1.606375575E0,9.819369763E-2,2.664821148E-1
5.102307301E0,-1.597823739E0,3.344388679E-2,2.689255178E-1
5.112020426E0,-1.624701023E0,-9.605573118E-2,3.116848171E-1
5.121732769E0,-1.662573576E0,-1.876828223E-1,3.385621011E-1
5.131444332E0,-1.651578307E0,-2.475458533E-1,3.080197275E-1
5.141156780E0,-1.600267053E0,-2.695363462E-1,2.921377122E-1
5.150869957E0,-1.550177574E0,-2.548760176E-1,2.408265322E-1
5.160582248E0,-1.519635320E0,-2.841966748E-1,1.858502775E-1
5.170293863E0,-1.489092946E0,-3.269560039E-1,1.491994411E-1
5.180006207E0,-1.456107140E0,-3.403946459E-1,1.491994411E-1
5.189719436E0,-1.417012930E0,-3.599417508E-1,1.479777545E-1
5.199431780E0,-1.390135646E0,-3.636068404E-1,1.345391124E-1
5.209143342E0,-1.385248899E0,-3.477247953E-1,1.162136942E-1
5.218855790E0,-1.359593272E0,-3.843756318E-1,9.788827598E-2
5.228568915E0,-1.316833973E0,-4.198047817E-1,7.467607409E-2
5.238281259E0,-1.265522838E0,-4.625640810E-1,9.910997003E-2
5.247992821E0,-1.178782463E0,-4.185830951E-1,9.544488788E-2
5.257705269E0,-1.089598775E0,-3.465031087E-1,5.146388337E-2
5.267418446E0,-1.013853788E0,-2.939702570E-1,-2.290677279E-3
5.277130738E0,-9.075663090E-1,-2.573194206E-1,-4.993676394E-2
5.286842301E0,-8.025006056E-1,-1.962346882E-1,-9.513945878E-2
5.296554748E0,-7.279772162E-1,-1.498102844E-1,-1.281252056E-1
5.306267926E0,-6.571189165E-1,-1.388150454E-1,-1.440072358E-1
5.315980217E0,-5.740436912E-1,-1.033858955E-1,-1.330119967E-1
5.325691832E0,-4.860817194E-1,-6.551336497E-2,-1.061347127E-1
5.335404176E0,-3.944546282E-1,-2.886253223E-2,-9.880454093E-2
5.345117405E0,-2.967190444E-1,7.788302377E-3,-1.159082651E-1
5.354829748E0,-1.879882365E-1,4.688252881E-2,-1.366770715E-1
5.364541311E0,-7.559234649E-2,9.941539168E-2,-1.513374150E-1
5.374253759E0,1.725643501E-2,1.458397806E-1,-1.611109674E-1
5.383966884E0,1.039967462E-1,1.556133330E-1,-1.672194302E-1
5.393679228E0,1.882936656E-1,1.458397806E-1,-1.672194302E-1
5.403390790E0,2.628170252E-1,1.238492802E-1,-1.562241912E-1
5.413103238E0,3.471139669E-1,9.697200358E-2,-1.562241912E-1
5.422816363E0,4.558447599E-1,1.152974218E-1,-1.684411317E-1
5.432528707E0,5.694623590E-1,1.727170646E-1,-1.769929975E-1
5.442240321E0,6.781931520E-1,2.350234836E-1,-1.782146841E-1
5.451952665E0,8.028060198E-1,2.728960216E-1,-1.659977436E-1
5.461665894E0,9.237537384E-1,2.985515893E-1,-1.464506239E-1
5.471378186E0,1.022711039E0,3.193204105E-1,-1.354553849E-1
5.481089801E0,1.119224906E0,3.242071867E-1,-1.427855492E-1
5.490802144E0,1.210852027E0,3.376458287E-1,-1.831014603E-1
5.500515373E0,1.291483760E0,3.584146202E-1,-2.405211031E-1
5.510227717E0,1.359898686E0,3.718532622E-1,-2.918322682E-1
5.519939280E0,1.409988165E0,3.205420971E-1,-3.016058207E-1
5.529651623E0,1.458855987E0,2.545706034E-1,-2.820587158E-1
5.539364853E0,1.500393629E0,2.142546773E-1,-2.747285664E-1
5.549077196E0,1.539487839E0,1.568350345E-1,-2.722851634E-1
5.558788759E0,1.557813168E0,1.201841980E-1,-2.820587158E-1
5.568501207E0,1.584690452E0,1.030804738E-1,-2.979407609E-1
5.578214332E0,1.632336617E0,1.055238619E-1,-3.174878657E-1
5.587926676E0,1.678761005E0,5.543438718E-2,-3.052709103E-1
5.597638238E0,1.701973200E0,-5.207473040E-2,-2.673983872E-1
5.607350686E0,1.719076872E0,-1.669140160E-1,-2.368560284E-1
5.617063811E0,1.758323789E0,-2.609844804E-1,-1.977618039E-1
5.626776155E0,1.813300133E0,-3.562766612E-1,-1.501157135E-1
5.636487717E0,1.871941447E0,-4.271349311E-1,-1.036913246E-1
5.646200165E0,1.917144179E0,-4.979932308E-1,-5.238015205E-2
5.655913342E0,1.937912941E0,-5.993938446E-1,-5.955760833E-3
5.665625634E0,1.951351523E0,-6.983511448E-1,2.702999115E-2
5.675337196E0,1.984337330E0,-7.423321605E-1,3.802524135E-2
5.685049644E0,2.012436390E0,-7.582141757E-1,1.359135192E-2
5.694762821E0,2.040535212E0,-8.046385646E-1,-3.161134571E-2
5.704475113E0,2.063747406E0,-8.620582223E-1,-4.382828996E-2
5.714186728E0,2.118723631E0,-9.048175216E-1,2.214321308E-2
5.723899071E0,2.226232767E0,-8.779402375E-1,1.528645307E-1
5.733612301E0,2.348402262E0,-7.423321605E-1,2.982461751E-1
5.743324592E0,2.446137905E0,-5.859552622E-1,4.081986845E-1
5.753036207E0,2.482788801E0,-5.383091569E-1,4.534013867E-1
5.762748551E0,2.435142517E0,-6.189410090E-1,4.411844313E-1
5.772461780E0,2.332520247E0,-7.533273697E-1,3.593308926E-1
5.782174071E0,2.237228155E0,-8.608365059E-1,1.992889196E-1
5.791885686E0,2.220124245E0,-9.487984776E-1,-4.734066315E-3
5.801598030E0,2.282430887E0,-9.988879561E-1,-2.160872221E-1
5.811311259E0,2.377722979E0,-9.891144037E-1,-3.553603888E-1
5.821023551E0,2.474236727E0,-8.913788795E-1,-4.323271513E-1
5.830735165E0,2.524326324E0,-7.374453545E-1,-4.323271513E-1
5.840447509E0,2.469350100E0,-6.543701291E-1,-3.443651497E-1
5.850160738E0,2.330076933E0,-6.788040400E-1,-1.806580722E-1
5.859873030E0,2.157817841E0,-7.276718020E-1,1.359135192E-2
5.869584644E0,1.997775912E0,-7.936432958E-1,1.895153672E-1
5.879296988E0,1.884158373E0,-9.133693576E-1,2.860292196E-1
5.889010217E0,1.829182148E0,-1.052642584E0,2.493783981E-1
5.898722561E0,1.868276358E0,-1.143047929E0,9.055810422E-2
5.908434123E0,1.973342061E0,-1.150378108E0,-9.025268257E-2
5.918146467E0,2.063747406E0,-1.050199151E0,-2.246390730E-1
5.927859696E0,2.096733332E0,-8.852704167E-1,-3.187095523E-1
5.937571988E0,2.046643734E0,-7.398887277E-1,-4.066715539E-1
5.947283603E0,1.936691284E0,-7.105680704E-1,-5.068505406E-1
5.956995946E0,1.836512327E0,-7.044596076E-1,-5.764871240E-1
5.966709176E0,1.812078357E0,-6.458182931E-1,-5.862606764E-1
5.976421467E0,1.878049850E0,-5.517477989E-1,-5.716003180E-1
5.986133082E0,1.994110823E0,-4.564556181E-1,-5.154023767E-1
5.995845426E0,2.105285168E0,-4.124746025E-1,-4.262186885E-1
6.005558655E0,2.130940676E0,-4.112529159E-1,-3.785725832E-1
6.015270946E0,2.042978764E0,-4.588989913E-1,-3.944546282E-1
6.024982561E0,1.886601806E0,-5.138752460E-1,-4.714213610E-1
6.034694905E0,1.725185394E0,-5.407525301E-1,-5.520532131E-1
6.044408134E0,1.574916959E0,-5.627430081E-1,-5.887040496E-1
6.054120426E0,1.464964390E0,-6.213843822E-1,-5.532749295E-1
6.063832040E0,1.364785433E0,-6.849125028E-1,-4.543176591E-1
6.073544384E0,1.284153700E0,-6.946860552E-1,-3.187095523E-1
6.083257613E0,1.258498073E0,-6.055023670E-1,-1.586675793E-1
6.092969905E0,1.247502804E0,-5.187620521E-1,-1.695101149E-2
6.102681519E0,1.215738773E0,-4.381301999E-1,9.055810422E-2
6.112393863E0,1.179087877E0,-3.257342875E-1,1.272089481E-1
6.122107092E0,1.132663488E0,-2.377723008E-1,1.064401343E-1
6.131819384E0,1.093569279E0,-1.351499557E-1,4.779879749E-2
6.141530998E0,1.072800517E0,3.100049868E-2,-1.084253844E-2
6.151243342E0,1.063026905E0,2.276933193E-1,-6.459710002E-2
6.160956571E0,1.043479800E0,4.133908749E-1,-1.134648770E-1
6.170668863E0,9.982771277E-1,5.453338623E-1,-1.928750277E-1
6.180380426E0,9.029849768E-1,5.257867575E-1,-2.405211031E-1
6.190092873E0,7.771504521E-1,4.439332485E-1,-2.600682080E-1
6.199806051E0,6.733064055E-1,3.498627543E-1,-2.735068500E-1
6.209518342E0,6.207735538E-1,2.838912606E-1,-3.016058207E-1
6.219229905E0,5.706840754E-1,2.118112892E-1,-2.845021188E-1
6.228942353E0,5.157077909E-1,1.018587798E-1,-2.221956849E-1
6.238655478E0,4.472928941E-1,-2.519745007E-2,-1.733279079E-1
6.248367821E0,3.177932799E-1,-2.011214644E-1,-1.427855492E-1
6.258079384E0,1.479777545E-1,-3.990359604E-1,-8.414421231E-2
6.267791832E0,-1.939439960E-2,-5.688515306E-1,-1.572931744E-2
6.277504957E0,-1.647760421E-1,-6.910209656E-1,5.635065958E-2
6.287217301E0,-2.747285664E-1,-7.838697433E-1,1.418692768E-1
6.296928863E0,-3.443651497E-1,-8.425110579E-1,2.530434728E-1
6.306641207E0,-3.700207174E-1,-8.302941322E-1,3.092414141E-1
6.316354436E0,-3.785725832E-1,-8.021951914E-1,3.043546379E-1
6.326066728E0,-3.749074936E-1,-7.203416228E-1,2.457133085E-1
6.335778342E0,-3.358132839E-1,-5.150969625E-1,1.369825006E-1
6.345490686E0,-2.502946556E-1,-2.585411072E-1,2.580829710E-2
6.355203915E0,-1.501157135E-1,-1.908897609E-2,-4.504998401E-2
6.364916207E0,-7.314895838E-2,1.812689304E-1,-9.391776472E-2
6.374627821E0,-3.038965166E-2,3.156553209E-1,-1.183516532E-1
6.384340165E0,-2.550287358E-2,3.950654566E-1,-1.183516532E-1
6.394053394E0,-4.382828996E-2,4.378247857E-1,-8.536590636E-2
6.403765686E0,-6.459710002E-2,4.549284875E-1,-2.305948362E-2
6.413477248E0,-7.314895838E-2,4.488200247E-1,4.779879749E-2
6.423189696E0,-5.848862603E-2,4.170559645E-1,1.015533581E-1
6.432902873E0,-1.328592747E-2,3.730749488E-1,1.284306347E-1
6.442615165E0,3.680354729E-2,3.437542915E-1,1.308740228E-1
6.452326728E0,5.879404768E-2,3.107685447E-1,1.125486046E-1
6.462039176E0,4.413371533E-2,2.411319613E-1,8.322793990E-2
6.471752301E0,7.482878864E-3,1.507265568E-1,5.757235363E-2
6.481464644E0,-4.138490185E-2,8.719844371E-2,4.046862945E-2
6.491176207E0,-9.269607067E-2,4.932591692E-2,3.313846514E-2
6.500888551E0,-1.476723254E-1,1.878355257E-2,2.336490713E-2
6.510601780E0,-2.099787444E-1,4.581354442E-4,3.817795310E-3
6.520314071E0,-2.686200738E-1,2.901524538E-3,-1.695101149E-2
6.530025686E0,-3.199312389E-1,3.710897267E-2,-2.428117767E-2
6.539738030E0,-3.724641204E-1,7.009471953E-2,-2.061609551E-2
6.549451259E0,-4.262186885E-1,7.009471953E-2,-1.328592747E-2
6.559163551E0,-4.775298536E-1,6.276455522E-2,-1.450762246E-2
6.568875165E0,-5.239542127E-1,7.375980914E-2,-1.695101149E-2
6.578587509E0,-5.593833923E-1,9.941539168E-2,-9.620844387E-3
6.588300686E0,-6.033644080E-1,1.605001241E-1,-1.068982761E-3
6.598013030E0,-6.766660213E-1,2.289150059E-1,2.596100792E-3
6.607724592E0,-7.841751575E-1,2.875563502E-1,1.847812906E-2
6.617437040E0,-9.173398614E-1,3.242071867E-1,5.390727147E-2
6.627150165E0,-1.048061132E0,3.498627543E-1,1.052184403E-1
6.636862509E0,-1.143353343E0,3.278722763E-1,1.553079188E-1
6.646574071E0,-1.223985195E0,2.203631550E-1,1.870719790E-1
6.656286415E0,-1.336381078E0,7.375980914E-2,1.980672181E-1
6.665999644E0,-1.476875901E0,-1.070509851E-1,1.809635013E-1
6.675711936E0,-1.634474516E0,-2.744231224E-1,1.589729935E-1
6.685423551E0,-1.781077862E0,-3.672719002E-1,1.589729935E-1
6.695135894E0,-1.911799192E0,-3.599417508E-1,1.760767251E-1
6.704849123E0,-2.018086672E0,-2.805316150E-1,1.834068894E-1
6.714561415E0,-2.081614733E0,-1.498102844E-1,1.528645307E-1
6.724272978E0,-2.079171419E0,-2.031067200E-2,9.422318637E-2
6.733985426E0,-2.031525373E0,1.006370857E-1,4.657710344E-2
6.743698551E0,-1.983879209E0,2.509055138E-1,5.024218559E-2
6.753410894E0,-1.994874477E0,3.571929336E-1,1.039967462E-1
6.763122457E0,-2.112157106E0,3.730749488E-1,1.834068894E-1
6.772834801E0,-2.302741528E0,2.838912606E-1,2.518217862E-1
6.782548030E0,-2.500655890E0,1.971509457E-1,2.860292196E-1
6.792260321E0,-2.610608578E0,2.741177082E-1,3.055763543E-1
6.801971936E0,-2.584952831E0,4.866925478E-1,3.214583695E-1
6.811684280E0,-2.427354336E0,7.090409398E-1,3.422271907E-1
6.821397509E0,-2.205005884E0,8.678612709E-1,3.923166394E-1
6.831109801E0,-2.004647970E0,8.922951221E-1,5.083776116E-1
6.840821363E0,-1.882478595E0,7.982246280E-1,6.598677635E-1
6.850533811E0,-1.836054206E0,6.797202826E-1,8.005153537E-1
6.860246936E0,-1.843384266E0,6.174138784E-1,8.579349518E-1
6.869959280E0,-1.894695520E0,6.846070886E-1,7.748597264E-1
6.879670842E0,-1.986322522E0,8.104416132E-1,6.122216582E-1
6.889383186E0,-2.092609882E0,9.265025854E-1,4.815003574E-1
6.899096415E0,-2.179350376E0,1.019351363E0,4.436278343E-1
6.908808707E0,-2.205005884E0,1.101204872E0,4.497362971E-1
6.918520321E0,-2.167133331E0,1.282015681E0,4.534013867E-1
6.928232665E0,-2.098718405E0,1.595991135E0,4.937172830E-1
6.937945894E0,-2.004647970E0,1.897749662E0,4.815003574E-1
6.947658186E0,-1.882478595E0,2.060235023E0,3.935383558E-1
6.957369748E0,-1.765195847E0,1.928292036E0,2.677038014E-1
6.967082196E0,-1.728545070E0,1.603321314E0,1.516428292E-1
6.976795321E0,-1.809176922E0,1.330883503E0,1.015533581E-1
6.986507665E0,-1.900803924E0,1.079214454E0,1.272089481E-1
6.996219228E0,-1.906912446E0,9.374978542E-1,1.956238300E-1
7.005931571E0,-1.779856205E0,1.045006990E0,2.396048307E-1
7.015644801E0,-1.574611545E0,1.223374367E0,2.212794125E-1
7.025357092E0,-1.432894945E0,1.317444801E0,1.443126649E-1
7.035068655E0,-1.442668557E0,1.306449533E0,4.169032723E-2
7.044781103E0,-1.533073902E0,1.187945247E0,-4.749337584E-2
7.054494228E0,-1.605153918E0,1.015686274E0,-9.758284688E-2
7.064206571E0,-1.683342338E0,7.945595980E-1,-6.337540597E-2
7.073918134E0,-1.779856205E0,6.247440577E-1,7.482878864E-3
7.083630478E0,-1.828724027E0,5.819846988E-1,4.657710344E-2
7.093343707E0,-1.817728758E0,5.184566379E-1,5.390727147E-2
7.103055998E0,-1.772526026E0,3.755183518E-1,5.024218559E-2
7.112767613E0,-1.729766726E0,1.751604527E-1,2.336490713E-2
7.122479957E0,-1.757865667E0,-4.840964451E-2,2.336490713E-2
7.132193186E0,-1.843384266E0,-2.170034945E-1,1.101052165E-1
7.141905478E0,-1.888586998E0,-2.683146596E-1,2.322746664E-1
7.151617040E0,-1.919129372E0,-3.416163325E-1,3.568875194E-1
7.161329488E0,-2.004647970E0,-3.721587062E-1,4.521796703E-1
7.171042613E0,-2.051072359E0,-4.222481549E-1,4.741701782E-1
7.180754905E0,-2.015643358E0,-5.212054253E-1,4.778352678E-1
7.190466519E0,-1.986322522E0,-5.969504714E-1,4.802786708E-1
7.200178863E0,-1.967997193E0,-7.032378912E-1,4.949389994E-1
7.209892092E0,-1.927681208E0,-8.217422962E-1,4.326325655E-1
7.219604384E0,-1.911799192E0,-9.500201941E-1,3.593308926E-1
7.229315946E0,-1.875148416E0,-1.033095479E0,3.080197275E-1
7.239028394E0,-1.814063668E0,-1.055085897E0,3.031329513E-1
7.248741519E0,-1.722436547E0,-9.646805525E-1,3.226800561E-1
7.258453863E0,-1.619814277E0,-8.461761475E-1,3.226800561E-1
7.268165426E0,-1.535517335E0,-7.508839965E-1,3.177932799E-1
7.277877769E0,-1.407239318E0,-6.128324866E-1,3.067980409E-1
7.287590998E0,-1.282626510E0,-4.808894992E-1,2.970244884E-1
7.297303290E0,-1.178782463E0,-3.843756318E-1,3.739912212E-1
7.307014853E0,-1.039509296E0,-2.304421216E-1,3.984251320E-1
7.316727301E0,-9.258917570E-1,-1.510319859E-1,3.715478480E-1
7.326440426E0,-8.415948153E-1,-1.082726792E-1,3.226800561E-1
7.336152769E0,-7.291989326E-1,-4.428642802E-3,2.322746664E-1
7.345864332E0,-6.253548861E-1,6.765133142E-2,1.333174109E-1
7.355576676E0,-5.642701387E-1,6.765133142E-2,1.186570823E-1
7.365289905E0,-4.775298536E-1,8.353336155E-2,7.834116369E-2
7.375002196E0,-3.956763148E-1,5.054761097E-2,3.680354729E-2
7.384713759E0,-3.419217467E-1,4.810422286E-2,-9.620844387E-3
7.394426207E0,-2.759502530E-1,5.176930502E-2,-4.993676394E-2
7.404139332E0,-1.892099380E-1,9.819369763E-2,-9.025268257E-2
7.413851676E0,-7.803573459E-2,1.763821393E-1,-1.378987730E-1
7.423563238E0,4.291202128E-2,2.594573796E-1,-1.892099380E-1
7.433275582E0,1.687465608E-1,3.510844707E-1,-2.490729690E-1
7.442988811E0,2.872509360E-1,4.182776511E-1,-3.126010895E-1
7.452701103E0,4.155288339E-1,4.427115619E-1,-3.712424338E-1
7.462412717E0,5.205945969E-1,4.194993675E-1,-4.127800465E-1
7.472125061E0,5.963396430E-1,3.779617548E-1,-4.482091665E-1
7.481838238E0,6.989619732E-1,3.510844707E-1,-4.824166298E-1
7.491550582E0,8.113578558E-1,3.510844707E-1,-4.860817194E-1
7.501262144E0,9.384140968E-1,3.987305462E-1,-4.811949134E-1
7.510974592E0,1.075243831E0,4.879142344E-1,-4.824166298E-1
7.520687717E0,1.227955699E0,6.003101468E-1,-4.689779878E-1
7.530400061E0,1.390441060E0,7.334748507E-1,-4.311054647E-1
7.540111623E0,1.532157660E0,8.226585388E-1,-3.749074936E-1
7.549823967E0,1.634779930E0,8.360971808E-1,-3.150444627E-1
7.559537196E0,1.697086453E0,7.615737915E-1,-2.735068500E-1
7.569249488E0,1.733737230E0,6.565080881E-1,-2.417428046E-1
7.578961051E0,1.774205923E0,5.697677732E-1,-2.429644912E-1
7.588673498E0,1.841399074E0,4.952444136E-1,-2.649549842E-1
7.598386676E0,1.886601806E0,4.561502039E-1,-3.052709103E-1
7.608098967E0,1.918365836E0,4.317162931E-1,-3.675773442E-1
7.617810530E0,1.947686434E0,4.072824121E-1,-4.433223903E-1
7.627522978E0,1.948908210E0,3.315373361E-1,-4.995203316E-1
7.637236103E0,1.926917672E0,2.460187376E-1,-5.276193023E-1
7.646948446E0,1.895153642E0,1.495048702E-1,-5.422796607E-1
7.656660009E0,1.857281089E0,2.122694254E-2,-5.410579443E-1
7.666372353E0,1.825517058E0,-1.082726792E-1,-5.654918551E-1
7.676085582E0,1.857281089E0,-1.656923145E-1,-5.960342288E-1
7.685797873E0,1.920809150E0,-1.974563748E-1,-5.728220344E-1
7.695509488E0,1.986780763E0,-2.951919436E-1,-5.129590034E-1
7.705221832E0,2.013658047E0,-4.124746025E-1,-4.164451063E-1
7.714935061E0,2.029540062E0,-4.894413650E-1,-3.321481943E-1
7.724647353E0,2.051530600E0,-5.102101564E-1,-2.954973578E-1
7.734358967E0,2.091846466E0,-4.185830951E-1,-3.345915973E-1
7.744071311E0,2.140714169E0,-3.978142738E-1,-3.419217467E-1
7.753784540E0,2.199355602E0,-3.562766612E-1,-3.590254784E-1
7.763496832E0,2.264105320E0,-3.159607351E-1,-3.810159862E-1
7.773208394E0,2.298312902E0,-3.440597057E-1,-3.712424338E-1
7.782920842E0,2.279987335E0,-4.527905285E-1,-3.162661791E-1
7.792633967E0,2.254331827E0,-5.456393361E-1,-2.466295809E-1
7.802346311E0,2.244558334E0,-6.128324866E-1,-1.488940120E-1
7.812057873E0,2.265326977E0,-6.665870547E-1,-4.627167806E-2
7.821770321E0,2.321525097E0,-6.592568755E-1,3.924693540E-2
7.831483446E0,2.370392799E0,-5.883986354E-1,7.956285775E-2
7.841195790E0,2.378944635E0,-5.322006941E-1,6.123743951E-2
7.850907353E0,2.380166292E0,-4.979932308E-1,1.114796288E-2
7.860619696E0,2.393604994E0,-4.747810364E-1,-4.993676394E-2
7.870332926E0,2.422925711E0,-4.992149174E-1,-9.758284688E-2
7.880045217E0,2.464463234E0,-6.103891134E-1,-1.464506239E-1
7.889756832E0,2.460798264E0,-8.156337738E-1,-1.598892659E-1
7.899469176E0,2.409487009E0,-1.055085897E0,-1.501157135E-1
7.909182405E0,2.343515396E0,-1.196802497E0,-1.623326540E-1
7.918894696E0,2.272657156E0,-1.191915751E0,-1.537808031E-1
7.928606311E0,2.195690393E0,-1.088071704E0,-1.232384369E-1
7.938318655E0,2.116280317E0,-1.006218195E0,-1.085781008E-1
7.948031884E0,2.056417227E0,-9.695672989E-1,-1.317902952E-1
7.957744176E0,2.060082436E0,-9.206995368E-1,-2.026485801E-1
7.967455790E0,2.107728481E0,-8.730534315E-1,-2.991624475E-1
7.977168134E0,2.174921751E0,-8.302941322E-1,-3.822376728E-1
7.986881363E0,2.273878813E0,-7.386670709E-1,-4.408790171E-1
7.996593655E0,2.400935173E0,-6.665870547E-1,-4.311054647E-1
8.006305217E0,2.414373875E0,-6.360446811E-1,-3.394783735E-1
8.016017665E0,2.268992186E0,-6.995728016E-1,-2.429644912E-1
8.025730790E0,2.096733332E0,-8.156337738E-1,-2.331909388E-1
8.035443134E0,1.988002419E0,-8.412894011E-1,-3.162661791E-1
8.045154696E0,1.981893897E0,-7.240067124E-1,-4.323271513E-1
8.054867144E0,2.080851078E0,-5.004366040E-1,-5.068505406E-1
8.064580321E0,2.214015961E0,-2.903051674E-1,-5.092939138E-1
8.074292613E0,2.300756216E0,-2.133384049E-1,-4.201101959E-1
8.084004176E0,2.264105320E0,-2.023431510E-1,-2.869454920E-1
8.093716623E0,2.074742794E0,-2.487675399E-1,-1.672194302E-1
8.103429748E0,1.776649237E0,-3.721587062E-1,-6.337540597E-2
8.113142092E0,1.464964390E0,-5.346440673E-1,2.947338112E-2
8.122853655E0,1.240172625E0,-6.592568755E-1,1.137702987E-1
8.132566103E0,1.089904189E0,-6.934643388E-1,1.944021434E-1
8.142279228E0,1.001942158E0,-6.299362183E-1,2.396048307E-1
8.151991571E0,9.701781869E-1,-4.906630516E-1,2.444916219E-1
8.161703134E0,1.010494113E0,-2.988570333E-1,1.834068894E-1
8.171415582E0,1.080130696E0,-9.849911928E-2,7.956285775E-2
8.181128707E0,1.141215444E0,4.321744293E-2,-1.328592747E-2
8.190841051E0,1.160762548E0,8.719844371E-2,-4.871506989E-2
8.200552613E0,1.085017443E0,6.887302548E-2,-1.817270555E-2
8.210264957E0,9.042066336E-1,-7.635590737E-4,3.802524135E-2
8.219978186E0,6.952968836E-1,-6.917845458E-2,7.467607409E-2
8.229690530E0,5.267030597E-1,-7.895200700E-2,6.612421572E-2
8.239402092E0,4.240806997E-1,-6.917845458E-2,4.657710344E-2
8.249114540E0,3.837648034E-1,-3.008422814E-2,-1.206423342E-2
8.258827665E0,3.923166394E-1,3.100049868E-2,-1.159082651E-1
8.268540009E0,4.069769979E-1,-5.650337320E-3,-1.745496094E-1
8.278251571E0,3.947600424E-1,-7.895200700E-2,-2.026485801E-1
8.287964019E0,3.190149665E-1,-1.327065676E-1,-1.855448484E-1
8.297677144E0,1.870719790E-1,-2.121167034E-1,-1.342336833E-1
8.307389488E0,2.092151903E-2,-3.061871827E-1,-5.848862603E-2
8.317101051E0,-1.464506239E-1,-4.308000207E-1,2.947338112E-2
8.326813498E0,-2.918322682E-1,-5.578562617E-1,9.422318637E-2
8.336526623E0,-3.846810758E-1,-5.908420086E-1,1.418692768E-1
8.346238967E0,-4.078932703E-1,-5.150969625E-1,1.870719790E-1
8.355950530E0,-3.700207174E-1,-3.623851240E-1,1.308740228E-1
8.365662978E0,-2.954973578E-1,-1.950129867E-1,3.191677108E-2
8.375376103E0,-1.806580722E-1,4.123218823E-3,-5.482354015E-2
8.385088446E0,-4.993676394E-2,2.008160353E-1,-1.049130186E-1
8.394800009E0,4.535540938E-2,3.339807391E-1,-1.122431830E-1
8.404512457E0,8.933641016E-2,3.767400384E-1,-9.147437662E-2
8.414225582E0,7.956285775E-2,3.510844707E-1,-5.238015205E-2
8.423937926E0,2.580829710E-2,2.887780368E-1,-4.734066315E-3
8.433649488E0,-5.238015205E-2,2.215848416E-1,3.680354729E-2
8.443361936E0,-1.269035190E-1,1.470614821E-1,6.734590977E-2
8.453075061E0,-1.843231618E-1,8.964183182E-2,8.444963396E-2
8.462787405E0,-2.246390730E-1,8.475505561E-2,9.055810422E-2
8.472498967E0,-2.576248348E-1,1.018587798E-1,8.933641016E-2
8.482211415E0,-2.747285664E-1,1.348445266E-1,8.444963396E-2
8.491924540E0,-2.759502530E-1,1.776038408E-1,9.177979827E-2
8.501636884E0,-2.796153426E-1,2.044811249E-1,1.088835225E-1
8.511348446E0,-3.089359999E-1,2.191414535E-1,1.235438585E-1
8.521060894E0,-3.651339412E-1,1.971509457E-1,1.247655526E-1
8.530774019E0,-4.323271513E-1,1.287360638E-1,1.101052165E-1
8.540486363E0,-4.995203316E-1,6.154286116E-2,8.811471611E-2
8.550197926E0,-5.618267655E-1,3.955236077E-2,6.734590977E-2
8.559910373E0,-6.241331697E-1,5.299099907E-2,5.757235363E-2
8.569623498E0,-7.010999322E-1,9.575030953E-2,5.879404768E-2
8.579335842E0,-7.963921428E-1,1.702736765E-1,6.978929788E-2
8.589047405E0,-9.063445926E-1,3.034383655E-1,8.567132801E-2
8.598759853E0,-1.026070714E0,5.062396526E-1,8.933641016E-2
8.608472978E0,-1.111589313E0,7.420266867E-1,3.069507517E-2
8.618185321E0,-1.156792045E0,9.704836011E-1,-7.803573459E-2
8.627896884E0,-1.171452284E0,1.071884274E0,-2.002051920E-1
8.637609332E0,-1.198329568E0,1.029124975E0,-3.052709103E-1
8.647322457E0,-1.245975733E0,8.580876589E-1,-3.761292100E-1
8.657034801E0,-1.349819779E0,5.917583108E-1,-4.042281806E-1
8.666746363E0,-1.569724798E0,2.545706034E-1,-3.822376728E-1
8.676458811E0,-1.902025700E0,-8.506047726E-2,-3.016058207E-1
8.686171936E0,-2.279529333E0,-4.051444530E-1,-1.611109674E-1
8.695884280E0,-2.616716862E0,-6.458182931E-1,1.603474095E-2
8.705595842E0,-2.819518328E0,-6.775823236E-1,1.675248593E-1
8.715308290E0,-2.836622000E0,-3.526115716E-1,2.493783981E-1
8.725021415E0,-2.702235460E0,1.189625040E-1,2.347180545E-1
8.734733759E0,-2.540971994E0,5.331169367E-1,1.821851879E-1
8.744445321E0,-2.400476933E0,8.764131069E-1,1.809635013E-1
8.754157769E0,-2.308849812E0,1.063332319E0,2.518217862E-1
8.763870894E0,-2.310071707E0,1.087766290E0,4.008685052E-1
8.773583238E0,-2.390703440E0,1.018129706E0,6.256603003E-1
8.783294801E0,-2.520203114E0,9.863656163E-1,8.725953102E-1
8.793007248E0,-2.572736025E0,1.069440842E0,9.813261032E-1
8.802720373E0,-2.455453157E0,1.032789946E0,8.628217578E-1
8.812432717E0,-2.266090631E0,9.729269743E-1,5.792359114E-1
8.822144280E0,-2.091388226E0,1.079214454E0,2.774773538E-1
8.831856728E0,-2.016865015E0,1.301562786E0,7.345438004E-2
8.841569853E0,-2.038855553E0,1.404185176E0,6.261184346E-3
8.851282196E0,-2.093831778E0,1.366312623E0,4.291202128E-2
8.860993759E0,-2.142699480E0,1.378529549E0,1.308740228E-1
8.870706207E0,-2.156138182E0,1.598434567E0,2.176143378E-1
8.880419332E0,-2.092609882E0,2.098107576E0,2.713688910E-1
8.890131676E0,-1.922794461E0,2.425521851E0,3.080197275E-1
8.899843238E0,-1.787186384E0,2.028470993E0,2.713688910E-1
8.909555686E0,-1.799403310E0,1.379751205E0,2.066190839E-1
8.919268811E0,-1.902025700E0,9.142856598E-1,2.041756958E-1
8.928981155E0,-1.986322522E0,7.114843726E-1,2.273878902E-1
8.938692717E0,-1.944784999E0,6.381826997E-1,2.102841735E-1
8.948405165E0,-1.821393847E0,6.284091473E-1,1.101052165E-1
8.958118290E0,-1.790851474E0,5.746545792E-1,-9.391776472E-2
8.967830634E0,-2.030303478E0,3.425326049E-1,-3.321481943E-1
8.977542196E0,-2.358939409E0,1.702736765E-1,-4.787515402E-1
8.987254644E0,-2.487217426E0,6.887302548E-2,-4.628695250E-1
8.996967769E0,-2.404142141E0,-1.021642014E-1,-2.942756712E-1
9.006680113E0,-2.264868975E0,-2.487675399E-1,-3.649812192E-2
9.016391676E0,-2.187902212E0,-1.204896197E-1,2.127275616E-1
9.026104123E0,-2.117043972E0,2.166980654E-1,3.984251320E-1
9.035817248E0,-2.002204657E0,4.036173224E-1,5.303681493E-1
9.045529592E0,-2.015643358E0,1.299577504E-1,5.584670901E-1
9.055241155E0,-2.135369301E0,-2.475458533E-1,4.973823726E-1
9.064953603E0,-2.162246466E0,-3.611634374E-1,4.277457893E-1
9.074666728E0,-2.054737568E0,-2.108950168E-1,3.556658030E-1
9.084379071E0,-1.932568073E0,-5.940489471E-2,2.945810854E-1
9.094090634E0,-1.952115178E0,-1.204896197E-1,3.019112647E-1
9.103803082E0,-2.063289404E0,-4.112529159E-1,3.544441164E-1
9.113516207E0,-2.125595808E0,-6.336013079E-1,4.179722369E-1
9.123228551E0,-2.049850702E0,-5.236487985E-1,4.766135812E-1
9.132940113E0,-1.884921908E0,-3.122956753E-1,5.059342384E-1
9.142652561E0,-1.757865667E0,-2.108950168E-1,5.034908652E-1
9.152365686E0,-1.730988383E0,-1.632489264E-1,4.924955964E-1
9.162078030E0,-1.706554532E0,-7.895200700E-2,5.010474920E-1
9.171789592E0,-1.646691442E0,-2.519745007E-2,4.912739098E-1
9.181502040E0,-1.579498291E0,5.176930502E-2,4.497362971E-1
9.191215165E0,-1.563616276E0,-3.206948051E-3,3.727695346E-1
9.200927509E0,-1.612484097E0,-2.670929730E-1,3.324536085E-1
9.210639071E0,-1.672347069E0,-5.273138881E-1,2.933593988E-1
9.220351519E0,-1.690672517E0,-7.154548764E-1,2.542651594E-1
9.230064644E0,-1.656465054E0,-8.144121170E-1,1.858502775E-1
9.239776988E0,-1.601488829E0,-8.913788795E-1,1.638597846E-1
9.249488551E0,-1.520856977E0,-8.596147895E-1,1.088835225E-1
9.259200998E0,-1.406017661E0,-7.618792653E-1,6.978929788E-2
9.268914123E0,-1.267966151E0,-5.883986354E-1,6.490252167E-2
9.278626467E0,-1.118919492E0,-3.965925872E-1,1.027750522E-1
9.288338030E0,-9.796462655E-1,-2.182251811E-1,1.528645307E-1
9.298050478E0,-8.464815617E-1,-8.017370105E-2,1.809635013E-1
9.307763603E0,-7.206470370E-1,-1.298050396E-2,1.711899489E-1
9.317475946E0,-6.143596172E-1,3.710897267E-2,1.052184403E-1
9.327187509E0,-5.215108395E-1,3.344388679E-2,4.902049154E-2
9.336899957E0,-4.286620617E-1,5.176930502E-2,1.236965694E-2
9.346613082E0,-3.260397315E-1,1.018587798E-1,-4.138490185E-2
9.356325426E0,-2.270824611E-1,1.336228400E-1,-9.391776472E-2
9.366036988E0,-1.537808031E-1,1.556133330E-1,-1.330119967E-1
9.375749436E0,-5.482354015E-2,1.910424829E-1,-1.611109674E-1
9.385462561E0,4.291202128E-2,2.338017821E-1,-1.965401024E-1
9.395174905E0,1.357607991E-1,2.655658424E-1,-2.209739983E-1
9.404886467E0,2.469350100E-1,2.753393948E-1,-2.258607745E-1
9.414598811E0,3.336753249E-1,2.753393948E-1,-2.295258641E-1
9.424312040E0,4.265241027E-1,2.765611112E-1,-2.380777150E-1
9.434024332E0,5.486935377E-1,3.046600819E-1,-2.564031482E-1
9.443735946E0,6.904101372E-1,3.474193811E-1,-2.637332976E-1
9.453448290E0,8.162446618E-1,3.437542915E-1,-2.454078794E-1
9.463161519E0,9.384140968E-1,3.425326049E-1,-2.417428046E-1
9.472873811E0,1.052031636E0,3.706315756E-1,-2.307475507E-1
9.482585426E0,1.180309653E0,4.317162931E-1,-2.380777150E-1
9.492297769E0,1.301257372E0,4.903576374E-1,-2.454078794E-1
9.502010998E0,1.412431598E0,5.428904891E-1,-2.441861928E-1
9.511723290E0,1.508945465E0,5.746545792E-1,-2.417428046E-1
9.521434905E0,1.593242407E0,5.734328628E-1,-2.319692522E-1
9.531147248E0,1.644553542E0,5.551074743E-1,-2.209739983E-1
9.540860478E0,1.694643021E0,5.318952799E-1,-2.038702667E-1
9.550572769E0,1.758323789E0,5.001311898E-1,-1.769929975E-1
9.560284384E0,1.805969954E0,4.659237564E-1,-1.562241912E-1
9.569996728E0,1.835290551E0,4.182776511E-1,-1.415638477E-1
9.579709957E0,1.849950910E0,3.596363366E-1,-1.220167428E-1
9.589422248E0,1.837733984E0,2.521272004E-1,-9.391776472E-2
9.599133863E0,1.793753028E0,1.079672500E-1,-8.170082420E-2
9.608846207E0,1.739998460E0,-5.940489471E-2,-9.269607067E-2
9.618559436E0,1.679982662E0,-2.255553454E-1,-1.317902952E-1
9.628271728E0,1.634779930E0,-3.746020794E-1,-2.026485801E-1
9.637983290E0,1.614011168E0,-5.224271417E-1,-2.783936262E-1
9.647695738E0,1.640888453E0,-5.920637250E-1,-3.199312389E-1
9.657408863E0,1.736333370E0,-5.664080977E-1,-3.211529553E-1
9.667121207E0,1.832847238E0,-5.419742465E-1,-2.735068500E-1
9.676832769E0,1.864611268E0,-6.274928451E-1,-2.002051920E-1
9.686545217E0,1.858502746E0,-7.887565494E-1,-1.281252056E-1
9.696258342E0,1.862167835E0,-9.378032684E-1,-7.803573459E-2
9.705970686E0,1.879271626E0,-1.007439852E0,-6.093201414E-2
9.715682248E0,1.874384761E0,-1.040425539E0,-7.070557028E-2
9.725394696E0,1.860946178E0,-1.146713018E0,-1.012479365E-1
9.735107821E0,1.895153642E0,-1.245670319E0,-1.464506239E-1
9.744820165E0,1.994110823E0,-1.277434349E0,-1.769929975E-1
9.754531728E0,2.130940676E0,-1.234675050E0,-1.928750277E-1
9.764244071E0,2.260440350E0,-1.145491362E0,-2.099787444E-1
9.773957301E0,2.364284277E0,-1.042868972E0,-2.429644912E-1
9.783669644E0,2.422925711E0,-9.573503733E-1,-2.747285664E-1
9.793381207E0,2.427812338E0,-8.522846103E-1,-2.735068500E-1
9.803093551E0,2.411930323E0,-7.386670709E-1,-2.588465214E-1
9.812806780E0,2.410708666E0,-6.971294284E-1,-2.380777150E-1
9.822519071E0,2.424147367E0,-7.337802649E-1,-2.075353563E-1
9.832230686E0,2.459576607E0,-7.484406233E-1,-2.124221325E-1
9.841943030E0,2.490118742E0,-6.873558760E-1,-2.270824611E-1
9.851656259E0,2.487675428E0,-5.871769190E-1,-2.356343269E-1
9.861368551E0,2.462019920E0,-5.102101564E-1,-2.417428046E-1
9.871080113E0,2.463241577E0,-4.063661397E-1,-2.392994165E-1
9.880792561E0,2.499892473E0,-2.744231224E-1,-2.112004459E-1
9.890505686E0,2.552425385E0,-2.878617644E-1,-1.513374150E-1
9.900218030E0,2.579302549E0,-4.515688419E-1,-1.122431830E-1
9.909929592E0,2.564642191E0,-6.128324866E-1,-1.110214889E-1
9.919642040E0,2.499892473E0,-6.800256968E-1,-1.391204596E-1
9.929355165E0,2.405822039E0,-6.470399499E-1,-1.879882365E-1
9.939067509E0,2.325190067E0,-5.273138881E-1,-2.564031482E-1
9.948779071E0,2.265326977E0,-3.794888556E-1,-3.639122546E-1
9.958491519E0,2.215237617E0,-3.306210935E-1,-4.592044353E-1
9.968204644E0,2.192025423E0,-3.135173619E-1,-5.031854510E-1
9.977916936E0,2.199355602E0,-3.110739589E-1,-4.421007037E-1
9.987628551E0,2.204242229E0,-3.574983478E-1,-3.016058207E-1
9.997340894E0,2.190803766E0,-3.807105422E-1,-1.843231618E-1
1.000705412E1,2.143157721E0,-3.623851240E-1,-1.403421611E-1
1.001676642E1,1.990445852E0,-4.210264683E-1,-1.904316396E-1
1.002647803E1,1.710525036E0,-5.859552622E-1,-3.199312389E-1
1.003619037E1,1.441752195E0,-7.533273697E-1,-4.775298536E-1
1.004590360E1,1.333021402E0,-8.437327743E-1,-5.630484819E-1
1.005561589E1,1.398992896E0,-8.388460279E-1,-5.483881235E-1
1.006532746E1,1.577360392E0,-7.496622801E-1,-4.860817194E-1
1.007503990E1,1.739998460E0,-6.702521443E-1,-3.968980014E-1
1.008475303E1,1.812078357E0,-6.641436815E-1,-3.052709103E-1
1.009446537E1,1.793753028E0,-6.922426820E-1,-2.246390730E-1
1.010417694E1,1.665322304E0,-7.325585485E-1,-1.440072358E-1
1.011388938E1,1.418540001E0,-8.131904006E-1,-6.948387623E-2
1.012360251E1,1.133885264E0,-8.730534315E-1,-3.512371797E-3
1.013331485E1,8.895463347E-1,-8.828269839E-1,7.711946964E-2
1.014302642E1,7.380561829E-1,-8.364025950E-1,1.467560530E-1
1.015273876E1,6.733064055E-1,-7.130114436E-1,1.760767251E-1
1.016245199E1,6.659762263E-1,-5.138752460E-1,1.809635013E-1
1.017216428E1,7.075138092E-1,-2.878617644E-1,1.736333370E-1
1.018187589E1,7.795938253E-1,-8.872556686E-2,1.027750522E-1
1.019158824E1,8.492304087E-1,4.566083103E-2,1.969982497E-2
1.020130147E1,8.883246183E-1,1.372879148E-1,-4.504998401E-2
1.021101376E1,8.822161555E-1,2.093679011E-1,-9.269607067E-2
1.022072532E1,8.357917666E-1,2.338017821E-1,-1.073564067E-1
1.023043777E1,7.392778993E-1,2.154763639E-1,-9.513945878E-2
1.024015095E1,6.158867478E-1,1.849340051E-1,-6.581879407E-2
1.024986324E1,4.937172830E-1,1.495048702E-1,-8.399149403E-3
1.025957480E1,4.069769979E-1,8.597674966E-2,4.413371533E-2
1.026928725E1,3.605526090E-1,3.466558084E-2,6.978929788E-2
1.027900037E1,3.263451457E-1,3.833066672E-2,6.368082762E-2
1.028871272E1,2.786990702E-1,9.330692142E-2,3.558185324E-2
1.029842428E1,2.151709497E-1,1.250709742E-1,4.046862945E-2
1.030813662E1,1.382041872E-1,1.238492802E-1,3.069507517E-2
1.031784985E1,3.924693540E-2,7.375980914E-2,5.039489828E-3
1.032756214E1,-6.826218218E-2,-1.908897609E-2,2.458660305E-2
1.033727376E1,-1.659977436E-1,-1.229330078E-1,6.245913357E-2
1.034698610E1,-2.490729690E-1,-1.827960461E-1,9.177979827E-2
1.035669933E1,-3.052709103E-1,-2.035648525E-1,8.078455180E-2
1.036641162E1,-3.064926267E-1,-2.218902707E-1,4.779879749E-2
1.037612319E1,-2.502946556E-1,-2.023431510E-1,-2.916795574E-2
1.038583563E1,-1.684411317E-1,-1.363716573E-1,-7.437065244E-2
1.039554876E1,-1.036913246E-1,-3.008422814E-2,-7.192726433E-2
1.040526110E1,-7.681404054E-2,7.864658535E-2,-4.749337584E-2
1.041497266E1,-8.658760041E-2,1.543916464E-1,-2.183778957E-2
1.042468501E1,-1.183516532E-1,2.069245130E-1,1.374406274E-3
1.043439824E1,-1.452289373E-1,2.680092454E-1,1.969982497E-2
1.044411053E1,-1.488940120E-1,3.413109183E-1,3.069507517E-2
1.045382214E1,-1.317902952E-1,3.865135908E-1,3.680354729E-2
1.046353449E1,-9.269607067E-2,3.999522328E-1,3.313846514E-2
1.047324772E1,-4.260659590E-2,4.133908749E-1,2.092151903E-2
1.048296001E1,7.482878864E-3,4.194993675E-1,2.947338112E-2
1.049267157E1,5.146388337E-2,3.975088596E-1,3.802524135E-2
1.050238402E1,6.490252167E-2,3.449759781E-1,4.291202128E-2
1.051209720E1,3.436015919E-2,2.704526186E-1,4.657710344E-2
1.052180949E1,-3.161134571E-2,2.032594234E-1,5.390727147E-2
1.053152105E1,-1.171299592E-1,1.507265568E-1,7.589777559E-2
1.054123350E1,-2.112004459E-1,1.262926757E-1,9.910997003E-2
1.055094662E1,-3.016058207E-1,1.311794519E-1,1.088835225E-1
1.056065897E1,-3.773508966E-1,1.470614821E-1,9.300149232E-2
1.057037053E1,-4.494308829E-1,1.421747059E-1,5.512896553E-2
1.058008287E1,-5.202891231E-1,1.287360638E-1,1.114796288E-2
1.058979610E1,-5.801522136E-1,1.067455560E-1,-3.161134571E-2
1.059950839E1,-6.314633489E-1,7.620319724E-2,-6.093201414E-2
1.060921996E1,-7.194253802E-1,6.154286116E-2,-6.826218218E-2
1.061893240E1,-8.440381885E-1,3.588727489E-2,-7.314895838E-2
1.062864553E1,-9.808679819E-1,-4.840964451E-2,-7.437065244E-2
1.063835787E1,-1.126249671E0,-1.363716573E-1,-7.314895838E-2
1.064806944E1,-1.274074674E0,-2.060082406E-1,-6.826218218E-2
1.065778188E1,-1.397465825E0,-2.780882120E-1,-5.482354015E-2
1.066749501E1,-1.501309872E0,-3.318427801E-1,-2.916795574E-2
1.067720735E1,-1.608819008E0,-3.623851240E-1,5.039489828E-3
1.068691892E1,-1.715106368E0,-3.819322586E-1,2.092151903E-2
1.069663126E1,-1.829945683E0,-3.452814221E-1,1.603474095E-2
1.070634449E1,-1.977770686E0,-2.316638231E-1,2.458660305E-2
1.071605678E1,-2.148808002E0,-1.143811494E-1,6.734590977E-2
1.072576834E1,-2.295411348E0,-2.153236605E-2,1.223221645E-1
1.073548079E1,-2.390703440E0,7.375980914E-2,1.382041872E-1
1.074519392E1,-2.428575993E0,1.495048702E-1,9.177979827E-2
1.075490626E1,-2.383373260E0,1.446180940E-1,8.704573847E-3
1.076461782E1,-2.292967796E0,1.385096163E-1,-4.016320780E-2
1.077433027E1,-2.226996422E0,2.289150059E-1,-2.672456764E-2
1.078404339E1,-2.212336063E0,4.219427407E-1,8.704573847E-3
1.079375574E1,-2.224553108E0,5.832064152E-1,4.779879749E-2
1.080346730E1,-2.235548258E0,6.113054156E-1,9.910997003E-2
1.081317964E1,-2.244100094E0,5.037962794E-1,1.699682474E-1
1.082289287E1,-2.266090631E0,2.728960216E-1,2.579302490E-1
1.083260516E1,-2.270977497E0,4.443913698E-2,3.605526090E-1
1.084231673E1,-2.220887899E0,4.123218823E-3,4.643966258E-1
1.085202918E1,-2.128039122E0,1.910424829E-1,5.890094638E-1
1.086174230E1,-2.013199806E0,5.844281316E-1,7.455390692E-1
1.087145464E1,-1.937454820E0,1.109756708E0,8.774821162E-1
1.088116621E1,-1.942341566E0,1.514137626E0,9.263498783E-1
1.089087855E1,-1.994874477E0,1.690061688E0,9.080244303E-1
1.090059178E1,-2.019308329E0,1.663184404E0,8.151756525E-1
1.091030412E1,-1.957001925E0,1.528797984E0,6.820109487E-1
1.092001569E1,-1.817728758E0,1.635085344E0,5.743491650E-1
1.092972803E1,-1.711441278E0,1.879424334E0,5.144860744E-1
1.093944126E1,-1.707776189E0,1.897749662E0,5.364766121E-1
1.094915355E1,-1.772526026E0,1.762141585E0,6.317687631E-1
1.095886511E1,-1.827502251E0,1.636307120E0,7.345438004E-1
1.096857756E1,-1.834832430E0,1.588660955E0,7.565343380E-1
1.097829074E1,-1.811620235E0,1.450609565E0,6.171084642E-1
1.098800303E1,-1.818950415E0,1.074327588E0,3.336753249E-1
1.099771459E1,-1.887365341E0,6.809419990E-1,2.336490713E-2
1.100742704E1,-1.982657433E0,4.842491746E-1,-1.855448484E-1
1.101714016E1,-2.020529985E0,4.891359508E-1,-2.625116110E-1
1.102685251E1,-1.954558492E0,6.100836992E-1,-2.197522968E-1
1.103656407E1,-1.798181653E0,7.261446714E-1,-7.192726433E-2
1.104627642E1,-1.630809426E0,7.847860456E-1,1.088835225E-1
1.105598964E1,-1.570946455E0,8.348754644E-1,2.261662036E-1
1.106570194E1,-1.623479247E0,9.179506898E-1,2.371614426E-1
1.107541355E1,-1.693115830E0,9.240592122E-1,2.115058601E-1
1.108512589E1,-1.691894174E0,7.970029712E-1,1.895153672E-1
1.109483912E1,-1.651578307E0,5.147915483E-1,1.540862173E-1
1.110455142E1,-1.678455591E0,1.592784226E-1,7.223268598E-2
1.111426298E1,-1.801846743E0,-1.681357026E-1,1.236965694E-2
1.112397543E1,-1.851936221E0,-3.159607351E-1,-7.177455351E-3
1.113368855E1,-1.816506982E0,-3.000787199E-1,2.336490713E-2
1.114340089E1,-1.751757264E0,-2.829749882E-1,8.811471611E-2
1.115311246E1,-1.737096906E0,-3.025220931E-1,1.308740228E-1
1.116282490E1,-1.801846743E0,-2.841966748E-1,1.443126649E-1
1.117253803E1,-1.870261550E0,-3.049654961E-1,2.017323077E-1
1.118225037E1,-1.845827699E0,-3.147390485E-1,2.628170252E-1
1.119196194E1,-1.724879980E0,-1.876828223E-1,2.774773538E-1
1.120167428E1,-1.621035933E0,-4.718795046E-2,2.567085624E-1
1.121138751E1,-1.586828470E0,5.543438718E-2,2.127275616E-1
1.122109980E1,-1.606375575E0,1.756185852E-2,2.115058601E-1
1.123081142E1,-1.569724798E0,-2.275406010E-2,1.980672181E-1
1.124052376E1,-1.550177574E0,-8.994726092E-2,1.699682474E-1
1.125023699E1,-1.545290828E0,-2.231119573E-1,1.296523362E-1
1.125994928E1,-1.581941724E0,-4.320217371E-1,1.137702987E-1
1.126966089E1,-1.652799964E0,-6.042806506E-1,1.088835225E-1
1.127937324E1,-1.661351800E0,-6.702521443E-1,1.076618284E-1
1.128908647E1,-1.601488829E0,-6.861341596E-1,1.186570823E-1
1.129879876E1,-1.528187156E0,-7.178982496E-1,1.247655526E-1
1.130851032E1,-1.457328796E0,-6.739172339E-1,1.284306347E-1
1.131822277E1,-1.343711257E0,-5.456393361E-1,1.284306347E-1
1.132793595E1,-1.214211583E0,-4.063661397E-1,1.455343664E-1
1.133764824E1,-1.101815701E0,-2.426590770E-1,1.504211426E-1
1.134735980E1,-9.796462655E-1,-7.650861889E-2,1.479777545E-1
1.135707225E1,-8.586985469E-1,4.077405483E-2,1.479777545E-1
1.136678537E1,-7.780666947E-1,9.086353332E-2,1.443126649E-1
1.137649772E1,-6.864396334E-1,8.842013776E-2,1.345391124E-1
1.138620928E1,-5.984776020E-1,6.765133142E-2,1.101052165E-1
1.139592173E1,-5.044071078E-1,6.276455522E-2,6.734590977E-2
1.140563485E1,-4.127800465E-1,6.887302548E-2,2.702999115E-2
1.141534720E1,-3.248180151E-1,8.964183182E-2,1.527118147E-4
1.142505876E1,-2.270824611E-1,1.262926757E-1,-2.061609551E-2
1.143477121E1,-1.415638477E-1,1.592784226E-1,-3.527642787E-2
1.144448433E1,-6.704048812E-2,1.947075576E-1,-4.627167806E-2
1.145419668E1,1.969982497E-2,2.228065431E-1,-5.726693198E-2
1.146390824E1,1.101052165E-1,2.374668717E-1,-6.093201414E-2
1.147362058E1,2.151709497E-1,2.374668717E-1,-7.559234649E-2
1.148333381E1,3.043546379E-1,2.447970361E-1,-1.012479365E-1
1.149304616E1,4.057552814E-1,2.423536479E-1,-1.305686086E-1
1.150275772E1,5.132644176E-1,2.582356930E-1,-1.586675793E-1
1.151247006E1,6.256603003E-1,2.790044844E-1,-1.769929975E-1
1.152218329E1,7.466080785E-1,3.119902313E-1,-1.831014603E-1
1.153189563E1,8.541171551E-1,3.461976945E-1,-1.708845198E-1
1.154160720E1,9.665130973E-1,3.657447994E-1,-1.440072358E-1
1.155131954E1,1.082574010E0,3.938437700E-1,-1.110214889E-1
1.156103277E1,1.197413325E0,3.901786804E-1,-1.024696305E-1
1.157074506E1,1.276823521E0,3.742966652E-1,-9.513945878E-2
1.158045668E1,1.369672298E0,3.950654566E-1,-7.681404054E-2
1.159016902E1,1.482068181E0,4.414898455E-1,-6.948387623E-2
1.159988225E1,1.563921690E0,4.842491746E-1,-6.581879407E-2
1.160959454E1,1.622563004E0,4.732539058E-1,-5.360184610E-2
1.161930616E1,1.668987393E0,4.268295169E-1,-4.504998401E-2
1.162901850E1,1.726407051E0,3.865135908E-1,-4.504998401E-2
1.163873173E1,1.772984147E0,3.620797098E-1,-4.504998401E-2
1.164844402E1,1.788866162E0,3.315373361E-1,-4.260659590E-2
1.165815563E1,1.792531252E0,2.179197669E-1,-4.627167806E-2
1.166786798E1,1.794974685E0,7.009471953E-2,-6.337540597E-2
1.167758121E1,1.809635043E0,-5.329642445E-2,-9.391776472E-2
1.168729350E1,1.824295282E0,-1.791309565E-1,-1.415638477E-1
1.169700506E1,1.852394342E0,-2.841966748E-1,-2.173089087E-1
1.170671751E1,1.900040388E0,-3.440597057E-1,-2.771719396E-1
1.171643069E1,1.978228807E0,-3.025220931E-1,-2.881672084E-1
1.172614298E1,2.046643734E0,-2.096733153E-1,-2.625116110E-1
1.173585454E1,2.074742794E0,-2.157817930E-1,-2.050919682E-1
1.174556699E1,2.052752256E0,-3.135173619E-1,-1.476723254E-1
1.175528016E1,2.024653196E0,-4.503471553E-1,-9.269607067E-2
1.176499246E1,2.042978764E0,-5.346440673E-1,-3.161134571E-2
1.177470402E1,2.104063272E0,-5.676298141E-1,3.680354729E-2
1.178441647E1,2.192025423E0,-5.969504714E-1,1.052184403E-1
1.179412964E1,2.270213842E0,-6.006155610E-1,1.406475753E-1
1.180384194E1,2.326411724E0,-6.140542030E-1,7.834116369E-2
1.181355350E1,2.311751366E0,-6.788040400E-1,-7.192726433E-2
1.182326595E1,2.172478199E0,-8.608365059E-1,-1.843231618E-1
1.183297907E1,2.019766569E0,-1.061194420E0,-2.197522968E-1
1.184269142E1,1.966011882E0,-1.112505555E0,-2.038702667E-1
1.185240298E1,1.980672240E0,-1.079519868E0,-1.354553849E-1
1.186211543E1,2.038091898E0,-1.007439852E0,-1.939439960E-2
1.187182855E1,2.124832153E0,-9.365815520E-1,9.666658193E-2
1.188154089E1,2.205464125E0,-8.681666851E-1,1.638597846E-1
1.189125246E1,2.286095858E0,-7.936432958E-1,1.809635013E-1
1.190096490E1,2.347180605E0,-6.763606071E-1,1.369825006E-1
1.191067803E1,2.359397650E0,-6.164975762E-1,1.603474095E-2
1.192039037E1,2.317859888E0,-7.191199064E-1,-1.293469071E-1
1.193010194E1,2.218902588E0,-8.901571631E-1,-2.392994165E-1
1.193981438E1,2.143157721E0,-9.549070001E-1,-3.382566571E-1
1.194952751E1,2.135827541E0,-8.889354467E-1,-3.993414044E-1
1.195923985E1,2.173699856E0,-7.887565494E-1,-4.030064642E-1
1.196895142E1,2.203020573E0,-7.154548764E-1,-3.394783735E-1
1.197866386E1,2.192025423E0,-7.398887277E-1,-2.075353563E-1
1.198837699E1,2.155374527E0,-7.435538173E-1,-7.192726433E-2
1.199808933E1,2.135827541E0,-6.617003083E-1,2.702999115E-2
1.200780089E1,2.154152870E0,-6.384881139E-1,7.467607409E-2
1.201751324E1,2.209129095E0,-6.543701291E-1,4.535540938E-2
1.202722647E1,2.315416574E0,-6.470399499E-1,-4.993676394E-2
1.203693881E1,2.415595531E0,-6.238277555E-1,-1.769929975E-1
1.204665037E1,2.393604994E0,-6.201626658E-1,-3.150444627E-1
1.205636282E1,2.248223305E0,-6.274928451E-1,-4.457657933E-1
1.206607595E1,2.084516287E0,-6.824691296E-1,-4.616478086E-1
1.207578829E1,1.968455315E0,-8.021951914E-1,-3.749074936E-1
1.208549985E1,1.914700747E0,-8.095253110E-1,-3.162661791E-1
1.209521230E1,1.957460046E0,-6.421532035E-1,-3.162661791E-1
1.210492543E1,2.057638884E0,-4.320217371E-1,-3.358132839E-1
1.211463777E1,2.134605646E0,-2.915268540E-1,-3.394783735E-1
1.212434933E1,2.119945526E0,-2.133384049E-1,-3.235963285E-1
1.213406168E1,2.007549524E0,-1.852394342E-1,-2.942756712E-1
1.214377490E1,1.823073626E0,-2.622061968E-1,-2.661767006E-1
1.215348725E1,1.632336617E0,-4.124746025E-1,-2.686200738E-1
1.216319881E1,1.523605824E0,-5.712949038E-1,-2.771719396E-1
1.217291116E1,1.512610555E0,-6.543701291E-1,-2.857238054E-1
1.218262438E1,1.544374585E0,-6.409314871E-1,-2.576248348E-1
1.219233673E1,1.570030212E0,-5.541911721E-1,-1.733279079E-1
1.220204829E1,1.563921690E0,-4.320217371E-1,-7.192726433E-2
1.221176063E1,1.508945465E0,-3.184041381E-1,6.261184346E-3
1.222147386E1,1.373337388E0,-2.304421216E-1,7.223268598E-2
1.223118621E1,1.166870952E0,-1.779092699E-1,1.430909634E-1
1.224089777E1,9.213103652E-1,-1.546970755E-1,2.066190839E-1
1.225061011E1,6.794148684E-1,-1.608055383E-1,2.530434728E-1
1.226032334E1,4.619532526E-1,-2.133384049E-1,2.677038014E-1
1.227003563E1,3.263451457E-1,-2.903051674E-1,2.371614426E-1
1.227974725E1,3.336753249E-1,-3.623851240E-1,1.443126649E-1
1.228945959E1,4.607315361E-1,-4.136963189E-1,2.825168520E-2
1.229917282E1,6.122216582E-1,-3.892624080E-1,-6.581879407E-2
1.230888511E1,6.989619732E-1,-2.768665254E-1,-1.097997949E-1
1.231859673E1,6.537593007E-1,-1.449235082E-1,-1.354553849E-1
1.232830907E1,4.631749392E-1,-6.184828654E-2,-1.146865711E-1
1.233802230E1,1.992889196E-1,-4.352286831E-2,-7.681404054E-2
1.234773459E1,-7.803573459E-2,-5.696150661E-2,-3.405473381E-2
1.235744621E1,-3.138227761E-1,-1.033858955E-1,-2.290677279E-3
1.236715855E1,-4.714213610E-1,-1.791309565E-1,2.702999115E-2
1.237687178E1,-5.239542127E-1,-2.658712566E-1,4.046862945E-2
1.238658407E1,-4.726430774E-1,-3.342861533E-1,5.146388337E-2
1.239629569E1,-3.626905680E-1,-3.049654961E-1,6.123743951E-2
1.240600803E1,-2.307475507E-1,-1.937913001E-1,5.879404768E-2
1.241572126E1,-1.146865711E-1,-7.040014863E-2,4.046862945E-2
1.242543360E1,-3.894151375E-2,4.932591692E-2,1.114796288E-2
1.243514517E1,6.261184346E-3,1.605001241E-1,-3.161134571E-2
1.244485751E1,3.436015919E-2,2.924431264E-1,-6.459710002E-2
1.245457074E1,5.268557742E-2,4.512633979E-1,-5.971032009E-2
1.246428308E1,5.757235363E-2,5.990884304E-1,-2.672456764E-2
1.247399464E1,4.169032723E-2,6.870504618E-1,1.359135192E-2
1.248370699E1,7.482878864E-3,6.797202826E-1,5.024218559E-2
1.249342022E1,-3.038965166E-2,5.942016840E-1,7.223268598E-2
1.250313256E1,-5.360184610E-2,4.756973088E-1,7.834116369E-2
1.251284412E1,-5.360184610E-2,3.437542915E-1,7.589777559E-2
1.252255657E1,-5.604523420E-2,2.191414535E-1,7.223268598E-2
1.253226970E1,-7.681404054E-2,1.458397806E-1,6.978929788E-2
1.254198204E1,-1.195733473E-1,1.275143623E-1,6.612421572E-2
1.255169360E1,-1.892099380E-1,1.348445266E-1,5.390727147E-2
1.256140605E1,-2.710634768E-1,1.372879148E-1,3.069507517E-2
1.257111918E1,-3.468085229E-1,1.433963925E-1,8.704573847E-3
1.258083152E1,-4.005630910E-1,1.617218107E-1,-9.620844387E-3
1.259054308E1,-4.249969721E-1,1.959292591E-1,-3.038965166E-2
1.260025553E1,-4.335488379E-1,2.069245130E-1,-3.894151375E-2
1.260996866E1,-4.421007037E-1,1.763821393E-1,-3.649812192E-2
1.261968100E1,-4.714213610E-1,1.201841980E-1,-3.161134571E-2
1.262939256E1,-5.410579443E-1,5.543438718E-2,-2.305948362E-2
1.263910501E1,-6.461237073E-1,1.679830020E-3,-7.177455351E-3
1.264881819E1,-7.780666947E-1,-1.786728203E-2,1.236965694E-2
1.265853048E1,-9.112313986E-1,-1.664558798E-2,2.336490713E-2
1.266824204E1,-1.054169655E0,4.581354442E-4,1.725643501E-2
1.267795449E1,-1.237423778E0,3.100049868E-2,2.092151903E-2
1.268766767E1,-1.415791273E0,4.077405483E-2,-4.734066315E-3
1.269737996E1,-1.557507753E0,3.710897267E-2,-6.093201414E-2
1.270709157E1,-1.674790502E0,8.964183182E-2,-1.171299592E-1
1.271680392E1,-1.749313831E0,1.641651988E-1,-1.708845198E-1
1.272651714E1,-1.790851474E0,1.922641695E-1,-1.928750277E-1
1.273622944E1,-1.843384266E0,1.934858710E-1,-1.659977436E-1
1.274594105E1,-1.916685939E0,1.507265568E-1,-1.085781008E-1
1.275565339E1,-1.982657433E0,2.122694254E-2,-4.382828996E-2
1.276536662E1,-2.020529985E0,-1.498102844E-1,1.603474095E-2
1.277507892E1,-2.052294016E0,-2.585411072E-1,6.612421572E-2
1.278479053E1,-2.102383614E0,-2.487675399E-1,1.382041872E-1
1.279450287E1,-2.179350376E0,-1.119377613E-1,2.628170252E-1
1.280421610E1,-2.284415960E0,1.116323397E-1,4.570664763E-1
1.281392845E1,-2.395590305E0,3.437542915E-1,6.685723066E-1
1.282364001E1,-2.451788187E0,5.306735635E-1,7.748597264E-1
1.283335246E1,-2.384594917E0,6.015318632E-1,6.978929639E-1
1.284306558E1,-2.251430273E0,5.942016840E-1,5.303681493E-1
1.285277793E1,-2.130482435E0,6.711684465E-1,4.020902216E-1
1.286248949E1,-2.030303478E0,8.825215697E-1,3.605526090E-1
1.287220194E1,-1.974105597E0,1.092653036E0,4.167505503E-1
1.288191511E1,-1.967997193E0,1.230704546E0,5.376983285E-1
1.289162741E1,-1.970440507E0,1.283237338E0,6.610894203E-1
1.290133902E1,-1.970440507E0,1.242921472E0,7.235485911E-1
1.291105136E1,-1.957001925E0,1.195275426E0,6.771242023E-1
1.292076459E1,-1.878813505E0,1.230704546E0,5.596888065E-1
1.293047688E1,-1.726101637E0,1.387081385E0,4.326325655E-1
1.294018850E1,-1.504974961E0,1.688839912E0,3.507790267E-1
1.294990084E1,-1.277739763E0,1.990598559E0,3.177932799E-1
1.295961407E1,-1.155570269E0,2.107881069E0,3.202366829E-1
1.296932642E1,-1.244753957E0,2.012588978E0,3.239017725E-1
1.297903798E1,-1.513526797E0,1.763363361E0,2.408265322E-1
1.298875032E1,-1.814063668E0,1.385859728E0,5.268557742E-2
1.299846355E1,-2.030303478E0,1.001025915E0,-1.427855492E-1
1.300817589E1,-2.082836390E0,6.613948941E-1,-2.783936262E-1
1.301788746E1,-2.003426313E0,3.889569938E-1,-3.284831047E-1
1.302759990E1,-1.873926640E0,2.863346636E-1,-2.967190444E-1
1.303731308E1,-1.805511832E0,3.290939629E-1,-1.782146841E-1
1.304702537E1,-1.818950415E0,4.060607255E-1,-3.038965166E-2
1.305673694E1,-1.880035162E0,4.402681589E-1,1.149920002E-1
1.306644938E1,-1.948450089E0,4.805840850E-1,2.151709497E-1
1.307616256E1,-1.944784999E0,4.720322192E-1,2.567085624E-1
1.308587485E1,-1.880035162E0,3.816268146E-1,2.554868758E-1
1.309558647E1,-1.805511832E0,3.107685447E-1,2.017323077E-1
1.310529881E1,-1.772526026E0,2.069245130E-1,1.174353883E-1
1.311501204E1,-1.826280594E0,1.299577504E-1,4.657710344E-2
1.312472438E1,-1.892252088E0,1.177408099E-1,1.969982497E-2
1.313443595E1,-1.903247356E0,1.580567211E-1,4.535540938E-2
1.314414829E1,-1.892252088E0,2.276933193E-1,1.284306347E-1
1.315386152E1,-1.891030431E0,1.898207814E-1,2.689255178E-1
1.316357386E1,-1.953336835E0,-7.162184268E-2,4.069769979E-1
1.317328543E1,-1.959445238E0,-2.499892414E-1,4.521796703E-1
1.318299787E1,-1.856822968E0,-1.962346882E-1,4.045335948E-1
1.319271105E1,-1.803068399E0,-6.673506647E-2,3.348970115E-1
1.320242334E1,-1.771304369E0,-6.872031838E-3,3.043546379E-1
1.321213496E1,-1.727323294E0,-6.795676053E-2,3.116848171E-1
1.322184730E1,-1.700446010E0,-1.094943732E-1,3.239017725E-1
1.323156053E1,-1.668681979E0,-1.351499557E-1,3.165715933E-1
1.324127282E1,-1.633252859E0,-1.742441803E-1,2.799207568E-1
1.325098444E1,-1.612484097E0,-1.693574041E-1,2.261662036E-1
1.326069678E1,-1.581941724E0,-1.718007922E-1,1.895153672E-1
1.327041001E1,-1.526965380E0,-2.377723008E-1,1.650814712E-1
1.328012235E1,-1.482984424E0,-2.463241518E-1,1.247655526E-1
1.328983392E1,-1.447555304E0,-2.279987335E-1,9.788827598E-2
1.329954636E1,-1.447555304E0,-2.206685692E-1,9.666658193E-2
1.330925949E1,-1.431673288E0,-2.292204350E-1,6.368082762E-2
1.331897183E1,-1.403574347E0,-3.184041381E-1,6.368082762E-2
1.332868339E1,-1.348598003E0,-2.903051674E-1,3.802524135E-2
1.333839584E1,-1.309503794E0,-2.939702570E-1,3.680354729E-2
1.334810902E1,-1.247197390E0,-2.719797492E-1,3.313846514E-2
1.335782131E1,-1.151905179E0,-1.852394342E-1,1.374406274E-3
1.336753293E1,-1.029735804E0,-7.650861889E-2,-5.360184610E-2
1.337724527E1,-9.442171454E-1,-4.718795046E-2,-6.826218218E-2
1.338695850E1,-8.452599049E-1,-2.397575416E-2,-6.459710002E-2
1.339667084E1,-7.328640223E-1,-2.031067200E-2,-5.604523420E-2
1.340638240E1,-6.546755433E-1,-7.635590737E-4,-6.459710002E-2
1.341609475E1,-5.813738704E-1,-1.420219894E-2,-8.780929446E-2
1.342580798E1,-5.251759291E-1,-4.107947648E-2,-1.049130186E-1
1.343552032E1,-4.873034060E-1,-6.673506647E-2,-1.159082651E-1
1.344523188E1,-4.311054647E-1,-9.116895497E-2,-1.256818175E-1
1.345494433E1,-3.590254784E-1,-7.773031294E-2,-1.232384369E-1
1.346465751E1,-2.759502530E-1,-3.252761811E-2,-1.305686086E-1
1.347436980E1,-1.794363856E-1,2.855710872E-2,-1.647760421E-1
1.348408142E1,-8.414421231E-2,4.932591692E-2,-2.173089087E-1
1.349379376E1,5.039489828E-3,3.710897267E-2,-2.661767006E-1
1.350350699E1,8.689302206E-2,1.679830020E-3,-3.003841341E-1
1.351321928E1,1.540862173E-1,-1.786728203E-2,-3.113794029E-1
1.352293089E1,2.420482337E-1,-8.093725890E-3,-3.174878657E-1
1.353264324E1,3.434488773E-1,3.833066672E-2,-3.248180151E-1
1.354235647E1,4.436278343E-1,1.165191159E-1,-3.358132839E-1
1.355206881E1,5.657972693E-1,1.861557066E-1,-3.480302393E-1
1.356178037E1,6.928535104E-1,2.472404242E-1,-3.590254784E-1
1.357149282E1,8.015843034E-1,3.034383655E-1,-3.492519259E-1
1.358120600E1,9.090934396E-1,3.193204105E-1,-3.211529553E-1
1.359091829E1,9.897252917E-1,2.875563502E-1,-2.881672084E-1
1.360062991E1,1.038593054E0,2.301367074E-1,-2.771719396E-1
1.361034225E1,1.100899458E0,1.617218107E-1,-2.942756712E-1
1.362005548E1,1.168092728E0,1.214058921E-1,-3.138227761E-1
1.362976777E1,1.247502804E0,1.079672500E-1,-3.248180151E-1
1.363947938E1,1.333021402E0,1.201841980E-1,-3.333698809E-1
1.364919183E1,1.429535270E0,1.617218107E-1,-3.248180151E-1
1.365890496E1,1.540709496E0,2.557922900E-1,-3.089359999E-1
1.366861730E1,1.633558273E0,3.865135908E-1,-2.893888950E-1
1.367832886E1,1.722741961E0,4.610369802E-1,-2.612899244E-1
1.368804131E1,1.783979416E0,4.708105326E-1,-2.331909388E-1
1.369775449E1,1.804748178E0,4.414898455E-1,-2.087570578E-1
1.370746678E1,1.842620730E0,3.571929336E-1,-2.002051920E-1
1.371717839E1,1.876828194E0,2.240282297E-1,-1.940967143E-1
1.372689074E1,1.892710209E0,1.006370857E-1,-1.867665499E-1
1.373660397E1,1.912257314E0,7.788302377E-3,-1.684411317E-1
1.374631631E1,1.948908210E0,-3.130592033E-2,-1.317902952E-1
1.375602787E1,1.957460046E0,-2.397575416E-2,-1.073564067E-1
1.376574032E1,1.939134598E0,-9.116895497E-2,-9.025268257E-2
1.377545345E1,1.901262045E0,-2.353289127E-1,-7.070557028E-2
1.378516579E1,1.869498014E0,-4.161396921E-1,-7.192726433E-2
1.379487735E1,1.846285820E0,-5.871769190E-1,-1.000262350E-1
1.380458980E1,1.799861431E0,-7.765395641E-1,-1.195733473E-1
1.381430298E1,1.772984147E0,-8.987090588E-1,-1.207950488E-1
1.382401527E1,1.809635043E0,-9.023740888E-1,-1.024696305E-1
1.383372688E1,1.893931985E0,-8.791618943E-1,-6.337540597E-2
1.384343923E1,1.957460046E0,-8.632798791E-1,-1.068982761E-3
1.385315246E1,1.981893897E0,-8.547280431E-1,9.666658193E-2
1.386286480E1,2.008771181E0,-8.706100583E-1,1.992889196E-1
1.387257636E1,2.099176645E0,-8.767185211E-1,2.750339806E-1
1.388228881E1,2.227454424E0,-8.559496999E-1,3.385621011E-1
1.389200199E1,2.315416574E0,-8.461761475E-1,4.106420577E-1
1.390171428E1,2.350845575E0,-8.425110579E-1,4.729484916E-1
1.391142589E1,2.385053158E0,-8.217422962E-1,5.034908652E-1
1.392113824E1,2.413151979E0,-7.911999226E-1,4.631749392E-1
1.393085147E1,2.408265352E0,-7.459971905E-1,3.483356535E-1
1.394056381E1,2.375279665E0,-7.007945180E-1,1.834068894E-1
1.395027537E1,2.332520247E0,-7.044596076E-1,-1.695101149E-2
1.395998782E1,2.305643082E0,-7.582141757E-1,-1.782146841E-1
1.396970095E1,2.309308052E0,-7.960866690E-1,-2.783936262E-1
1.397941329E1,2.334963560E0,-8.070819378E-1,-3.052709103E-1
1.398912490E1,2.367949486E0,-8.180772066E-1,-2.698417902E-1
1.399883725E1,2.399713516E0,-7.875348330E-1,-2.331909388E-1
1.400855048E1,2.402156830E0,-7.313368917E-1,-2.124221325E-1
1.401826282E1,2.358175755E0,-6.946860552E-1,-1.904316396E-1
1.402797438E1,2.294647694E0,-6.702521443E-1,-1.476723254E-1
1.403768683E1,2.251888514E0,-5.810684562E-1,-9.391776472E-2
1.404739996E1,2.214015961E0,-4.198047817E-1,-4.382828996E-2
1.405711230E1,2.155374527E0,-2.964136302E-1,-4.260659590E-2
1.406682386E1,2.085737944E0,-2.499892414E-1,-1.134648770E-1
1.407653631E1,2.060082436E0,-2.670929730E-1,-2.356343269E-1
1.408624949E1,2.093068123E0,-3.953709006E-1,-3.724641204E-1
1.409596178E1,2.159039736E0,-5.835118294E-1,-4.665345848E-1
1.410567339E1,2.225011110E0,-6.678087711E-1,-4.860817194E-1
1.411538574E1,2.270213842E0,-6.140542030E-1,-4.750864506E-1
1.412509897E1,2.257996798E0,-5.456393361E-1,-4.604261220E-1
1.413481131E1,2.150487661E0,-5.041016936E-1,-4.530959427E-1
1.414452287E1,1.966011882E0,-5.041016936E-1,-4.494308829E-1
1.415423532E1,1.711746693E0,-5.639647245E-1,-4.384356141E-1
1.416394850E1,1.447860718E0,-6.213843822E-1,-4.237752855E-1
1.417366079E1,1.262163162E0,-6.042806506E-1,-3.602471650E-1
1.418337240E1,1.163205862E0,-5.383091569E-1,-2.539597452E-1
1.419308475E1,1.136328578E0,-4.540122151E-1,-1.782146841E-1
1.420279798E1,1.164427638E0,-3.526115716E-1,-1.782146841E-1
1.421251032E1,1.199856758E0,-2.414373755E-1,-2.209739983E-1
1.422222188E1,1.202300072E0,-1.620272398E-1,-2.429644912E-1
1.423193433E1,1.128998399E0,-1.889045089E-1,-2.014268786E-1
1.424164746E1,1.003163934E0,-2.732014358E-1,-1.293469071E-1
1.425135980E1,8.907679915E-1,-3.208475113E-1,-4.016320780E-2
1.426107142E1,8.162446618E-1,-2.988570333E-1,4.291202128E-2
1.427078376E1,7.808154821E-1,-2.182251811E-1,9.910997003E-2
1.428049699E1,7.808154821E-1,-8.139539510E-2,8.689302206E-2
1.429020928E1,8.076927662E-1,6.887302548E-2,1.527118147E-4
1.429992089E1,8.480086923E-1,1.812689304E-1,-1.110214889E-1
1.430963324E1,9.029849768E-1,2.545706034E-1,-1.965401024E-1
1.431934647E1,9.396358132E-1,3.193204105E-1,-2.002051920E-1
1.432905881E1,8.932114244E-1,3.645231128E-1,-1.195733473E-1
1.433877037E1,7.527165413E-1,3.657447994E-1,-8.399149403E-3
1.434848282E1,5.706840754E-1,3.290939629E-1,1.027750522E-1
1.435819600E1,4.143071473E-1,2.460187376E-1,2.163926363E-1
1.436790829E1,3.361186981E-1,1.543916464E-1,2.640387416E-1
1.437761991E1,3.031329513E-1,5.543438718E-2,2.225011140E-1
1.438733225E1,2.835858464E-1,-6.917845458E-2,1.491994411E-1
1.439704548E1,2.738122940E-1,-1.412584335E-1,6.734590977E-2
1.440675782E1,2.591519356E-1,-1.351499557E-1,-3.512371797E-3
1.441646938E1,2.432699203E-1,-1.412584335E-1,-4.871506989E-2
1.442618183E1,2.163926363E-1,-2.170034945E-1,-6.581879407E-2
1.443589501E1,1.675248593E-1,-2.903051674E-1,-7.314895838E-2
1.444560730E1,9.666658193E-2,-3.428380191E-1,-7.314895838E-2
1.445531892E1,7.482878864E-3,-3.391729295E-1,-5.482354015E-2
1.446503126E1,-7.559234649E-2,-3.013004065E-1,-2.550287358E-2
1.447474449E1,-1.403421611E-1,-2.683146596E-1,2.596100792E-3
1.448445683E1,-1.733279079E-1,-2.194468826E-1,1.359135192E-2
1.449416839E1,-1.684411317E-1,-1.840177327E-1,3.817795310E-3
1.450388084E1,-1.220167428E-1,-1.339282542E-1,-2.428117767E-2
1.451359397E1,-5.482354015E-2,-3.374931216E-2,-4.993676394E-2
1.452330631E1,5.039489828E-3,1.030804738E-1,-5.848862603E-2
1.453301793E1,4.046862945E-2,2.423536479E-1,-4.504998401E-2
1.454273027E1,6.001574174E-2,3.547495604E-1,-1.572931744E-2
1.455244350E1,8.811471611E-2,4.121691883E-1,2.702999115E-2
1.456215584E1,1.162136942E-1,3.987305462E-1,6.368082762E-2
1.457186740E1,1.320957243E-1,3.633013964E-1,8.811471611E-2
1.458157985E1,1.357607991E-1,3.083251417E-1,1.027750522E-1
1.459129298E1,1.284306347E-1,2.240282297E-1,1.064401343E-1
1.460100532E1,1.039967462E-1,1.299577504E-1,1.003316641E-1
1.461071688E1,7.589777559E-2,7.864658535E-2,8.322793990E-2
1.462042933E1,5.512896553E-2,8.842013776E-2,5.512896553E-2
1.463014251E1,3.069507517E-2,1.177408099E-1,2.092151903E-2
1.463985480E1,-2.290677279E-3,1.336228400E-1,-1.084253844E-2
1.464956642E1,-5.482354015E-2,9.330692142E-2,-3.038965166E-2
1.465927876E1,-1.281252056E-1,-1.985253533E-3,-4.260659590E-2
1.466899199E1,-1.940967143E-1,-9.361234307E-2,-4.504998401E-2
1.467870433E1,-2.319692522E-1,-1.424801201E-1,-4.016320780E-2
1.468841589E1,-2.417428046E-1,-1.571404636E-1,-3.771981969E-2
1.469812834E1,-2.380777150E-1,-1.522536725E-1,-3.527642787E-2
1.470784152E1,-2.295258641E-1,-1.180462316E-1,-3.038965166E-2
1.471755381E1,-2.221956849E-1,-4.596625641E-2,-2.183778957E-2
1.472726543E1,-2.185306102E-1,3.588727489E-2,-3.512371797E-3
1.473697777E1,-2.368560284E-1,1.091889441E-1,1.725643501E-2
1.474669100E1,-2.796153426E-1,1.531699449E-1,3.680354729E-2
1.475640334E1,-3.394783735E-1,1.800472289E-1,5.024218559E-2
1.476611490E1,-4.066715539E-1,1.995943487E-1,5.512896553E-2
1.477582735E1,-4.701996744E-1,2.179197669E-1,5.390727147E-2
1.478554053E1,-5.349494815E-1,2.570139766E-1,6.123743951E-2
1.479525282E1,-6.033644080E-1,2.924431264E-1,7.834116369E-2
1.480496438E1,-7.010999322E-1,3.009949923E-1,1.015533581E-1
1.481467683E1,-8.354863524E-1,2.851129472E-1,1.211004704E-1
1.482439001E1,-1.004080176E0,2.728960216E-1,1.394258887E-1
1.483410230E1,-1.204438090E0,3.107685447E-1,1.491994411E-1
1.484381392E1,-1.393800735E0,3.633013964E-1,1.467560530E-1
1.485352626E1,-1.540404081E0,3.633013964E-1,1.247655526E-1
1.486323949E1,-1.662573576E0,2.814478874E-1,7.834116369E-2
1.487295183E1,-1.781077862E0,1.507265568E-1,2.947338112E-2
1.488266339E1,-1.886143565E0,2.733541466E-2,-1.206423342E-2
1.489237584E1,-1.961888671E0,-4.596625641E-2,-3.649812192E-2
1.490208902E1,-2.035190344E0,-7.162184268E-2,-2.794626169E-2
1.491180131E1,-2.140256166E0,1.679830020E-3,1.114796288E-2
1.492151293E1,-2.270977497E0,1.421747059E-1,4.535540938E-2
1.493122527E1,-2.434684515E0,1.934858710E-1,4.413371533E-2
1.494093850E1,-2.642372608E0,1.495048702E-1,-2.290677279E-3
1.495065084E1,-2.862277508E0,8.842013776E-2,-7.559234649E-2
1.496036241E1,-3.019876242E0,1.421747059E-1,-9.513945878E-2
1.497007485E1,-3.032093048E0,3.767400384E-1,-1.068982761E-3
1.497978798E1,-2.863499165E0,6.723901033E-1,2.041756958E-1
1.498950032E1,-2.605721712E0,9.081771374E-1,4.790569544E-1
1.499921194E1,-2.390703440E0,1.065775752E0,7.027797699E-1
1.500892428E1,-2.312515020E0,1.002247691E0,7.553126216E-1
1.501863751E1,-2.473778725E0,8.092198968E-1,6.635328531E-1
1.502834985E1,-2.699792147E0,6.332958937E-1,4.448495209E-1
1.503806142E1,-2.741329670E0,4.854708612E-1,1.247655526E-1
1.504777386E1,-2.531198263E0,4.793623984E-1,-1.427855492E-1
1.505748699E1,-2.225774765E0,6.381826997E-1,-1.977618039E-1
