"Time (s)","Gyroscope x (rad/s)","Gyroscope y (rad/s)","Gyroscope z (rad/s)"
1.627095900E-1,-9.529217333E-2,2.840439677E-1,5.407525301E-1
1.726174030E-1,-8.063183725E-2,7.024743408E-2,6.140542030E-1
1.825252680E-1,1.710372269E-1,3.011476994E-1,4.979932308E-1
1.924331320E-1,5.118899941E-1,7.434011102E-1,3.489464819E-1
2.023409450E-1,7.745543122E-1,1.133121610E0,2.512109280E-1
2.122487570E-1,8.747332692E-1,1.359135151E0,2.255553454E-1
2.221565700E-1,8.344173431E-1,1.438545346E0,2.414373755E-1
2.320643820E-1,7.244648337E-1,1.431215167E0,2.695363462E-1
2.419721950E-1,6.169557571E-1,1.395785928E0,2.939702570E-1
2.518800070E-1,5.693096519E-1,1.373795509E0,3.098522723E-1
2.617878200E-1,5.913001299E-1,1.353026628E0,3.257342875E-1
2.716956320E-1,6.731536984E-1,1.293163657E0,3.318427801E-1
2.816034450E-1,8.160919547E-1,1.183211088E0,3.025220931E-1
2.915112570E-1,9.907942414E-1,9.889616966E-1,2.304421216E-1
3.014190700E-1,1.158166409E0,7.091936469E-1,9.361234307E-2
3.113268820E-1,1.276670814E0,3.768927455E-1,-9.086353332E-2
3.212346950E-1,1.309656501E0,7.391251624E-2,-2.606790662E-1
3.311425070E-1,1.270562291E0,-1.777565479E-1,-3.596363366E-1
3.410503200E-1,1.178935170E0,-3.487937748E-1,-3.852919042E-1
3.509581320E-1,1.062874198E0,-4.025483429E-1,-3.510844707E-1
3.608659450E-1,9.455915689E-1,-3.414636254E-1,-2.814478874E-1
3.707737570E-1,8.527427912E-1,-1.875301152E-1,-2.105895877E-1
3.806815700E-1,8.038749695E-1,2.137965336E-2,-1.702736765E-1
3.905893820E-1,7.965448499E-1,2.608317733E-1,-1.543916464E-1
4.004971950E-1,8.160919547E-1,4.880669713E-1,-1.287360638E-1
4.104050070E-1,8.466343284E-1,6.529957056E-1,-1.055238619E-1
4.203128200E-1,8.783983588E-1,7.177455425E-1,-1.079672500E-1
4.302206320E-1,9.113841057E-1,7.018635273E-1,-1.311794519E-1
4.401284450E-1,9.455915689E-1,6.310052276E-1,-1.543916464E-1
4.500362570E-1,9.761339426E-1,5.381564498E-1,-1.666085869E-1
4.599440700E-1,1.005454540E0,4.501944184E-1,-1.702736765E-1
4.698518820E-1,1.029888511E0,3.720059693E-1,-1.653869003E-1
4.797596950E-1,1.049435616E0,3.243598938E-1,-1.556133330E-1
4.896675070E-1,1.054322362E0,3.194731176E-1,-1.495048702E-1
4.995753200E-1,1.032331824E0,3.610107303E-1,-1.556133330E-1
5.094249550E-1,9.480349422E-1,4.135435820E-1,-1.763821393E-1
5.191376110E-1,7.892146707E-1,4.355340898E-1,-1.983726472E-1
5.288511530E-1,5.803049207E-1,4.367557764E-1,-2.130329758E-1
5.385654240E-1,3.713951409E-1,4.587462842E-1,-2.142546773E-1
5.482788610E-1,2.235700935E-1,5.210527182E-1,-2.179197669E-1
5.579915700E-1,1.453816444E-1,5.919110179E-1,-2.179197669E-1
5.677050070E-1,1.197260618E-1,6.578825116E-1,-2.020377368E-1
5.774193820E-1,1.343863904E-1,7.238540053E-1,-1.617218107E-1
5.871328200E-1,1.759240031E-1,8.057075143E-1,-1.043021679E-1
5.968454760E-1,2.211267054E-1,8.936695457E-1,-4.443913698E-2
6.065590180E-1,2.431172132E-1,9.645278454E-1,3.206948051E-3
6.162733400E-1,2.101314515E-1,9.962918758E-1,4.718795046E-2
6.259867780E-1,1.111742035E-1,9.730796814E-1,8.139539510E-2
6.356994340E-1,-2.076880634E-2,8.961129189E-1,9.605573118E-2
6.454129760E-1,-1.575985998E-1,7.715001106E-1,8.994726092E-2
6.551272990E-1,-2.761029601E-1,6.248967648E-1,6.673506647E-2
6.648407360E-1,-3.457395434E-1,4.978405237E-1,4.352286831E-2
6.745534450E-1,-3.616215885E-1,4.257605374E-1,4.963133857E-2
6.842668820E-1,-3.603998721E-1,3.830012381E-1,9.116895497E-2
6.939812570E-1,-3.640649617E-1,3.182514310E-1,1.437018216E-1
7.036946950E-1,-3.787252903E-1,2.034121305E-1,1.742441803E-1
7.134074030E-1,-3.762819171E-1,7.513421029E-2,1.815743446E-1
7.231209450E-1,-3.151971996E-1,-6.719320081E-3,1.669140160E-1
7.328352150E-1,-1.710372269E-1,-1.160609815E-2,1.094943732E-1
7.425486530E-1,1.710372418E-2,1.771457121E-2,-1.511846948E-2
7.522613610E-1,1.844758689E-1,5.314370990E-2,-1.592784226E-1
7.619749030E-1,3.005368412E-1,1.240019947E-1,-2.790044844E-1
7.716891740E-1,3.860554695E-1,2.400629669E-1,-3.596363366E-1
7.814026110E-1,4.752391577E-1,3.805578351E-1,-4.097257853E-1
7.911153200E-1,5.644228458E-1,5.027272701E-1,-4.537068009E-1
8.008288610E-1,6.426113248E-1,5.613686442E-1,-4.915793240E-1
8.105431320E-1,7.000309825E-1,5.076140761E-1,-4.952444136E-1
8.202565700E-1,7.024743557E-1,2.583884001E-1,-4.292729199E-1
8.299692780E-1,5.570927262E-1,-2.779355049E-1,-2.741177082E-1
8.396828200E-1,1.747023165E-1,-1.101357579E0,-5.665608495E-2
8.493971430E-1,-4.202629030E-1,-1.962652206E0,1.485885978E-1
8.591105800E-1,-1.077534556E0,-2.531961918E0,2.927485406E-1
8.688232880E-1,-1.662726283E0,-2.694599867E0,3.794888556E-1
8.785368300E-1,-2.109866381E0,-2.527075052E0,4.344651103E-1
8.882511010E-1,-2.402004242E0,-2.176448822E0,4.735593498E-1
8.979645380E-1,-2.547385693E0,-1.746412277E0,5.004366040E-1
9.076772470E-1,-2.581593275E0,-1.315154195E0,5.187620521E-1
9.173907880E-1,-2.554715872E0,-9.352071285E-1,5.431959033E-1
9.271051110E-1,-2.489966154E0,-5.955760479E-1,5.896202922E-1
9.368185490E-1,-2.402004242E0,-2.840439677E-1,6.494833231E-1
9.465312570E-1,-2.306559324E0,-1.527118124E-2,7.081246972E-1
9.562447990E-1,-2.207602024E0,1.948602796E-1,7.557707429E-1
9.659590700E-1,-2.111088037E0,3.133646548E-1,7.850914598E-1
9.756726110E-1,-2.026791096E0,2.828222811E-1,7.924215794E-1
9.853852680E-1,-1.954711199E0,3.848337755E-2,7.765395641E-1
9.950988090E-1,-1.900956631E0,-4.453076422E-1,7.545490861E-1
1.004813080E0,-1.845980406E0,-1.046381354E0,7.484406233E-1
1.014526622E0,-1.751909971E0,-1.561936498E0,7.557707429E-1
1.024239278E0,-1.595533013E0,-1.961430550E0,7.728744745E-1
1.033952820E0,-1.314543247E0,-2.412235737E0,7.594358325E-1
1.043667090E0,-9.590302110E-1,-2.789892197E0,7.288935184E-1
1.053380632E0,-6.511631608E-1,-2.857085228E0,7.044596076E-1
1.063093288E0,-4.385883212E-1,-2.666501045E0,6.665870547E-1
1.072806830E0,-3.445178568E-1,-2.323052168E0,6.262711287E-1
1.082521101E0,-3.787252903E-1,-1.867360115E0,5.786250830E-1
1.092234643E0,-5.228852630E-1,-1.272394896E0,5.175403357E-1
1.101947299E0,-7.134696245E-1,-6.688777208E-1,4.320217371E-1
1.111660840E0,-8.649597168E-1,-1.948602796E-1,3.306210935E-1
1.121375163E0,-9.394831061E-1,1.362189353E-1,2.451024652E-1
1.131088601E0,-9.260444641E-1,3.255815804E-1,1.815743446E-1
1.140801309E0,-8.502993584E-1,4.147652984E-1,1.412584335E-1
1.150514851E0,-7.281299233E-1,4.245388508E-1,1.241547018E-1
1.160229174E0,-5.277720094E-1,2.376195788E-1,8.872556686E-2
1.169942611E0,-2.907632887E-1,-6.658235192E-2,1.175880991E-2
1.179655320E0,-5.253286287E-2,-3.561239541E-1,-6.642963737E-2
1.189368913E0,1.747023165E-1,-5.296045542E-1,-1.250709742E-1
1.199083184E0,3.823903799E-1,-5.491516590E-1,-1.617218107E-1
1.208796726E0,5.668662786E-1,-4.428642690E-1,-1.898207814E-1
1.218509382E0,7.256865501E-1,-2.571666837E-1,-2.142546773E-1
1.228222924E0,8.637380004E-1,-3.603998944E-2,-2.484621257E-1
1.237937247E0,9.785773158E-1,1.740914732E-1,-2.961082160E-1
1.247650684E0,1.057987452E0,3.329117596E-1,-3.596363366E-1
1.257363445E0,1.103190184E0,4.404208660E-1,-4.427115619E-1
1.267076986E0,1.131289124E0,5.283828974E-1,-5.489989519E-1
1.276791257E0,1.161831498E0,6.798729897E-1,-6.809419990E-1
1.286504799E0,1.218029380E0,9.865183234E-1,-8.092198968E-1
1.296217455E0,1.287665963E0,1.440988660E0,-8.641961813E-1
1.305931049E0,1.297439575E0,1.839261055E0,-7.591304183E-1
1.315645320E0,1.132510781E0,1.849034667E0,-5.233433843E-1
1.325358861E0,7.855495811E-1,1.315154195E0,-2.948864996E-1
1.335071518E0,3.652866483E-1,4.721849263E-1,-2.081461996E-1
1.344785059E0,3.665083647E-2,-1.740914732E-1,-2.557922900E-1
1.354499382E0,-1.050657257E-1,-2.889307439E-1,-3.315373361E-1
1.364212820E0,-7.696675509E-2,-4.459185153E-2,-3.755183518E-1
1.373925580E0,3.665083647E-2,7.879929990E-2,-3.804051280E-1
1.383639122E0,1.294996142E-1,-1.973036677E-1,-3.461976945E-1
1.393353445E0,1.441599578E-1,-7.495095730E-1,-2.741177082E-1
1.403066986E0,3.420744836E-2,-1.277281642E0,-1.482831687E-1
1.412779643E0,-1.600419879E-1,-1.588813663E0,4.352286831E-2
1.422493184E0,-2.528907657E-1,-1.560714722E0,2.341072112E-1
1.432207507E0,-1.747023165E-1,-1.214975238E0,3.122956753E-1
1.441921049E0,-7.574506104E-2,-6.493306160E-1,1.534753740E-1
1.451633705E0,-7.818844914E-2,5.680879578E-2,-1.226275861E-1
1.461347247E0,-1.514901221E-1,6.261184216E-1,-2.728960216E-1
1.471061570E0,-1.759240031E-1,8.252546191E-1,-2.606790662E-1
1.480775111E0,-1.111742035E-1,6.762079000E-1,-1.727170646E-1
1.490487768E0,4.031591862E-2,4.831801951E-1,-8.964183182E-2
1.500201361E0,2.809897363E-1,5.381564498E-1,-1.634016447E-2
1.509915632E0,5.424323678E-1,7.812736630E-1,3.741439432E-2
1.519629174E0,7.220214605E-1,1.019504070E0,6.673506647E-2
1.529341830E0,7.745543122E-1,1.199093223E0,1.046075895E-1
1.539055424E0,7.269082665E-1,1.318819284E0,1.681357026E-1
1.548769747E0,6.389462352E-1,1.389677525E0,2.438807636E-1
1.558483184E0,5.913001299E-1,1.415333152E0,3.403946459E-1
1.568195945E0,6.511631608E-1,1.390899181E0,4.405735731E-1
1.577909486E0,8.234221339E-1,1.288276911E0,5.077667832E-1
1.587623809E0,1.043327093E0,1.135565042E0,5.822901726E-1
1.597337351E0,1.220472813E0,9.327637553E-1,6.739172339E-1
1.607050007E0,1.301104665E0,6.163448691E-1,6.788040400E-1
1.616763601E0,1.307213187E0,1.973036677E-1,5.297572613E-1
1.626477924E0,1.316986680E0,-2.229592502E-1,2.964136302E-1
1.636191361E0,1.386623263E0,-5.125008225E-1,9.727742523E-2
1.645904122E0,1.486802220E0,-5.760289431E-1,-2.367033064E-2
1.655617663E0,1.561325550E0,-4.526378214E-1,-1.006370857E-1
1.665331986E0,1.541778445E0,-2.437280566E-1,-1.653869003E-1
1.675045528E0,1.397618532E0,-9.712471068E-2,-2.313583940E-1
1.684758184E0,1.155722976E0,-9.590301663E-2,-3.034383655E-1
1.694471778E0,8.735115528E-1,-2.290677279E-1,-3.718532622E-1
1.704186101E0,6.157340407E-1,-3.817795515E-1,-4.231644273E-1
1.713899538E0,4.288147688E-1,-4.538595080E-1,-4.451549351E-1
1.723612299E0,3.396310806E-1,-4.062134326E-1,-4.256078303E-1
1.733325840E0,3.408527672E-1,-2.327328026E-1,-3.535278440E-1
1.743040163E0,3.836120665E-1,-3.359659761E-2,-2.460187376E-1
1.752753705E0,4.300364852E-1,1.020114943E-1,-1.495048702E-1
1.762466361E0,4.666872919E-1,1.740914732E-1,-1.018587798E-1
1.772179955E0,4.886777997E-1,2.058555335E-1,-1.091889441E-1
1.781894278E0,5.057815313E-1,2.266243398E-1,-1.397313178E-1
1.791607820E0,5.265503526E-1,2.718270421E-1,-1.458397806E-1
1.801320476E0,5.583143830E-1,3.561239541E-1,-1.006370857E-1
1.811034070E0,6.084038615E-1,4.391991794E-1,-4.566083103E-2
1.820748393E0,6.743753552E-1,4.795151055E-1,-2.244863659E-2
1.830461830E0,7.379034758E-1,4.660764635E-1,-2.977880463E-2
1.840174590E0,7.660024762E-1,3.903313875E-1,-5.421269313E-2
1.849888184E0,7.403468490E-1,2.583884001E-1,-8.231166750E-2
1.859602455E0,6.694886088E-1,1.117850468E-1,-9.575030953E-2
1.869315997E0,5.888567567E-1,-1.282779220E-2,-9.452861547E-2
1.879028705E0,5.387672782E-1,-9.101624042E-2,-8.597674966E-2
1.888742247E0,5.375455618E-1,-1.032331884E-1,-8.475505561E-2
1.898456570E0,5.656445622E-1,-5.192201585E-2,-8.719844371E-2
1.908170111E0,5.839699507E-1,3.115320951E-2,-7.253811508E-2
1.917882768E0,5.741963983E-1,1.252236813E-1,-4.321744293E-2
1.927596361E0,5.241069198E-1,2.217375487E-1,-1.511846948E-2
1.937310684E0,4.581354558E-1,3.170297146E-1,-1.756185852E-2
1.947024226E0,3.848337829E-1,4.172086716E-1,-4.932591692E-2
1.956736882E0,2.919849753E-1,5.222744346E-1,-9.208522737E-2
1.966450476E0,1.747023165E-1,6.383354068E-1,-1.262926757E-1
1.976164799E0,4.153761268E-2,7.653915882E-1,-1.324011385E-1
1.985878236E0,-9.895725548E-2,8.753440976E-1,-1.055238619E-1
1.995590997E0,-2.223484069E-1,9.523108602E-1,-5.054761097E-2
2.005304590E0,-3.127537966E-1,9.962918758E-1,2.519745007E-2
2.015018913E0,-3.665083647E-1,1.017060637E0,1.278197914E-1
2.024732351E0,-3.860554695E-1,1.001178622E0,2.353289127E-1
2.034445111E0,-3.701734245E-1,9.352071285E-1,3.281776905E-1
2.044158705E0,-3.090887070E-1,8.240329623E-1,3.990359604E-1
2.053873028E0,-2.150182426E-1,6.627692580E-1,4.515688419E-1
2.063586465E0,-1.038440317E-1,4.599680007E-1,4.808894992E-1
2.073299226E0,2.932066843E-2,2.877090573E-1,4.845545888E-1
2.083012820E0,1.527118087E-1,1.716480851E-1,4.540122151E-1
2.092727090E0,2.651077211E-1,7.757759839E-2,3.904841244E-1
2.102440632E0,3.713951409E-1,-2.015795931E-2,2.890834510E-1
2.112153340E0,4.202629030E-1,-1.777565479E-1,1.033858955E-1
2.121866882E0,3.335226178E-1,-4.807367921E-1,-1.885990947E-1
2.131581205E0,1.123958975E-1,-9.119949341E-1,-4.756973088E-1
2.141294747E0,-1.869192570E-1,-1.283390045E0,-6.271874309E-1
2.151007455E0,-5.118899941E-1,-1.455649018E0,-6.174138784E-1
2.160720997E0,-8.502993584E-1,-1.445875406E0,-4.695888162E-1
2.170435320E0,-1.202147365E0,-1.302937150E0,-2.350234836E-1
2.180148861E0,-1.561325550E0,-1.094027400E0,-5.344913341E-3
2.189861570E0,-1.907065153E0,-9.181034565E-1,1.473668963E-1
2.199575111E0,-2.203936815E0,-8.167027831E-1,2.267770469E-1
2.209289434E0,-2.427659750E0,-7.690566778E-1,2.719797492E-1
2.219002976E0,-2.571819782E0,-7.470661998E-1,3.257342875E-1
2.228715684E0,-2.639012814E0,-7.006418109E-1,4.161396921E-1
2.238429226E0,-2.631682634E0,-6.065713167E-1,5.480827093E-1
2.248143549E0,-2.555937529E0,-4.697415531E-1,7.191199064E-1
2.257857090E0,-2.436211586E0,-3.048127890E-1,9.158127308E-1
2.267569747E0,-2.310224295E0,-1.166718230E-1,1.123500824E0
2.277283340E0,-2.190498352E0,7.391251624E-2,1.333632231E0
2.286997663E0,-2.075659037E0,2.351761907E-1,1.536433578E0
2.296711205E0,-1.965706468E0,3.206948042E-1,1.714800954E0
2.306423861E0,-1.877744436E0,2.767138183E-1,1.845522285E0
2.316137455E0,-1.820324779E0,6.169557199E-2,1.918823957E0
2.325851778E0,-1.772678733E0,-3.231382072E-1,1.949366331E0
2.335565320E0,-1.712815762E0,-8.350282311E-1,1.949366331E0
2.345277976E0,-1.632183909E0,-1.411668062E0,1.943257809E0
2.354991570E0,-1.517344594E0,-1.998081326E0,1.909050345E0
2.364705893E0,-1.359745979E0,-2.476985693E0,1.818645000E0
2.374419434E0,-1.188708782E0,-2.734915972E0,1.681815267E0
2.384132090E0,-1.027445078E0,-2.695821762E0,1.483900666E0
2.393845684E0,-9.040539265E-1,-2.228981733E0,1.166260123E0
2.403560007E0,-8.209787011E-1,-1.400672793E0,7.765395641E-1
2.413273549E0,-7.305732965E-1,-4.098785222E-1,3.941491842E-1
2.422986205E0,-6.242858768E-1,5.100574493E-1,6.795676053E-2
2.432699799E0,-4.996730685E-1,1.079367161E0,-1.556133330E-1
2.442414122E0,-3.494046330E-1,1.158777237E0,-2.814478874E-1
2.452127663E0,-1.832541823E-1,8.765658140E-1,-3.156553209E-1
2.461840320E0,-2.687728032E-2,4.184303582E-1,-2.521272004E-1
2.471553913E0,7.696675509E-2,-7.879929990E-2,-1.238492802E-1
2.481268236E0,1.123958975E-1,-4.978405237E-1,2.275406010E-2
2.490981674E0,1.075091213E-1,-7.458444834E-1,1.388150454E-1
2.500694434E0,1.136175916E-1,-8.032641411E-1,2.218902707E-1
2.510408028E0,1.747023165E-1,-7.091936469E-1,2.903051674E-1
2.520122351E0,3.005368412E-1,-5.320479870E-1,3.477247953E-1
2.529835788E0,4.764608741E-1,-3.414636254E-1,3.929274976E-1
2.539548549E0,6.939224601E-1,-1.692046970E-1,4.234698713E-1
2.549262143E0,9.504783154E-1,-1.771457121E-2,4.442386627E-1
2.558976413E0,1.241241574E0,1.166718230E-1,4.466820657E-1
2.568689955E0,1.543000221E0,2.400629669E-1,4.295783341E-1
2.578402663E0,1.817881465E0,3.573456407E-1,4.014793634E-1
2.588116257E0,2.010909081E0,4.575245976E-1,3.746020794E-1
2.597830528E0,2.102536201E0,5.515950918E-1,3.440597057E-1
2.607544070E0,2.104979753E0,6.615476012E-1,2.890834510E-1
2.617256778E0,2.026791096E0,8.228112459E-1,2.060082406E-1
2.626970320E0,1.855754018E0,1.046381354E0,1.314848661E-1
2.636684643E0,1.555217147E0,1.285833478E0,9.727742523E-2
2.646398184E0,1.106855273E0,1.493521571E0,8.628217876E-2
2.656110840E0,5.864133835E-1,1.618134379E0,4.352286831E-2
2.665824434E0,1.087308154E-1,1.503295064E0,-4.321744293E-2
2.675538757E0,-2.125748396E-1,1.136786699E0,-1.433963925E-1
2.685252299E0,-3.396310806E-1,6.725428104E-1,-2.240282297E-1
2.694964955E0,-4.165978432E-1,7.635590434E-2,-2.655658424E-1
2.704678549E0,-5.399889946E-1,-6.261184216E-1,-2.631224692E-1
2.714392872E0,-6.670452356E-1,-1.251626015E0,-2.447970361E-1
2.724106309E0,-7.391251922E-1,-1.607139111E0,-2.191414535E-1
2.733819070E0,-7.635591030E-1,-1.564379811E0,-1.470614821E-1
2.743532663E0,-7.256865501E-1,-1.227192163E0,-1.389677543E-2
2.753246986E0,-5.558710098E-1,-7.800519466E-1,7.162184268E-2
2.762960424E0,-2.846548259E-1,-3.512371778E-1,6.872031838E-3
2.772673184E0,-4.031591862E-2,1.404948719E-2,-1.983726472E-1
2.782386778E0,1.038440317E-1,2.816005945E-1,-3.865135908E-1
2.792101049E0,1.722589284E-1,5.112791657E-1,-4.109475017E-1
2.801814590E0,1.954711229E-1,7.018635273E-1,-1.971509457E-1
2.811527299E0,1.441599578E-1,6.456655264E-1,1.241547018E-1
2.821240840E0,1.466033459E-1,3.671191931E-1,2.707580328E-1
2.830955163E0,3.640649617E-1,3.549022675E-1,1.803526580E-1
2.840668705E0,7.183563709E-1,7.128587365E-1,7.635590737E-4
2.850381361E0,1.007897973E0,1.070815206E0,-1.226275861E-1
2.860094955E0,1.147171140E0,1.328592777E0,-1.214058921E-1
2.869809278E0,1.156944752E0,1.588813663E0,-3.222219273E-2
2.879522820E0,1.097081661E0,1.896680713E0,1.082726792E-1
2.889235476E0,1.022558331E0,2.148349762E0,2.512109280E-1
2.898949070E0,9.871291518E-1,2.244863749E0,3.843756318E-1
2.908663393E0,1.011563063E0,2.138576269E0,5.248705149E-1
2.918376830E0,1.079977989E0,1.846591234E0,6.751389503E-1
2.928089590E0,1.169161677E0,1.429993391E0,8.107470274E-1
2.937803184E0,1.258345366E0,9.596410394E-1,8.803836107E-1
2.947517455E0,1.335312128E0,5.198310018E-1,8.535063267E-1
2.957230997E0,1.413500547E0,1.398840249E-1,7.411104441E-1
2.966943653E0,1.513679504E0,-2.046338320E-1,5.712949038E-1
2.976657247E0,1.627297044E0,-5.515950918E-1,3.978142738E-1
2.986371570E0,1.751909971E0,-8.509102464E-1,2.463241518E-1
2.996085111E0,1.836206913E0,-9.987352490E-1,1.168245375E-1
3.005797768E0,1.804442763E0,-8.753440976E-1,-1.634016447E-2
3.015511361E0,1.622410297E0,-4.379774928E-1,-1.543916464E-1
3.025225684E0,1.325538516E0,2.046338320E-1,-2.790044844E-1
3.034939122E0,9.724688530E-1,8.020424247E-1,-3.718532622E-1
3.044651882E0,6.193991303E-1,1.108687758E0,-4.329380095E-1
3.054365424E0,3.115321100E-1,1.095249176E0,-4.500417113E-1
3.064079747E0,6.841489673E-2,8.912261724E-1,-4.011739492E-1
3.073793288E0,-8.429691941E-2,6.151232123E-1,-2.973299026E-1
3.083505945E0,-1.356080920E-1,3.231382072E-1,-1.861557066E-1
3.093219538E0,-1.014006436E-1,4.581354558E-2,-1.116323397E-1
3.102933861E0,-2.565558441E-2,-1.655396074E-1,-8.719844371E-2
3.112647403E0,5.253286287E-2,-2.644968629E-1,-8.108997345E-2
3.122360059E0,1.172826737E-1,-2.535016239E-1,-7.009471953E-2
3.132073653E0,1.747023165E-1,-1.545443535E-1,-4.566083103E-2
3.141787976E0,2.553341687E-1,9.162709117E-3,-2.122694254E-2
3.151501413E0,3.750602305E-1,2.058555335E-1,-2.367033064E-2
3.161214174E0,5.241069198E-1,4.086568058E-1,-4.566083103E-2
3.170927715E0,6.719319820E-1,6.029062271E-1,-7.620319724E-2
3.180642038E0,7.892146707E-1,7.751652002E-1,-1.043021679E-1
3.190355580E0,8.796200752E-1,9.107732773E-1,-1.275143623E-1
3.200068236E0,9.565867782E-1,9.901834130E-1,-1.556133330E-1
3.209781830E0,1.032331824E0,1.014617324E0,-1.983726472E-1
3.219496153E0,1.112963676E0,9.950701594E-1,-2.521272004E-1
3.229209695E0,1.192373872E0,9.559759498E-1,-2.973299026E-1
3.238922351E0,1.242463350E0,9.266552925E-1,-3.168770075E-1
3.248635945E0,1.221694469E0,9.242119193E-1,-3.046600819E-1
3.258350268E0,1.108076930E0,9.413156509E-1,-2.606790662E-1
3.268063705E0,9.236010313E-1,9.645278454E-1,-1.885990947E-1
3.277776465E0,6.988092661E-1,9.779664874E-1,-9.208522737E-2
3.287490007E0,4.605788291E-1,9.755230546E-1,1.786728203E-2
3.297204330E0,2.186833173E-1,9.596410394E-1,1.278197914E-1
3.306917872E0,-1.954711229E-2,9.303203821E-1,2.243336588E-1
3.316630528E0,-2.382304370E-1,8.729007244E-1,2.903051674E-1
3.326344122E0,-4.117110670E-1,7.666133046E-1,3.000787199E-1
3.336058445E0,-5.302154422E-1,6.175665855E-1,2.756448388E-1
3.345771986E0,-6.010736823E-1,4.575245976E-1,2.622061968E-1
3.355484643E0,-6.499415040E-1,3.109212518E-1,2.658712566E-1
3.365198236E0,-6.865923405E-1,1.728697717E-1,2.780882120E-1
3.374912507E0,-6.829272509E-1,4.092676565E-2,2.780882120E-1
3.384626049E0,-6.035171151E-1,-8.124268800E-2,2.267770469E-1
3.394338757E0,-4.569137394E-1,-1.643179059E-1,8.994726092E-2
3.404052299E0,-2.846548259E-1,-1.423274130E-1,-8.475505561E-2
3.413766622E0,-1.099525094E-1,4.275931045E-3,-2.765611112E-1
3.423480163E0,7.452336699E-2,2.449497581E-1,-4.732539058E-1
3.433192820E0,2.736595869E-1,5.271611810E-1,-6.320741773E-1
3.442906413E0,4.703523815E-1,7.995990515E-1,-7.114843726E-1
3.452620736E0,6.145123243E-1,1.030499339E0,-7.127060294E-1
3.462334278E0,6.597150564E-1,1.181989431E0,-6.809419990E-1
3.472046934E0,6.340594292E-1,1.200314879E0,-6.516213417E-1
3.481760528E0,6.206207871E-1,9.914051294E-1,-6.210789680E-1
3.491474851E0,6.096255779E-1,3.915531039E-1,-5.587725043E-1
3.501188288E0,3.713951409E-1,-4.734066129E-1,-3.791834414E-1
3.510901049E0,-2.528907657E-1,-1.197871447E0,-8.231166750E-2
3.520614590E0,-1.169161677E0,-1.354248405E0,2.646495700E-1
3.530328913E0,-2.095206022E0,-8.777875304E-1,5.945070982E-1
3.540042455E0,-2.779507637E0,-1.527118124E-2,8.535063267E-1
3.549755111E0,-3.150902987E0,9.510892034E-1,1.020878434E0
3.559468705E0,-3.284067631E0,1.814827204E0,1.090515018E0
3.569183028E0,-3.279180765E0,2.457438469E0,1.067302823E0
3.578896570E0,-3.191218853E0,2.880297422E0,9.866710305E-1
3.588609226E0,-3.045837164E0,3.102645874E0,8.681666851E-1
3.598322820E0,-2.851587772E0,3.069660187E0,7.288935184E-1
3.608037143E0,-2.590145111E0,2.710329294E0,6.311579347E-1
3.617750580E0,-2.261356592E0,2.067718029E0,6.262711287E-1
3.627463340E0,-1.888739705E0,1.306602240E0,6.678087711E-1
3.637176882E0,-1.508792758E0,6.310052276E-1,7.130114436E-1
3.646891205E0,-1.185043693E0,2.889307439E-1,7.631009221E-1
3.656604747E0,-9.150491953E-1,1.044548824E-1,7.875348330E-1
3.666317403E0,-6.719319820E-1,-1.093416587E-1,8.192988634E-1
3.676030997E0,-4.984513521E-1,-4.416425824E-1,8.510629535E-1
3.685745320E0,-5.241069198E-1,-8.582404256E-1,8.742751479E-1
3.695458861E0,-7.574505806E-1,-1.156333804E0,8.816053271E-1
3.705171518E0,-1.055544019E0,-1.155112147E0,8.364025950E-1
3.714885111E0,-1.275449038E0,-8.020424247E-1,7.435538173E-1
3.724599434E0,-1.342642307E0,-2.266243398E-1,6.213843822E-1
3.734312872E0,-1.271783948E0,3.610107303E-1,4.784461260E-1
3.744025632E0,-1.106855273E0,7.812736630E-1,3.330644667E-1
3.753739174E0,-8.906152844E-1,8.533536196E-1,2.108950168E-1
3.763453497E0,-6.878139973E-1,6.725428104E-1,1.241547018E-1
3.773167038E0,-5.289937258E-1,4.379774928E-1,1.082726792E-1
3.782879695E0,-4.214846194E-1,2.791571915E-1,1.473668963E-1
3.792593288E0,-3.518480062E-1,1.997470558E-1,1.840177327E-1
3.802307611E0,-2.834331393E-1,1.447708011E-1,1.803526580E-1
3.812021153E0,-1.869192570E-1,5.680879578E-2,1.217113137E-1
3.821733809E0,-5.131116882E-2,-5.436540768E-2,2.397575416E-2
3.831447403E0,1.282779276E-1,-1.484358907E-1,-8.231166750E-2
3.841161674E0,3.518480062E-1,-2.131856978E-1,-1.727170646E-1
3.850875215E0,6.120689511E-1,-2.412846684E-1,-2.411319613E-1
3.860587924E0,8.930587173E-1,-2.278460264E-1,-2.948864996E-1
3.870301465E0,1.169161677E0,-1.863084137E-1,-3.510844707E-1
3.880015788E0,1.414722204E0,-1.142284349E-1,-4.072824121E-1
3.889729330E0,1.613858461E0,-3.054236295E-3,-4.561502039E-1
3.899441986E0,1.754353285E0,1.459924877E-1,-5.037962794E-1
3.909155580E0,1.826433301E0,3.463504016E-1,-5.489989519E-1
3.918869903E0,1.825211644E0,6.236750484E-1,-5.868715048E-1
3.928583340E0,1.750688195E0,9.877400398E-1,-5.807630420E-1
3.938296101E0,1.624853730E0,1.394564271E0,-5.050179958E-1
3.948009695E0,1.477028728E0,1.805053592E0,-3.767400384E-1
3.957723965E0,1.305991411E0,2.194774151E0,-2.533488870E-1
3.967437507E0,1.094638348E0,2.450108290E0,-2.179197669E-1
3.977150215E0,8.564078808E-1,2.489202499E0,-2.716743052E-1
3.986863757E0,6.169557571E-1,2.387801886E0,-3.388675153E-1
3.996578080E0,3.787252903E-1,2.125137568E0,-3.608580232E-1
4.006291622E0,1.551551968E-1,1.601030707E0,-3.156553209E-1
4.016004278E0,-5.375456065E-2,7.409577370E-1,-2.289150059E-1
4.025717872E0,-2.394521236E-1,-3.182514310E-1,-1.177408099E-1
4.035432195E0,-3.787252903E-1,-1.225970507E0,-1.511846948E-2
4.045145632E0,-4.666872919E-1,-1.647455096E0,7.528692484E-2
4.054858393E0,-5.448757410E-1,-1.553384542E0,1.730224788E-1
4.064571934E0,-5.986303091E-1,-1.184432864E0,2.646495700E-1
4.074286257E0,-6.059604883E-1,-6.994200945E-1,3.208475113E-1
4.083999799E0,-6.132906675E-1,-1.643179059E-1,2.805316150E-1
4.093712455E0,-6.279509664E-1,3.060344756E-1,1.363716573E-1
4.103426049E0,-5.509842038E-1,5.833591223E-1,-2.000524849E-2
4.113140372E0,-2.956500649E-1,6.481089592E-1,-1.030804738E-1
4.122853809E0,6.474980712E-2,5.650337338E-1,-1.030804738E-1
4.132566570E0,4.190412164E-1,3.830012381E-1,-9.086353332E-2
4.142280163E0,7.342383862E-1,3.512371778E-1,-1.006370857E-1
4.151994434E0,1.000567794E0,6.505523324E-1,-1.067455560E-1
4.161707976E0,1.185043693E0,1.153890491E0,-9.575030953E-2
4.171420632E0,1.286444306E0,1.675554037E0,-6.154286116E-2
4.181134226E0,1.321873426E0,2.125137568E0,8.093725890E-3
4.190848549E0,1.314543247E0,2.472098827E0,1.107160673E-1
4.200562090E0,1.286444306E0,2.641914368E0,2.279987335E-1
4.210274747E0,1.262010455E0,2.552730799E0,3.318427801E-1
4.219988340E0,1.265675545E0,2.217986345E0,4.308000207E-1
4.229702611E0,1.268118858E0,1.747634053E0,5.541911721E-1
4.239416153E0,1.230246425E0,1.256512761E0,6.653653979E-1
4.249128861E0,1.153279662E0,8.179244995E-1,6.788040400E-1
4.258842403E0,1.066539288E0,4.819584787E-1,5.676298141E-1
4.268556726E0,1.007897973E0,2.278460264E-1,3.892624080E-1
4.278270268E0,1.018893242E0,-1.527118124E-2,2.267770469E-1
4.287982924E0,1.131289124E0,-2.620534599E-1,1.143811494E-1
4.297696518E0,1.314543247E0,-4.611896873E-1,2.519745007E-2
4.307410840E0,1.488023877E0,-5.381564498E-1,-9.330692142E-2
4.317124278E0,1.561325550E0,-3.805578351E-1,-2.460187376E-1
4.326837038E0,1.485580564E0,4.703523964E-2,-3.828485310E-1
4.336550580E0,1.288887739E0,6.212316751E-1,-4.781406820E-1
4.346264903E0,1.023779988E0,1.191763043E0,-5.160132051E-1
4.355978445E0,7.476770282E-1,1.614469290E0,-4.781406820E-1
4.365691101E0,4.984513521E-1,1.758629203E0,-3.950654566E-1
4.375404695E0,3.005368412E-1,1.627907991E0,-2.973299026E-1
4.385118965E0,1.685938388E-1,1.339588046E0,-1.934858710E-1
4.394832507E0,1.221694499E-1,9.743013978E-1,-1.043021679E-1
4.404545163E0,1.539335102E-1,6.200099587E-1,-3.710897267E-2
4.414258757E0,2.247917950E-1,3.683409095E-1,6.872031838E-3
4.423973080E0,2.956500649E-1,2.657185495E-1,4.474456236E-2
4.433686518E0,3.432961702E-1,3.048127890E-1,8.261708915E-2
4.443399278E0,3.713951409E-1,4.563029110E-1,1.058292910E-1
4.453112820E0,4.141544402E-1,6.810947061E-1,1.046075895E-1
4.462827143E0,4.996730685E-1,9.290986657E-1,8.750387281E-2
4.472540684E0,6.267293096E-1,1.170994163E0,5.818320066E-2
4.482253340E0,7.647807598E-1,1.384790778E0,2.519745007E-2
4.491966934E0,8.869501948E-1,1.547276139E0,-7.788302377E-3
4.501681257E0,9.797990322E-1,1.648676753E0,-3.710897267E-2
4.511394695E0,1.044548869E0,1.685327530E0,-6.765133142E-2
4.521107455E0,1.086086392E0,1.657228589E0,-9.575030953E-2
4.530820997E0,1.106855273E0,1.577818513E0,-1.275143623E-1
4.540535320E0,1.097081661E0,1.477639556E0,-1.605001241E-1
4.550248861E0,1.046992183E0,1.388455868E0,-1.812689304E-1
4.559961518E0,9.639169574E-1,1.320040941E0,-1.739387512E-1
4.569675111E0,8.661814332E-1,1.273616552E0,-1.409530044E-1
4.579389434E0,7.574505806E-1,1.258956194E0,-9.697200358E-2
4.589102872E0,6.487197876E-1,1.254069448E0,-6.276455522E-2
4.598815580E0,5.558710098E-1,1.232078910E0,-5.299099907E-2
4.608529174E0,4.764608741E-1,1.210088372E0,-5.421269313E-2
4.618243497E0,3.750602305E-1,1.223527074E0,-3.588727489E-2
4.627956934E0,2.199050188E-1,1.265064716E0,1.175880991E-2
4.637669695E0,2.565558441E-2,1.262621284E0,5.207473040E-2
4.647383236E0,-1.527118087E-1,1.159998894E0,4.963133857E-2
4.657097559E0,-2.638860047E-1,9.840749502E-1,1.908897609E-2
4.666811101E0,-3.017585576E-1,7.898254991E-1,-1.679830020E-3
4.676523757E0,-2.773246467E-1,5.980194807E-1,-2.244863659E-2
4.686237351E0,-2.028012872E-1,4.269822240E-1,-6.520794332E-2
4.695951622E0,-8.429691941E-2,3.084778786E-1,-1.385096163E-1
4.705665163E0,8.551861346E-2,2.767138183E-1,-2.399102598E-1
4.715377820E0,2.577775419E-1,3.561239541E-1,-3.315373361E-1
4.725091413E0,3.616215885E-1,5.564818382E-1,-3.877353072E-1
4.734805736E0,4.312581718E-1,8.386932611E-1,-4.500417113E-1
4.744519174E0,5.680879354E-1,1.136786699E0,-5.856497884E-1
4.754231934E0,7.611156702E-1,1.417776465E0,-7.518002391E-1
4.763945476E0,8.160919547E-1,1.659672022E0,-8.251019120E-1
4.773659799E0,5.668662786E-1,1.835595965E0,-7.334748507E-1
4.783373340E0,2.076880634E-2,1.934553266E0,-5.135698318E-1
4.793085997E0,-6.719319820E-1,1.947991967E0,-2.325800955E-1
4.802799590E0,-1.338977218E0,1.864916682E0,8.139539510E-2
4.812513861E0,-1.892404795E0,1.701209664E0,3.807105422E-1
4.822227403E0,-2.318776131E0,1.482526302E0,6.226060390E-1
4.831940059E0,-2.631682634E0,1.268729806E0,7.802046537E-1
4.841653653E0,-2.851587772E0,1.101357579E0,8.510629535E-1
4.851367976E0,-2.989639282E0,9.669712186E-1,8.779402375E-1
4.861081413E0,-3.053167343E0,8.411366940E-1,8.950439692E-1
4.870794174E0,-3.051945686E0,7.140804529E-1,9.048175216E-1
4.880507715E0,-2.994525909E0,6.358919740E-1,9.121476412E-1
4.890222038E0,-2.869913101E0,6.786513329E-1,9.292513728E-1
4.899935476E0,-2.685437202E0,8.790091872E-1,9.573503733E-1
4.909648236E0,-2.469197273E0,1.197871447E0,9.781191945E-1
4.919361778E0,-2.243031025E0,1.536280870E0,9.915578365E-1
4.929076101E0,-1.964484811E0,1.664558768E0,1.023321867E0
4.938789643E0,-1.677386522E0,1.555827975E0,1.097845197E0
4.948502299E0,-1.496575832E0,1.376238823E0,1.221236348E0
4.958215893E0,-1.419609070E0,1.063485026E0,1.350736022E0
4.967930163E0,-1.437934399E0,6.847597957E-1,1.439919710E0
4.977643705E0,-1.480693698E0,2.767138183E-1,1.469240427E0
4.987356361E0,-1.524674773E0,-1.832541777E-3,1.411820769E0
4.997069955E0,-1.569877505E0,-7.024743408E-2,1.295759797E0
5.006784278E0,-1.584537745E0,1.288887709E-1,1.176033735E0
5.016497715E0,-1.490467310E0,2.681619525E-1,1.036760569E0
5.026210476E0,-1.353637576E0,2.437280566E-1,8.486195803E-1
5.035924018E0,-1.253458619E0,1.801999360E-1,6.617003083E-1
5.045638340E0,-1.211920977E0,1.337755471E-1,5.248705149E-1
5.055351882E0,-1.231468081E0,1.521009654E-1,4.857762754E-1
5.065064538E0,-1.284000993E0,2.583884001E-1,5.334223509E-1
5.074778132E0,-1.332868695E0,3.891097009E-1,6.336013079E-1
5.084492403E0,-1.341420531E0,4.404208660E-1,7.301151752E-1
5.094205945E0,-1.291331053E0,3.316900730E-1,7.582141757E-1
5.103918601E0,-1.166718245E0,1.191152185E-1,7.069029808E-1
5.113632195E0,-9.590302110E-1,-1.020114943E-1,5.981721878E-1
5.123346518E0,-6.792621613E-1,-2.913741469E-1,4.564556181E-1
5.133059955E0,-3.445178568E-1,-4.465293586E-1,2.903051674E-1
5.142772715E0,2.321219631E-2,-5.430431962E-1,1.094943732E-1
5.152486257E0,3.933856487E-1,-5.515950918E-1,-6.276455522E-2
5.162200580E0,7.256865501E-1,-4.587462842E-1,-1.922641695E-1
5.171914122E0,9.785773158E-1,-2.828222811E-1,-2.838912606E-1
5.181626778E0,1.142284393E0,-4.581354558E-2,-3.706315756E-1
5.191340372E0,1.238798261E0,2.266243398E-1,-4.671454430E-1
5.201054643E0,1.280335903E0,4.905103445E-1,-5.783196688E-1
5.210768184E0,1.271783948E0,7.372926474E-1,-6.846070886E-1
5.220480840E0,1.224137902E0,9.547542930E-1,-7.542436719E-1
5.230194434E0,1.170383334E0,1.095249176E0,-7.566870451E-1
5.239908757E0,1.156944752E0,1.128234863E0,-6.846070886E-1
5.249622195E0,1.209477544E0,1.075702071E0,-5.502206683E-1
5.259334955E0,1.316986680E0,9.657495022E-1,-3.852919042E-1
5.269048497E0,1.412278891E0,8.472451568E-1,-2.264716178E-1
5.278762820E0,1.411057115E0,7.702783942E-1,-1.287360638E-1
5.288476361E0,1.305991411E0,7.262973785E-1,-1.226275861E-1
5.298189018E0,1.126402378E0,6.847597957E-1,-1.983726472E-1
5.307902611E0,9.187142849E-1,5.137225389E-1,-3.144336343E-1
5.317616934E0,7.232431769E-1,1.716480851E-1,-4.194993675E-1
5.327330372E0,5.619794726E-1,-2.021904439E-1,-4.573718905E-1
5.337043132E0,4.068242610E-1,-4.819584787E-1,-3.975088596E-1
5.346756726E0,2.553341687E-1,-6.151232123E-1,-3.022166789E-1
5.356470997E0,8.918370306E-2,-5.967977643E-1,-2.105895877E-1
5.366184538E0,-3.542914242E-2,-5.063923597E-1,-7.009471953E-2
5.375897195E0,1.099525020E-2,-5.247178078E-1,5.085303262E-2
5.385610788E0,2.321219593E-1,-5.491516590E-1,-1.679830020E-3
5.395325111E0,4.935645759E-1,-3.622324169E-1,-2.509055138E-1
5.405038653E0,6.536065936E-1,8.857285231E-2,-4.524851143E-1
5.414751309E0,6.914790869E-1,6.786513329E-1,-4.231644273E-1
5.424464903E0,7.085828185E-1,1.194206357E0,-1.519482583E-1
5.434179226E0,7.965448499E-1,1.300493836E0,1.534753740E-1
5.443892663E0,9.651386738E-1,1.040272832E0,2.573194206E-1
5.453605424E0,1.188708782E0,9.547542930E-1,2.805316150E-1
5.463319018E0,1.398840189E0,1.295607090E0,3.611634374E-1
5.473033288E0,1.513679504E0,1.732973695E0,4.601207078E-1
5.482746830E0,1.528339863E0,2.022515297E0,5.102101564E-1
5.492459538E0,1.467255116E0,2.117807388E0,4.869979918E-1
5.502173080E0,1.369519591E0,2.035953999E0,4.149180055E-1
5.511887403E0,1.291331053E0,1.838039398E0,3.513898849E-1
5.521600945E0,1.282779217E0,1.601030707E0,3.452814221E-1
5.531313601E0,1.326760292E0,1.354248405E0,4.259132445E-1
5.541027195E0,1.375627995E0,1.109909415E0,5.480827093E-1
5.550741518E0,1.395175099E0,9.193251133E-1,6.226060390E-1
5.560455059E0,1.382958174E0,7.886037827E-1,6.152759194E-1
5.570167715E0,1.363411069E0,6.322268844E-1,5.541911721E-1
5.579881309E0,1.364632726E0,3.781144619E-1,4.625640810E-1
5.589595632E0,1.369519591E0,6.780404598E-2,3.428380191E-1
5.599309174E0,1.346307397E0,-1.533226669E-1,1.803526580E-1
5.609021830E0,1.280335903E0,-2.058555335E-1,-1.023169141E-2
5.618735424E0,1.171604991E0,-1.618745178E-1,-1.922641695E-1
5.628449747E0,1.003011227E0,-2.205158621E-1,-3.217637837E-1
5.638163288E0,8.185353279E-1,-3.573456407E-1,-3.681881726E-1
5.647875945E0,6.572716236E-1,-4.233171642E-1,-3.266505599E-1
5.657589538E0,5.473191738E-1,-4.318690002E-1,-2.313583940E-1
5.667303861E0,4.837910235E-1,-4.440859556E-1,-1.446180940E-1
5.677017403E0,4.495835900E-1,-4.734066129E-1,-9.941539168E-2
5.686730059E0,4.324798584E-1,-5.015056133E-1,-9.575030953E-2
5.696443653E0,4.324798584E-1,-5.283828974E-1,-1.104106456E-1
5.706157976E0,4.459185004E-1,-5.540384650E-1,-1.262926757E-1
5.715871518E0,4.642439187E-1,-5.577035546E-1,-1.311794519E-1
5.725584174E0,4.874561131E-1,-5.234960914E-1,-1.165191159E-1
5.735297768E0,4.886777997E-1,-4.172086716E-1,-8.964183182E-2
5.745012090E0,4.654656053E-1,-2.852656841E-1,-7.986827940E-2
5.754725632E0,4.410317242E-1,-1.728697717E-1,-8.842013776E-2
5.764438288E0,4.410317242E-1,-7.757759839E-2,-1.067455560E-1
5.774151882E0,4.789042473E-1,6.719320081E-3,-1.482831687E-1
5.783866205E0,5.522059202E-1,6.658235192E-2,-2.154763639E-1
5.793579747E0,6.511631608E-1,1.007898003E-1,-2.936648130E-1
5.803292455E0,7.550072074E-1,1.325538605E-1,-3.657447994E-1
5.813006049E0,8.417475224E-1,1.875301152E-1,-4.170559645E-1
5.822720372E0,8.979454637E-1,2.693836391E-1,-4.439332485E-1
5.832433809E0,9.199360013E-1,3.646758199E-1,-4.598152637E-1
5.842146570E0,9.089407325E-1,4.550811946E-1,-4.671454430E-1
5.851860163E0,8.735115528E-1,5.271611810E-1,-4.671454430E-1
5.861574486E0,8.246437907E-1,5.735855699E-1,-4.549284875E-1
5.871288028E0,7.745543122E-1,6.029062271E-1,-4.256078303E-1
5.881000684E0,7.379034758E-1,6.297835112E-1,-3.779617548E-1
5.890714278E0,7.220214605E-1,6.407787800E-1,-3.205420971E-1
5.900428601E0,7.256865501E-1,6.163448691E-1,-2.667875290E-1
5.910142143E0,7.440119386E-1,5.662553906E-1,-2.240282297E-1
5.919854851E0,7.721109390E-1,5.125008225E-1,-1.873773932E-1
5.929568445E0,7.977665067E-1,4.709632397E-1,-1.592784226E-1
5.939282768E0,7.977665067E-1,4.599680007E-1,-1.311794519E-1
5.948996309E0,7.574505806E-1,4.856235683E-1,-1.030804738E-1
5.958709018E0,6.804838181E-1,5.405998230E-1,-8.597674966E-2
5.968422559E0,5.876350403E-1,6.077930331E-1,-6.887302548E-2
5.978136934E0,4.764608741E-1,6.591041684E-1,-4.566083103E-2
5.987850476E0,3.408527672E-1,6.847597957E-1,7.635590737E-4
5.997563132E0,1.844758689E-1,6.652126908E-1,7.406523079E-2
6.007276726E0,3.298575059E-2,5.662553906E-1,1.485885978E-1
6.016991049E0,-9.040539712E-2,3.952181637E-1,2.133384049E-1
6.026704590E0,-1.734806150E-1,1.679829955E-1,2.597627938E-1
6.036417299E0,-2.040229887E-1,-9.712471068E-2,2.622061968E-1
6.046130893E0,-1.612636745E-1,-3.732276857E-1,2.035648525E-1
6.055845215E0,-5.375456065E-2,-6.029062271E-1,1.021642014E-1
6.065558757E0,7.452336699E-2,-6.969767213E-1,-7.788302377E-3
6.075271465E0,1.881409585E-1,-6.065713167E-1,-1.079672500E-1
6.084985059E0,2.919849753E-1,-3.610107303E-1,-1.959292591E-1
6.094699382E0,3.982724249E-1,-5.192201585E-2,-2.851129472E-1
6.104412924E0,4.666872919E-1,2.107423097E-1,-4.011739492E-1
6.114125632E0,4.288147688E-1,3.597890437E-1,-5.380037427E-1
6.123839226E0,2.076880634E-1,4.220954478E-1,-6.015318632E-1
6.133553549E0,-2.162399292E-1,4.465293586E-1,-5.331169367E-1
6.143267090E0,-7.757760286E-1,4.587462842E-1,-3.755183518E-1
6.152979799E0,-1.346307397E0,4.538595080E-1,-1.849340051E-1
6.162693393E0,-1.863084197E0,4.025483429E-1,1.786728203E-2
6.172407715E0,-2.309002638E0,3.316900730E-1,2.157817930E-1
6.182121257E0,-2.676885366E0,2.999260128E-1,3.929274976E-1
6.191833965E0,-2.950545073E0,3.561239541E-1,5.334223509E-1
6.201547559E0,-3.125247240E0,4.978405237E-1,6.250494719E-1
6.211261882E0,-3.198549032E0,6.994200945E-1,6.629219651E-1
6.220975424E0,-3.177780151E0,9.327637553E-1,6.653653979E-1
6.230688132E0,-3.073936224E0,1.190541267E0,6.555918455E-1
6.240401726E0,-2.893125296E0,1.456870675E0,6.445965767E-1
6.250116049E0,-2.662225008E0,1.638903141E0,6.299362183E-1
6.259829590E0,-2.417886257E0,1.654785275E0,5.957288146E-1
6.269542299E0,-2.183168173E0,1.516733766E0,5.395308137E-1
6.279255893E0,-1.964484811E0,1.271173120E0,4.845545888E-1
6.288970268E0,-1.762905240E0,9.217684865E-1,4.515688419E-1
6.298683809E0,-1.588202834E0,4.477510452E-1,4.454603493E-1
6.308396518E0,-1.408613801E0,-2.547233105E-1,4.503471553E-1
6.318110111E0,-1.204590797E0,-1.244295835E0,4.760027230E-1
6.327824434E0,-1.127624035E0,-2.159345150E0,5.260922313E-1
6.337537976E0,-1.219251156E0,-2.850976944E0,5.517477989E-1
6.347250684E0,-1.414722204E0,-3.111197710E0,5.395308137E-1
6.356964278E0,-1.619966984E0,-2.820434570E0,5.028799772E-1
6.366678601E0,-1.759240150E0,-2.007854939E0,4.613423944E-1
6.376392195E0,-1.793447495E0,-8.057075143E-1,3.990359604E-1
6.386104903E0,-1.729919434E0,4.086568058E-1,3.269560039E-1
6.395818497E0,-1.574764252E0,1.267508030E0,2.609844804E-1
6.405532820E0,-1.367076159E0,1.629129648E0,2.084516287E-1
6.415246361E0,-1.141062737E0,1.524063945E0,1.620272398E-1
6.424959070E0,-9.089407325E-1,1.092805743E0,1.119377613E-1
6.434672663E0,-6.670452356E-1,5.564818382E-1,5.696150661E-2
6.444387038E0,-4.239279926E-1,8.735115826E-2,8.093725890E-3
6.454100580E0,-1.942494214E-1,-2.803788781E-1,-3.466558084E-2
6.463813288E0,1.954711229E-2,-6.114581227E-1,-1.043021679E-1
6.473526882E0,1.918060333E-1,-8.704573512E-1,-2.130329758E-1
6.483241205E0,3.249707520E-1,-9.413156509E-1,-3.071034551E-1
6.492954799E0,4.508052766E-1,-8.496885300E-1,-3.510844707E-1
6.502667507E0,5.913001299E-1,-6.872031689E-1,-3.547495604E-1
6.512381101E0,7.354601026E-1,-5.405998230E-1,-3.425326049E-1
6.522095424E0,8.735115528E-1,-4.514161348E-1,-3.315373361E-1
6.531809018E0,9.944593310E-1,-3.707842827E-1,-3.242071867E-1
6.541521726E0,1.089751482E0,-2.999260128E-1,-3.400892019E-1
6.551235320E0,1.174048424E0,-2.559449971E-1,-4.048390090E-1
6.560949643E0,1.262010455E0,-2.351761907E-1,-5.282301903E-1
6.570663236E0,1.348750710E0,-1.643179059E-1,-6.821636558E-1
6.580375945E0,1.415943980E0,7.513421029E-2,-7.921161652E-1
6.590089538E0,1.457481503E0,4.575245976E-1,-7.737907767E-1
6.599803861E0,1.458703279E0,7.397360206E-1,-6.064186096E-1
6.609517403E0,1.362189412E0,6.786513329E-1,-4.133908749E-1
6.619230163E0,1.119072199E0,3.109212518E-1,-3.364241421E-1
6.628943757E0,7.220214605E-1,-7.146912813E-2,-3.901786804E-1
6.638658080E0,2.846548259E-1,-2.205158621E-1,-4.659237564E-1
6.648371674E0,-4.886778072E-3,-7.269082218E-2,-4.952444136E-1
6.658084382E0,-8.796200156E-2,1.740914732E-1,-4.879142344E-1
6.667797976E0,-7.085828483E-2,2.180724740E-1,-4.537068009E-1
6.677512351E0,-7.452336699E-2,-4.214845970E-2,-4.011739492E-1
6.687225893E0,-1.734806150E-1,-4.917320311E-1,-3.229855001E-1
6.696938601E0,-4.031592011E-1,-9.535325766E-1,-1.995943487E-1
6.706652195E0,-6.560499668E-1,-1.400672793E0,-1.679830020E-3
6.716366570E0,-7.207997441E-1,-1.786728263E0,1.913478971E-1
6.726080111E0,-6.328377724E-1,-1.900345802E0,2.463241518E-1
6.735792820E0,-5.790832043E-1,-1.657228589E0,1.082726792E-1
6.745506465E0,-5.619794726E-1,-1.028055906E0,-9.330692142E-2
6.755220788E0,-4.715740979E-1,-2.412846684E-1,-1.959292591E-1
6.764934382E0,-2.431172132E-1,2.938175201E-1,-1.592784226E-1
6.774647090E0,4.764608666E-2,2.999260128E-1,-8.108997345E-2
6.784360684E0,3.261924386E-1,-1.160609815E-2,-2.244863659E-2
6.794075059E0,6.389462352E-1,-1.411057115E-1,1.175880991E-2
6.803788601E0,9.651386738E-1,1.142284349E-1,4.474456236E-2
6.813501309E0,1.183822036E0,6.676560640E-1,7.284353673E-2
6.823214955E0,1.257123709E0,1.355470061E0,1.046075895E-1
6.832929278E0,1.240019917E0,1.987086177E0,1.779092699E-1
6.842642872E0,1.177713513E0,2.490424156E0,3.061871827E-1
6.852355580E0,1.119072199E0,2.826543093E0,4.747810364E-1
6.862069174E0,1.100746751E0,2.901066303E0,6.714738607E-1
6.871783549E0,1.165496588E0,2.600376844E0,8.681666851E-1
6.881497090E0,1.291331053E0,1.951656938E0,1.053864241E0
6.891209799E0,1.379293084E0,1.192984700E0,1.143047929E0
6.900923445E0,1.397618532E0,4.892886579E-1,1.068524599E0
6.910637820E0,1.403727055E0,-1.203369126E-1,8.583931327E-1
6.920351361E0,1.463590026E0,-6.823163629E-1,6.103891134E-1
6.930064070E0,1.608971715E0,-1.219861984E0,3.953709006E-1
6.939777715E0,1.809329629E0,-1.585148692E0,2.231119573E-1
6.949492038E0,1.936385870E0,-1.525285602E0,4.230117425E-2
6.959205632E0,1.841093659E0,-8.875610828E-1,-1.458397806E-1
6.968918340E0,1.547886968E0,8.124268800E-2,-2.899997234E-1
6.978631986E0,1.194817185E0,9.132166505E-1,-3.706315756E-1
6.988346309E0,8.698465228E-1,1.322484374E0,-3.901786804E-1
6.998059903E0,5.741963983E-1,1.243074179E0,-4.036173224E-1
7.007772611E0,3.164188862E-1,7.666133046E-1,-4.304946065E-1
7.017486257E0,1.209477559E-1,1.007898003E-1,-4.317162931E-1
7.027200580E0,6.108472589E-3,-5.625903010E-1,-3.999522328E-1
7.036914174E0,-2.076880634E-2,-1.085475564E0,-3.400892019E-1
7.046626882E0,3.298575059E-2,-1.388455868E0,-2.704526186E-1
7.056340528E0,1.356080920E-1,-1.476417780E0,-2.179197669E-1
7.066054851E0,2.553341687E-1,-1.398229361E0,-2.008160353E-1
7.075768445E0,3.542914093E-1,-1.174659252E0,-2.093679011E-1
7.085481153E0,4.214846194E-1,-8.448017836E-1,-2.313583940E-1
7.095194799E0,4.715740979E-1,-4.831801951E-1,-2.582356930E-1
7.104909122E0,5.253286362E-1,-1.643179059E-1,-2.753393948E-1
7.114622715E0,6.096255779E-1,9.223793447E-2,-2.765611112E-1
7.124335424E0,7.293516397E-1,2.803788781E-1,-2.667875290E-1
7.134049070E0,8.722898960E-1,4.062134326E-1,-2.680092454E-1
7.143763445E0,1.033553600E0,4.819584787E-1,-2.887780368E-1
7.153476986E0,1.202147365E0,5.161659122E-1,-3.290939629E-1
7.163189747E0,1.347529054E0,5.198310018E-1,-3.742966652E-1
7.172903340E0,1.425717473E0,5.271611810E-1,-4.060607255E-1
7.182617715E0,1.403727055E0,5.638120174E-1,-4.060607255E-1
7.192331309E0,1.265675545E0,6.200099587E-1,-3.669664860E-1
7.202044018E0,1.016449809E0,6.762079000E-1,-2.887780368E-1
7.211757663E0,6.988092661E-1,6.945333481E-1,-1.812689304E-1
7.221471986E0,3.799470067E-1,6.371136904E-1,-8.231166750E-2
7.231185580E0,1.270562261E-1,5.039489865E-1,-1.511846948E-2
7.240898340E0,-3.542914242E-2,3.414636254E-1,2.764083818E-2
7.250611934E0,-1.294996142E-1,1.936385781E-1,6.551336497E-2
7.260326309E0,-1.942494214E-1,8.612946421E-2,1.021642014E-1
7.270039903E0,-2.467822880E-1,1.771457121E-2,1.278197914E-1
7.279752611E0,-2.822114229E-1,-2.626643144E-2,1.314848661E-1
7.289466257E0,-2.895416021E-1,-5.680879578E-2,1.229330078E-1
7.299180632E0,-2.712161839E-1,-7.635590434E-2,1.290414780E-1
7.308894174E0,-2.406738251E-1,-9.468132257E-2,1.498102844E-1
7.318606934E0,-1.954711229E-1,-1.240019947E-1,1.608055383E-1
7.328320528E0,-1.014006436E-1,-1.740914732E-1,1.437018216E-1
7.338034903E0,5.375456065E-2,-2.351761907E-1,9.239064902E-2
7.347748497E0,2.235700935E-1,-2.571666837E-1,1.175880991E-2
7.357461257E0,3.506263196E-1,-2.156290859E-1,-1.250709742E-1
7.367174851E0,4.642439187E-1,-1.447708011E-1,-3.229855001E-1
7.376889226E0,6.255075932E-1,-1.093416587E-1,-5.514423847E-1
7.386602820E0,7.806627750E-1,-1.240019947E-1,-7.395833135E-1
7.396315528E0,7.488987446E-1,-1.203369126E-1,-7.762341499E-1
7.406029174E0,4.178195298E-1,-8.612946421E-2,-6.467345357E-1
7.415743549E0,-2.052446753E-1,-3.848337755E-2,-4.268295169E-1
7.425457143E0,-1.005454540E0,3.603998944E-2,-1.788255423E-1
7.435169851E0,-1.778787255E0,1.313321590E-1,6.673506647E-2
7.444883497E0,-2.362909794E0,2.596100867E-1,2.805316150E-1
7.454597872E0,-2.736748457E0,4.514161348E-1,4.527905285E-1
7.464311413E0,-2.966427088E0,6.578825116E-1,5.676298141E-1
7.474024174E0,-3.094704866E0,8.167027831E-1,5.981721878E-1
7.483737820E0,-3.136242628E0,9.119949341E-1,5.505260825E-1
7.493452195E0,-3.102035046E0,9.608627558E-1,4.588989913E-1
7.503165736E0,-2.983530760E0,1.001178622E0,3.636068404E-1
7.512878497E0,-2.781951189E0,1.052489877E0,3.025220931E-1
7.522592143E0,-2.527838707E0,1.084253907E0,2.964136302E-1
7.532306518E0,-2.263799906E0,1.057376623E0,3.306210935E-1
7.542020111E0,-2.021904469E0,9.498674870E-1,3.709369898E-1
7.551732820E0,-1.812994719E0,7.556180358E-1,3.965925872E-1
7.561446465E0,-1.644400835E0,4.868452549E-1,4.063661397E-1
7.571160840E0,-1.527118206E0,1.423274130E-1,4.124746025E-1
7.580874434E0,-1.469698548E0,-2.693836391E-1,4.430169761E-1
7.590587143E0,-1.457481503E0,-7.482879162E-1,4.882196784E-1
7.600300788E0,-1.440377831E0,-1.360356808E0,5.407525301E-1
7.610015163E0,-1.461146593E0,-1.824600816E0,6.238277555E-1
7.619728757E0,-1.517344594E0,-1.944326878E0,7.056813240E-1
7.629441518E0,-1.552773714E0,-1.778176427E0,7.301151752E-1
7.639155163E0,-1.538113356E0,-1.371352077E0,6.788040400E-1
7.648869538E0,-1.486802220E0,-7.629482150E-1,5.676298141E-1
7.658583132E0,-1.428160906E0,-2.993151546E-2,4.246915579E-1
7.668295840E0,-1.370741248E0,6.310052276E-1,3.147390485E-1
7.678009486E0,-1.296217918E0,1.075702071E0,2.536543310E-1
7.687723861E0,-1.191152096E0,1.274838209E0,2.499892414E-1
7.697437455E0,-1.031110168E0,1.211310148E0,2.768665254E-1
7.707150215E0,-8.209787011E-1,8.191461563E-1,2.890834510E-1
7.716863861E0,-6.010736823E-1,2.205158621E-1,2.866400778E-1
7.726578236E0,-4.031592011E-1,-3.720059693E-1,2.780882120E-1
7.736291830E0,-2.541124523E-1,-7.715001106E-1,2.707580328E-1
7.746004538E0,-1.527118087E-1,-8.582404256E-1,2.536543310E-1
7.755718184E0,-6.474980712E-2,-6.981984377E-1,1.937913001E-1
7.765432559E0,4.275930673E-2,-4.465293586E-1,8.383878320E-2
7.775146153E0,1.832541823E-1,-2.522799075E-1,-4.321744293E-2
7.784858913E0,3.677300513E-1,-1.973036677E-1,-1.495048702E-1
7.794572559E0,5.876350403E-1,-2.547233105E-1,-2.325800955E-1
7.804286934E0,8.112051487E-1,-3.585673273E-1,-2.997733057E-1
7.814000528E0,1.007897973E0,-4.563029110E-1,-3.669664860E-1
7.823713236E0,1.181378603E0,-5.430431962E-1,-4.573718905E-1
7.833426934E0,1.357302666E0,-6.261184216E-1,-5.868715048E-1
7.843141309E0,1.544221878E0,-6.578825116E-1,-7.346965671E-1
7.852854903E0,1.717702508E0,-5.479300022E-1,-8.483141065E-1
7.862567611E0,1.821546555E0,-2.620534599E-1,-8.593093753E-1
7.872281257E0,1.789782524E0,1.533226669E-1,-7.261446714E-1
7.881995632E0,1.595533013E0,5.467082858E-1,-5.037962794E-1
7.891709226E0,1.260788798E0,6.444438696E-1,-3.486410677E-1
7.901421986E0,8.515210748E-1,3.830012381E-1,-3.413109183E-1
7.911135632E0,4.459185004E-1,-1.038440317E-2,-4.182776511E-1
7.920850007E0,1.111742035E-1,-2.620534599E-1,-4.793623984E-1
7.930563601E0,-1.001789495E-1,-2.608317733E-1,-5.074613690E-1
7.940276361E0,-1.502684206E-1,-1.276670843E-1,-4.976878166E-1
7.949990007E0,-8.063183725E-2,-9.834641218E-2,-4.427115619E-1
7.959704382E0,3.665083554E-3,-2.620534599E-1,-3.510844707E-1
7.969417976E0,1.221694518E-2,-5.332696438E-1,-2.692309320E-1
7.979130736E0,-1.099525094E-1,-8.276980519E-1,-1.788255423E-1
7.988844382E0,-2.956500649E-1,-1.124569774E0,-1.389677543E-2
7.998558757E0,-3.958290219E-1,-1.356691718E0,1.522536725E-1
8.008272351E0,-3.701734245E-1,-1.349361539E0,2.072299272E-1
8.017985111E0,-2.296785712E-1,-9.694145918E-1,1.094943732E-1
8.027698757E0,-6.108472589E-3,-3.170297146E-1,-3.710897267E-2
8.037413184E0,2.309002578E-1,3.475720882E-1,-8.353336155E-2
8.047126726E0,4.165978432E-1,7.324058414E-1,2.275406010E-2
8.056839486E0,5.314370990E-1,6.029062271E-1,1.705790907E-1
8.066553132E0,6.719319820E-1,2.730487287E-1,2.414373755E-1
8.076267559E0,9.028322697E-1,2.693836391E-1,2.524326444E-1
8.085981153E0,1.143506050E0,5.967977643E-1,2.658712566E-1
8.095693913E0,1.281557560E0,1.081810474E0,2.866400778E-1
8.105407559E0,1.296217918E0,1.564379811E0,2.988570333E-1
8.115121934E0,1.213142633E0,1.894237399E0,3.049654961E-1
8.124835528E0,1.087308168E0,1.998081326E0,3.342861533E-1
8.134548288E0,9.920159578E-1,1.856364846E0,4.088095427E-1
8.144261934E0,9.614735842E-1,1.535059214E0,5.212054253E-1
8.153976309E0,1.003011227E0,1.062263370E0,6.445965767E-1
8.163689955E0,1.105633497E0,4.526378214E-1,7.398887277E-1
8.173402663E0,1.241241574E0,-2.205158621E-1,7.533273697E-1
8.183116361E0,1.386623263E0,-8.509102464E-1,6.507050395E-1
8.192830736E0,1.530783176E0,-1.362800241E0,4.430169761E-1
8.202544330E0,1.641957402E0,-1.673110604E0,1.705790907E-1
8.212257090E0,1.663947940E0,-1.656006932E0,-1.079672500E-1
8.221970736E0,1.539335132E0,-1.296828747E0,-3.596363366E-1
8.231685111E0,1.276670814E0,-7.666133046E-1,-5.282301903E-1
8.241398757E0,9.431481957E-1,-2.522799075E-1,-5.746545792E-1
8.251111465E0,6.071822047E-1,1.472141892E-1,-5.196782947E-1
8.260825163E0,3.151971996E-1,3.365768492E-1,-4.390464723E-1
8.270539538E0,7.818844914E-2,2.803788781E-1,-3.962871730E-1
8.280253132E0,-8.063183725E-2,1.166718230E-1,-3.804051280E-1
8.289965893E0,-1.466033459E-1,-1.191152185E-1,-3.877353072E-1
8.299679538E0,-9.407047927E-2,-4.611896873E-1,-4.304946065E-1
8.309393965E0,5.497625470E-2,-8.154810667E-1,-4.781406820E-1
8.319107559E0,2.247917950E-1,-1.048824787E0,-4.879142344E-1
8.328820320E0,3.457395434E-1,-1.114796281E0,-4.524851143E-1
8.338533965E0,4.092676640E-1,-1.017060637E0,-3.926220834E-1
8.348248340E0,4.337015450E-1,-7.971556783E-1,-3.474193811E-1
8.357961986E0,4.495835900E-1,-5.234960914E-1,-3.339807391E-1
8.367674747E0,4.862344265E-1,-2.498365343E-1,-3.413109183E-1
8.377388393E0,5.570927262E-1,-1.404948719E-2,-3.510844707E-1
8.387102768E0,6.536065936E-1,1.667613089E-1,-3.559712470E-1
8.396816361E0,7.562289238E-1,2.974826097E-1,-3.584146202E-1
8.406529174E0,8.539644480E-1,3.830012381E-1,-3.596363366E-1
8.416242820E0,9.382613897E-1,4.294256270E-1,-3.620797098E-1
8.425957195E0,1.001789451E0,4.355340898E-1,-3.730749488E-1
8.435670788E0,1.034775257E0,3.952181637E-1,-3.767400384E-1
8.445383549E0,1.034775257E0,3.133646548E-1,-3.694098890E-1
8.455097247E0,1.009119630E0,2.192941606E-1,-3.461976945E-1
8.464811622E0,9.565867782E-1,1.423274130E-1,-3.022166789E-1
8.474525215E0,8.747332692E-1,1.056765765E-1,-2.313583940E-1
8.484237976E0,7.586722970E-1,1.301104724E-1,-1.421747059E-1
8.493951674E0,6.145123243E-1,2.168507725E-1,-4.932591692E-2
8.503666049E0,4.618005157E-1,3.243598938E-1,1.786728203E-2
8.513379695E0,3.249707520E-1,3.903313875E-1,4.474456236E-2
8.523092455E0,2.296785712E-1,3.915531039E-1,3.985778242E-2
8.532806101E0,1.893626451E-1,3.524588645E-1,1.298050396E-2
8.542520476E0,2.015796006E-1,3.158080280E-1,-3.100049868E-2
8.552234122E0,2.370087355E-1,3.231382072E-1,-6.032116711E-2
8.561946882E0,2.516690791E-1,3.768927455E-1,-5.543438718E-2
8.571660528E0,2.174616307E-1,4.538595080E-1,-3.588727489E-2
8.581374955E0,1.490467340E-1,5.161659122E-1,-2.244863659E-2
8.591088549E0,7.452336699E-2,5.479300022E-1,8.093725890E-3
8.600801309E0,1.099525020E-2,5.259394646E-1,6.184828654E-2
8.610514955E0,-2.932066843E-2,4.355340898E-1,1.229330078E-1
8.620229382E0,-2.076880634E-2,2.730487287E-1,1.608055383E-1
8.629942976E0,6.108472496E-2,4.581354558E-2,1.339282542E-1
8.639655736E0,1.918060333E-1,-1.863084137E-1,4.596625641E-2
8.649369434E0,2.944283783E-1,-3.365768492E-1,-6.154286116E-2
8.659083809E0,3.347443044E-1,-3.830012381E-1,-1.727170646E-1
8.668797455E0,3.542914093E-1,-3.707842827E-1,-2.790044844E-1
8.678510215E0,4.202629030E-1,-3.622324169E-1,-3.852919042E-1
8.688223861E0,5.497625470E-1,-3.952181637E-1,-4.940227270E-1
8.697938288E0,6.389462352E-1,-4.025483429E-1,-5.758762360E-1
8.707651882E0,5.473191738E-1,-3.316900730E-1,-5.599942207E-1
8.717364643E0,2.382304370E-1,-2.082989216E-1,-4.317162931E-1
8.727078340E0,-2.565558553E-1,-7.146912813E-2,-2.594573796E-1
8.736792715E0,-8.466343284E-1,4.581354558E-2,-1.006370857E-1
8.746506361E0,-1.408613801E0,1.240019947E-1,5.696150661E-2
8.756219122E0,-1.881409526E0,1.924168915E-1,2.182251811E-1
8.765932768E0,-2.258913279E0,2.669402659E-1,3.648285270E-1
8.775647195E0,-2.551050901E0,3.585673273E-1,4.796678126E-1
8.785360788E0,-2.759960651E0,4.892886579E-1,5.578562617E-1
8.795073549E0,-2.884573460E0,6.908682585E-1,5.969504714E-1
8.804787247E0,-2.926110983E0,9.559759498E-1,5.969504714E-1
8.814501622E0,-2.902898788E0,1.252847672E0,5.651864409E-1
8.824215268E0,-2.828375578E0,1.552162886E0,5.163186193E-1
8.833928028E0,-2.709871054E0,1.803831935E0,4.674508572E-1
8.843641674E0,-2.558381081E0,1.917449594E0,4.100312293E-1
8.853356101E0,-2.378792048E0,1.807497025E0,3.330644667E-1
8.863069747E0,-2.163620949E0,1.488634825E0,2.597627938E-1
8.872782507E0,-1.920503736E0,1.068371892E0,2.585411072E-1
8.882496153E0,-1.687160134E0,6.297835112E-1,3.477247953E-1
8.892210580E0,-1.495354056E0,2.449497581E-1,4.650074840E-1
8.901924174E0,-1.352415800E0,-5.925218388E-2,5.676298141E-1
8.911636986E0,-1.263232112E0,-2.877090573E-1,6.494833231E-1
8.921350632E0,-1.224137902E0,-4.453076422E-1,7.313368917E-1
8.931065059E0,-1.208255887E0,-5.564818382E-1,7.985301018E-1
8.940778653E0,-1.182600260E0,-5.894675851E-1,8.388460279E-1
8.950491465E0,-1.149614573E0,-5.186093450E-1,8.535063267E-1
8.960205111E0,-1.111742020E0,-4.233171642E-1,8.131904006E-1
8.969919538E0,-1.076312900E0,-3.451287150E-1,7.069029808E-1
8.979633132E0,-1.089751482E0,-1.411057115E-1,5.529694557E-1
8.989345945E0,-1.160609841E0,2.498365343E-1,3.953709006E-1
8.999059590E0,-1.204590797E0,6.505523324E-1,2.890834510E-1
9.008774018E0,-1.175270081E0,7.959339619E-1,2.267770469E-1
9.018487611E0,-1.077534556E0,5.833591223E-1,1.852394342E-1
9.028200424E0,-9.602518678E-1,1.863084137E-1,1.510319859E-1
9.037914070E0,-8.466343284E-1,-1.924168915E-1,1.412584335E-1
9.047628497E0,-7.366818190E-1,-4.233171642E-1,1.498102844E-1
9.057342090E0,-6.157340407E-1,-4.807367921E-1,1.546970755E-1
9.067054903E0,-4.679090083E-1,-4.037700295E-1,1.375933439E-1
9.076768549E0,-2.883199155E-1,-2.901524603E-1,9.605573118E-2
9.086482976E0,-8.185353130E-2,-2.205158621E-1,4.230117425E-2
9.096196570E0,1.429382563E-1,-2.363978922E-1,-1.511846948E-2
9.105909382E0,3.738385141E-1,-3.231382072E-1,-6.887302548E-2
9.115623028E0,6.022953987E-1,-4.172086716E-1,-1.055238619E-1
9.125337455E0,8.234221339E-1,-4.501944184E-1,-1.275143623E-1
9.135051101E0,1.025001645E0,-4.049917459E-1,-1.250709742E-1
9.144763861E0,1.202147365E0,-3.023693860E-1,-1.079672500E-1
9.154477559E0,1.367076159E0,-1.655396074E-1,-9.452861547E-2
9.164191934E0,1.529561520E0,-2.504473738E-2,-9.575030953E-2
9.173905580E0,1.685938478E0,8.857285231E-2,-1.165191159E-1
9.183618340E0,1.805664539E0,1.960819662E-1,-1.482831687E-1
9.193332038E0,1.855754018E0,3.805578351E-1,-1.910424829E-1
9.203046465E0,1.848423839E0,7.739434838E-1,-2.374668717E-1
9.212760059E0,1.797112584E0,1.377460599E0,-2.753393948E-1
9.222472872E0,1.706707239E0,1.945548534E0,-2.863346636E-1
9.232186518E0,1.563768983E0,2.164231777E0,-2.887780368E-1
9.241900945E0,1.326760292E0,1.941883445E0,-3.242071867E-1
9.251614590E0,1.017671585E0,1.510625243E0,-3.779617548E-1
9.261327351E0,7.024743557E-1,1.175881028E0,-4.085040987E-1
9.271041049E0,3.909422457E-1,8.936695457E-1,-4.500417113E-1
9.280755476E0,1.148392856E-1,4.697415531E-1,-4.879142344E-1
9.290469070E0,-1.160609797E-1,-5.070032179E-2,-4.634803534E-1
9.300181882E0,-3.188622594E-1,-4.709632397E-1,-3.425326049E-1
9.309895528E0,-4.288147688E-1,-7.201889157E-1,-1.214058921E-1
9.319609955E0,-3.982724249E-1,-9.119949341E-1,9.116895497E-2
9.329323601E0,-3.518480062E-1,-1.067150116E0,1.290414780E-1
9.339036361E0,-3.494046330E-1,-9.975135922E-1,-5.665608495E-2
9.348750059E0,-3.151971996E-1,-6.212316751E-1,-3.229855001E-1
9.358464486E0,-1.722589284E-1,-1.362189353E-1,-4.622586668E-1
9.368178080E0,1.954711229E-2,1.704263836E-1,-4.219427407E-1
9.377890893E0,1.905843467E-1,1.936385781E-1,-2.777827978E-1
9.387604590E0,4.031592011E-1,2.596100867E-1,-1.372879148E-1
9.397318965E0,6.707102656E-1,6.847597957E-1,-4.199574888E-2
9.407032611E0,8.979454637E-1,1.239409089E0,3.741439432E-2
9.416745424E0,1.017671585E0,1.681662560E0,1.290414780E-1
9.426459070E0,1.032331824E0,1.991972923E0,2.279987335E-1
9.436173497E0,9.736905098E-1,2.194774151E0,3.171824515E-1
9.445887143E0,8.845068216E-1,2.258302212E0,3.953709006E-1
9.455599903E0,8.124268651E-1,2.144684792E0,4.625640810E-1
9.465313601E0,7.733326554E-1,1.857586503E0,5.028799772E-1
9.475028028E0,7.782194018E-1,1.440988660E0,5.187620521E-1
9.484741674E0,8.234221339E-1,9.425373077E-1,5.199837089E-1
9.494454434E0,8.930587173E-1,4.025483429E-1,4.760027230E-1
9.504168132E0,9.920159578E-1,-9.712471068E-2,3.758237660E-1
9.513882559E0,1.133732557E0,-5.076140761E-1,2.402156889E-1
9.523596205E0,1.320651770E0,-8.533536196E-1,8.628217876E-2
9.533308965E0,1.524674773E0,-1.095249176E0,-6.398624927E-2
9.543022663E0,1.666391373E0,-1.076923728E0,-2.020377368E-1
9.552737090E0,1.650509238E0,-6.737645268E-1,-3.413109183E-1
9.562450684E0,1.452594757E0,1.893626526E-2,-4.610369802E-1
9.572163497E0,1.142284393E0,7.458444834E-1,-5.233433843E-1
9.581877195E0,7.977665067E-1,1.307824016E0,-4.952444136E-1
9.591591622E0,4.825693369E-1,1.558271408E0,-3.999522328E-1
9.601305215E0,2.247917950E-1,1.442210436E0,-2.997733057E-1
9.611018028E0,5.008947477E-2,1.089140654E0,-2.142546773E-1
9.620731726E0,-4.886778072E-3,6.077930331E-1,-1.458397806E-1
9.630446153E0,4.520269856E-2,8.735115826E-2,-1.030804738E-1
9.640159799E0,1.466033459E-1,-3.622324169E-1,-7.131642103E-2
9.649872559E0,2.565558553E-1,-6.578825116E-1,-4.810422286E-2
9.659586257E0,3.371876776E-1,-7.470661998E-1,-3.100049868E-2
9.669300684E0,3.872771561E-1,-6.591041684E-1,-1.511846948E-2
9.679014330E0,4.349232614E-1,-4.611896873E-1,-1.511846948E-2
9.688727090E0,5.070032477E-1,-2.058555335E-1,-3.222219273E-2
9.698440788E0,6.181774139E-1,8.368607610E-2,-6.642963737E-2
9.708155215E0,7.623373866E-1,4.013266563E-1,-1.067455560E-1
9.717868861E0,9.162709117E-1,7.421793938E-1,-1.433963925E-1
9.727581622E0,1.043327093E0,1.065928459E0,-1.751604527E-1
9.737295320E0,1.125180602E0,1.323706031E0,-2.069245130E-1
9.747009747E0,1.164274931E0,1.491078138E0,-2.374668717E-1
9.756723393E0,1.185043693E0,1.564379811E0,-2.716743052E-1
9.766436205E0,1.218029380E0,1.549719453E0,-3.058817685E-1
9.776149903E0,1.279114127E0,1.458092451E0,-3.413109183E-1
9.785864330E0,1.345085621E0,1.316375852E0,-3.718532622E-1
9.795577924E0,1.365854502E0,1.189319611E0,-3.718532622E-1
9.805290736E0,1.303548098E0,1.125791550E0,-3.193204105E-1
9.815004434E0,1.153279662E0,1.127013206E0,-2.264716178E-1
9.824718861E0,9.284878373E-1,1.161220670E0,-1.226275861E-1
9.834432507E0,6.694886088E-1,1.190541267E0,-3.710897267E-2
9.844145268E0,4.434750974E-1,1.189319611E0,1.908897609E-2
9.853858965E0,3.017585576E-1,1.173437595E0,5.451811850E-2
9.863573393E0,2.528907657E-1,1.194206357E0,9.361234307E-2
9.873287038E0,2.553341687E-1,1.245517612E0,1.375933439E-1
9.882999851E0,2.382304370E-1,1.283390045E0,1.656923145E-1
9.892713549E0,1.624853760E-1,1.282168388E0,1.803526580E-1
9.902427976E0,4.764608666E-2,1.232078910E0,1.876828223E-1
9.912141622E0,-5.864133686E-2,1.112352848E0,1.925695986E-1
9.921854382E0,-1.160609797E-1,9.290986657E-1,2.145601064E-1
9.931568080E0,-1.172826737E-1,7.116370797E-1,2.451024652E-1
9.941282507E0,-7.085828483E-2,4.856235683E-1,2.524326444E-1
9.950996153E0,-1.099525020E-2,2.828222811E-1,1.913478971E-1
9.960708965E0,2.199050039E-2,1.496575773E-1,4.718795046E-2
9.970422663E0,6.108472496E-2,1.105633527E-1,-1.543916464E-1
9.980137090E0,1.966928244E-1,1.423274130E-1,-3.962871730E-1
9.989850736E0,4.556920528E-1,2.058555335E-1,-6.650599241E-1
9.999563549E0,7.171346545E-1,3.109212518E-1,-9.142856598E-1
1.000927725E1,7.928797603E-1,5.283828974E-1,-1.027903199E0
1.001899167E1,6.365028620E-1,8.570187092E-1,-9.277243018E-1
1.002870532E1,2.626643181E-1,1.194206357E0,-6.784985662E-1
1.003841808E1,-2.846548259E-1,1.421441555E0,-4.048390090E-1
1.004813178E1,-9.358180165E-1,1.520398855E0,-1.324011385E-1
1.005784620E1,-1.596754789E0,1.564379811E0,1.498102844E-1
1.006755985E1,-2.167286158E0,1.587592006E0,4.149180055E-1
1.007727266E1,-2.581593275E0,1.610804200E0,6.299362183E-1
1.008698636E1,-2.833262205E0,1.645011663E0,7.618792653E-1
1.009670079E1,-2.945658207E0,1.704874754E0,8.070819378E-1
1.010641443E1,-2.955431700E0,1.756185889E0,7.667660117E-1
1.011612725E1,-2.890681982E0,1.772067904E0,6.726955175E-1
1.012584094E1,-2.750187159E0,1.746412277E0,5.664080977E-1
1.013555537E1,-2.532725334E0,1.710983157E0,4.821111858E-1
1.014526902E1,-2.269908428E0,1.692657709E0,4.417952895E-1
1.015498183E1,-1.988918662E0,1.726865172E0,4.442386627E-1
1.016469553E1,-1.714037418E0,1.785506487E0,4.894413650E-1
1.017440996E1,-1.490467310E0,1.776954651E0,5.578562617E-1
1.018412360E1,-1.338977218E0,1.636459827E0,6.116108298E-1
1.019383641E1,-1.233911514E0,1.302937150E0,6.531484127E-1
1.020355011E1,-1.175270081E0,8.912261724E-1,7.130114436E-1
1.021326454E1,-1.194817185E0,5.821374655E-1,7.875348330E-1
1.022297818E1,-1.246128440E0,3.280249834E-1,8.706100583E-1
1.023269100E1,-1.315765023E0,1.594311297E-1,9.390249252E-1
1.024240470E1,-1.360967636E0,3.726168349E-2,9.512419105E-1
1.025211912E1,-1.318208337E0,-1.068982705E-1,9.048175216E-1
1.026183277E1,-1.227802992E0,-1.655396074E-1,7.850914598E-1
1.027154558E1,-1.141062737E0,-8.246438205E-2,6.189410090E-1
1.028125928E1,-1.065317631E0,1.630962193E-1,4.784461260E-1
1.029097370E1,-1.006676316E0,4.550811946E-1,4.210264683E-1
1.030068735E1,-9.602518678E-1,6.248967648E-1,4.625640810E-1
1.031040016E1,-9.272661209E-1,6.566607952E-1,5.651864409E-1
1.032011386E1,-8.857285380E-1,6.248967648E-1,6.849125028E-1
1.032982829E1,-8.075400591E-1,6.077930331E-1,7.814263701E-1
1.033954193E1,-6.939224601E-1,6.029062271E-1,8.278507590E-1
1.034925475E1,-5.497625470E-1,5.980194807E-1,8.119687438E-1
1.035896844E1,-3.799470067E-1,5.870242119E-1,7.264500856E-1
1.036868287E1,-1.795890927E-1,5.577035546E-1,6.042806506E-1
1.037839652E1,5.741964281E-2,4.929537475E-1,4.918847680E-1
1.038810933E1,3.384093940E-1,4.062134326E-1,4.063661397E-1
1.039782303E1,6.499415040E-1,3.121429384E-1,3.403946459E-1
1.040753746E1,9.651386738E-1,2.461714447E-1,2.805316150E-1
1.041725110E1,1.246128440E0,2.388412803E-1,2.145601064E-1
1.042696391E1,1.478250384E0,3.072561622E-1,1.339282542E-1
1.043667761E1,1.659061193E0,4.269822240E-1,3.008422814E-2
1.044639204E1,1.794669271E0,5.577035546E-1,-9.330692142E-2
1.045610568E1,1.891183138E0,6.786513329E-1,-2.313583940E-1
1.046581850E1,1.944937706E0,8.069292307E-1,-3.645231128E-1
1.047553220E1,1.937607527E0,9.376505613E-1,-4.793623984E-1
1.048524662E1,1.850867152E0,1.043937922E0,-5.575508475E-1
1.049496027E1,1.699377060E0,1.113574505E0,-5.587725043E-1
1.050467308E1,1.519788027E0,1.173437595E0,-4.549284875E-1
1.051438678E1,1.287665963E0,1.360356808E0,-2.912214398E-1
1.052410121E1,9.712471366E-1,1.831930876E0,-1.763821393E-1
1.053381485E1,6.316160560E-1,2.451329947E0,-1.653869003E-1
1.054352766E1,3.652866483E-1,2.733541489E0,-2.081461996E-1
1.055324136E1,1.881409585E-1,2.393910408E0,-2.362451702E-1
1.056295579E1,4.886778072E-2,1.552162886E0,-2.276933193E-1
1.057266943E1,-6.963659078E-2,4.489727318E-1,-1.861557066E-1
1.058238225E1,-1.734806150E-1,-7.165238261E-1,-1.275143623E-1
1.059209594E1,-2.785463631E-1,-1.674332380E0,-5.909947306E-2
1.060181037E1,-3.848337829E-1,-2.112920761E0,3.985778242E-2
1.061152402E1,-4.471401870E-1,-1.954100370E0,1.718007922E-1
1.062123683E1,-4.129327536E-1,-1.476417780E0,2.793098986E-1
1.063095053E1,-3.542914093E-1,-9.523108602E-1,2.927485406E-1
1.064066496E1,-3.689517379E-1,-5.027272701E-1,1.143811494E-1
1.065037865E1,-3.921639323E-1,-4.092676565E-2,-1.519482583E-1
1.066009141E1,-2.651077211E-1,5.076140761E-1,-2.741177082E-1
1.066980511E1,3.176405653E-2,1.018282413E0,-2.044811249E-1
1.067951954E1,3.457395434E-1,1.254069448E0,-3.222219273E-2
1.068923324E1,5.619794726E-1,9.779664874E-1,3.008422814E-2
1.069894600E1,7.073611021E-1,6.224533319E-1,-5.543438718E-2
1.070865975E1,8.478559852E-1,7.079719901E-1,-1.421747059E-1
1.071837417E1,9.272661209E-1,1.068371892E0,-1.739387512E-1
1.072808782E1,9.016105533E-1,1.418998241E0,-1.666085869E-1
1.073780058E1,8.173136115E-1,1.680440784E0,-1.214058921E-1
1.074751428E1,7.330167294E-1,1.844147921E0,-4.566083103E-2
1.075722871E1,7.061394453E-1,1.860029936E0,5.451811850E-2
1.076694240E1,7.965448499E-1,1.624242902E0,1.779092699E-1
1.077665516E1,1.027445078E0,1.164885759E0,3.428380191E-1
1.078636891E1,1.257123709E0,7.605048418E-1,5.431959033E-1
1.079608334E1,1.359745979E0,5.515950918E-1,7.117897868E-1
1.080579699E1,1.358524323E0,4.343124032E-1,7.667660117E-1
1.081550975E1,1.321873426E0,2.999260128E-1,6.678087711E-1
1.082522344E1,1.308434844E0,1.264453828E-1,4.735593498E-1
1.083493792E1,1.346307397E0,-7.391251624E-2,3.013004065E-1
1.084465157E1,1.413500547E0,-2.119639963E-1,1.901262105E-1
1.085436433E1,1.450151443E0,-1.337755471E-1,8.628217876E-2
1.086407803E1,1.435491085E0,1.801999360E-1,-4.321744293E-2
1.087379246E1,1.370741248E0,6.823163629E-1,-1.531699449E-1
1.088350610E1,1.265675545E0,1.232078910E0,-2.166980654E-1
1.089321891E1,1.125180602E0,1.643790007E0,-2.325800955E-1
1.090293261E1,9.602518678E-1,1.823379040E0,-2.166980654E-1
1.091264704E1,7.879929543E-1,1.775732994E0,-1.812689304E-1
1.092236068E1,6.267293096E-1,1.531394124E0,-1.495048702E-1
1.093207350E1,4.911212027E-1,1.129456639E0,-1.201841980E-1
1.094178720E1,3.994941115E-1,6.126797795E-1,-8.231166750E-2
1.095150162E1,3.628432751E-1,4.581354558E-2,-2.611372061E-2
1.096121527E1,3.726168275E-1,-4.709632397E-1,3.863608837E-2
1.097092808E1,4.202629030E-1,-8.215895891E-1,9.727742523E-2
1.098064178E1,4.923428893E-1,-9.242119193E-1,1.314848661E-1
1.099035621E1,5.693096519E-1,-7.653915882E-1,1.290414780E-1
1.100006985E1,6.352811456E-1,-3.964398801E-1,9.483403713E-2
1.100978266E1,6.829272509E-1,1.032331884E-1,3.497100621E-2
1.101949636E1,7.085828185E-1,6.383354068E-1,-4.932591692E-2
1.102921079E1,7.207997441E-1,1.094027400E0,-1.372879148E-1
1.103892443E1,7.342383862E-1,1.399451017E0,-2.020377368E-1
1.104863725E1,7.452336550E-1,1.549719453E0,-2.350234836E-1
1.105835094E1,7.660024762E-1,1.550941229E0,-2.484621257E-1
1.106806537E1,8.112051487E-1,1.433658481E0,-2.496838123E-1
1.107777896E1,8.710681796E-1,1.250404358E0,-2.411319613E-1
1.108749178E1,9.272661209E-1,1.045159698E0,-2.325800955E-1
1.109720548E1,9.455915689E-1,8.570187092E-1,-2.191414535E-1
1.110691990E1,9.150491953E-1,7.128587365E-1,-2.057028115E-1
1.111663355E1,8.380824327E-1,6.297835112E-1,-1.885990947E-1
1.112634636E1,7.391251922E-1,6.090146899E-1,-1.678302884E-1
1.113606006E1,6.340594292E-1,6.358919740E-1,-1.458397806E-1
1.114577449E1,5.387672782E-1,6.859814525E-1,-1.250709742E-1
1.115548813E1,4.654656053E-1,7.275190949E-1,-1.104106456E-1
1.116520094E1,4.251496792E-1,7.653915882E-1,-1.018587798E-1
1.117491464E1,4.165978432E-1,8.179244995E-1,-1.006370857E-1
1.118462907E1,4.165978432E-1,9.009997249E-1,-9.697200358E-2
1.119434266E1,3.958290219E-1,1.012173891E0,-8.719844371E-2
1.120405548E1,3.445178568E-1,1.125791550E0,-7.131642103E-2
1.121376917E1,2.614426315E-1,1.213753462E0,-4.077405483E-2
1.122348360E1,1.466033459E-1,1.244295835E0,1.664558798E-2
1.123319725E1,6.108472589E-3,1.192984700E0,8.383878320E-2
1.124291006E1,-1.270562261E-1,1.062263370E0,1.498102844E-1
1.125262376E1,-2.211267054E-1,8.729007244E-1,2.121167034E-1
1.126233818E1,-2.455606014E-1,6.310052276E-1,2.573194206E-1
1.127205183E1,-1.844758689E-1,3.439069986E-1,2.548760176E-1
1.128176459E1,-6.963659078E-2,5.680879578E-2,1.779092699E-1
1.129147829E1,5.131116882E-2,-1.472141892E-1,4.107947648E-2
1.130119272E1,1.820324808E-1,-2.425063550E-1,-1.385096163E-1
1.131090636E1,3.701734245E-1,-2.583884001E-1,-3.620797098E-1
1.132061917E1,6.084038615E-1,-2.388412803E-1,-6.198572516E-1
1.133033287E1,8.295305967E-1,-1.960819662E-1,-8.666395545E-1
1.134004730E1,9.590302110E-1,-7.635590434E-2,-9.949174523E-1
1.134976089E1,9.431481957E-1,1.606528312E-1,-9.729269743E-1
1.135947371E1,7.024743557E-1,4.807367921E-1,-8.886300325E-1
1.136918740E1,1.673721522E-1,7.898254991E-1,-7.554653287E-1
1.137890183E1,-6.303943992E-1,1.006065488E0,-5.416688323E-1
1.138861548E1,-1.534448266E0,1.172215939E0,-2.484621257E-1
1.139832824E1,-2.339697599E0,1.364021897E0,7.162184268E-2
1.140804193E1,-2.935884714E0,1.554606318E0,3.477247953E-1
1.141775636E1,-3.315831661E0,1.695101142E0,5.395308137E-1
1.142747001E1,-3.513746262E0,1.772067904E0,6.629219651E-1
1.143718277E1,-3.567500591E0,1.770846248E0,7.227849960E-1
1.144689646E1,-3.512524366E0,1.691436052E0,7.496622801E-1
1.145661089E1,-3.362256050E0,1.557049632E0,7.643226385E-1
1.146632454E1,-3.143572807E0,1.437323570E0,7.740961909E-1
1.147603735E1,-2.874799967E0,1.437323570E0,7.814263701E-1
1.148575100E1,-2.570597887E0,1.574153423E0,7.643226385E-1
1.149546542E1,-2.256469727E0,1.800166845E0,7.252284288E-1
1.150517907E1,-1.944937706E0,2.035953999E0,6.922426820E-1
1.151489188E1,-1.661504507E0,2.191109180E0,7.032378912E-1
1.152460558E1,-1.417165637E0,2.137354612E0,7.704311013E-1
1.153432001E1,-1.181378603E0,1.612025857E0,8.718317747E-1
1.154403360E1,-1.055544019E0,7.116370797E-1,9.634588361E-1
1.155374641E1,-1.076312900E0,-5.125008225E-1,1.020878434E0
1.156346011E1,-1.236354828E0,-1.627907991E0,1.066081166E0
1.157317449E1,-1.477028728E0,-2.211877823E0,1.102732062E0
1.158288813E1,-1.694490314E0,-2.112920761E0,1.132052660E0
1.159260095E1,-1.809329629E0,-1.366465330E0,1.111283898E0
1.160231464E1,-1.806886196E0,-2.302894145E-1,9.903361201E-1
1.161202902E1,-1.681051612E0,8.496885300E-1,8.315158486E-1
1.162174266E1,-1.451373100E0,1.587592006E0,6.763606071E-1
1.163145548E1,-1.132510781E0,1.778176427E0,5.615213513E-1
1.164116912E1,-7.708892226E-1,1.432436824E0,5.089884996E-1
1.165088355E1,-4.569137394E-1,8.057075143E-1,5.016583204E-1
1.166059720E1,-2.516690791E-1,2.669402659E-1,5.480827093E-1
1.167031001E1,-1.624853760E-1,-2.015795931E-2,6.152759194E-1
1.168002365E1,-1.588202864E-1,-5.558710173E-2,6.262711287E-1
1.168973808E1,-1.832541823E-1,7.757759839E-2,5.554128885E-1
1.169945173E1,-1.893626451E-1,2.449497581E-1,4.344651103E-1
1.170916449E1,-1.368297935E-1,3.280249834E-1,3.061871827E-1
1.171887818E1,4.886778072E-3,3.023693860E-1,2.145601064E-1
1.172859261E1,2.455606014E-1,1.753131598E-1,1.681357026E-1
1.173830626E1,5.778614879E-1,-1.893626526E-2,1.485885978E-1
1.174801902E1,9.651386738E-1,-2.266243398E-1,1.217113137E-1
1.175773272E1,1.363411069E0,-3.805578351E-1,6.184828654E-2
1.176744714E1,1.739693046E0,-4.440859556E-1,-4.321744293E-2
1.177716074E1,2.069550514E0,-4.013266563E-1,-1.739387512E-1
1.178687355E1,2.328549862E0,-2.131856978E-1,-3.119902313E-1
1.179658725E1,2.478818178E0,1.288887709E-1,-4.463766217E-1
1.180630162E1,2.502030373E0,6.004628539E-1,-5.709894896E-1
1.181601527E1,2.373752356E0,1.120904684E0,-6.479562521E-1
1.182572808E1,2.067107201E0,1.598587275E0,-6.039752364E-1
1.183544173E1,1.611415029E0,1.956543803E0,-4.133908749E-1
1.184515615E1,1.099525094E0,2.089708567E0,-1.348445266E-1
1.185486980E1,6.218425035E-1,1.910119414E0,8.017370105E-2
1.186458256E1,2.394521236E-1,1.528950691E0,1.485885978E-1
1.187429626E1,1.710372418E-2,1.196649790E0,1.180462316E-1
1.188401063E1,-4.275930673E-2,9.657495022E-1,1.298050396E-2
1.189372428E1,7.330167107E-3,7.434011102E-1,-1.177408099E-1
1.190343709E1,9.773556143E-2,4.697415531E-1,-1.751604527E-1
1.191315074E1,1.624853760E-1,8.857285231E-2,-1.140757278E-1
1.192286516E1,1.575985998E-1,-3.610107303E-1,5.207473040E-2
1.193257881E1,1.099525094E-1,-7.605048418E-1,2.609844804E-1
1.194229157E1,7.818844914E-2,-1.014617324E0,3.489464819E-1
1.195200527E1,2.932066843E-2,-1.028055906E0,2.182251811E-1
1.196171964E1,-1.905843467E-1,-7.067502737E-1,-7.742489129E-2
1.197143329E1,-5.741963983E-1,-1.386623234E-1,-3.987305462E-1
1.198114605E1,-8.014315963E-1,3.536805511E-1,-6.100836992E-1
1.199085975E1,-5.778614879E-1,5.723638535E-1,-6.809419990E-1
1.200057417E1,-2.687728032E-2,4.685198367E-1,-6.491779089E-1
1.201028777E1,4.813476503E-1,1.911951900E-1,-5.599942207E-1
1.202000058E1,7.965448499E-1,1.349972486E-1,-4.292729199E-1
1.202971423E1,9.969027042E-1,4.514161348E-1,-3.022166789E-1
1.203942865E1,1.128845692E0,8.667922616E-1,-2.179197669E-1
1.204914230E1,1.211920977E0,1.200314879E0,-1.189625040E-1
1.205885506E1,1.275449038E0,1.500851750E0,6.306997687E-2
1.206856876E1,1.310878277E0,1.789171576E0,3.086305857E-1
1.207828313E1,1.312099934E0,1.969982386E0,5.578562617E-1
1.208799678E1,1.284000993E0,1.961430550E0,7.496622801E-1
1.209770954E1,1.244906664E0,1.802610278E0,8.962656260E-1
1.210742324E1,1.189930439E0,1.547276139E0,1.008661509E0
1.211713761E1,1.108076930E0,1.243074179E0,1.023321867E0
1.212685126E1,1.007897973E0,9.254335761E-1,9.109259844E-1
1.213656402E1,9.455915689E-1,5.784723759E-1,7.105680704E-1
1.214627772E1,9.834640622E-1,1.863084137E-1,4.992149174E-1
1.215599214E1,1.147171140E0,-2.901524603E-1,3.477247953E-1
1.216570574E1,1.430604339E0,-7.580614686E-1,2.719797492E-1
1.217541850E1,1.764126897E0,-1.004843712E0,2.316638231E-1
1.218513220E1,2.010909081E0,-8.435800672E-1,1.620272398E-1
1.219484662E1,2.036564827E0,-2.669402659E-1,4.352286831E-2
1.220456022E1,1.811772943E0,4.917320311E-1,-1.018587798E-1
1.221427298E1,1.422052383E0,1.128234863E0,-2.447970361E-1
1.222398667E1,1.006676316E0,1.513068676E0,-3.437542915E-1
1.223370110E1,6.768187881E-1,1.607139111E0,-3.877353072E-1
1.224341470E1,4.520269632E-1,1.425106645E0,-3.755183518E-1
1.225312746E1,3.286358118E-1,1.003622055E0,-3.278722763E-1
1.226284115E1,3.103103936E-1,4.465293586E-1,-2.582356930E-1
1.227255553E1,3.628432751E-1,-7.635590434E-2,-1.898207814E-1
1.228226917E1,4.214846194E-1,-4.440859556E-1,-1.385096163E-1
1.229198193E1,4.434750974E-1,-6.212316751E-1,-1.091889441E-1
1.230169563E1,4.239279926E-1,-6.163448691E-1,-9.452861547E-2
1.231141001E1,3.909422457E-1,-4.709632397E-1,-9.452861547E-2
1.232112365E1,3.933856487E-1,-2.412846684E-1,-1.067455560E-1
1.233083641E1,4.569137394E-1,4.703523964E-2,-1.299577504E-1
1.234055011E1,5.644228458E-1,3.646758199E-1,-1.690519750E-1
1.235026449E1,6.902574301E-1,6.786513329E-1,-2.081461996E-1
1.235997808E1,8.087617755E-1,9.290986657E-1,-2.313583940E-1
1.236969089E1,8.967237473E-1,1.086697221E0,-2.338017821E-1
1.237940454E1,9.529217482E-1,1.155112147E0,-2.289150059E-1
1.238911897E1,9.956810474E-1,1.142895222E0,-2.289150059E-1
1.239883256E1,1.050657272E0,1.069593549E0,-2.374668717E-1
1.240854532E1,1.123958945E0,9.596410394E-1,-2.545706034E-1
1.241825902E1,1.203369141E0,8.350282311E-1,-2.765611112E-1
1.242797339E1,1.253458619E0,7.385143638E-1,-2.875563502E-1
1.243768704E1,1.230246425E0,7.140804529E-1,-2.692309320E-1
1.244739980E1,1.108076930E0,7.715001106E-1,-2.105895877E-1
1.245711345E1,9.016105533E-1,8.692356348E-1,-1.275143623E-1
1.246682787E1,6.511631608E-1,9.523108602E-1,-3.833066672E-2
1.247654146E1,4.190412164E-1,9.767447710E-1,3.497100621E-2
1.248625428E1,2.406738251E-1,9.486457705E-1,8.139539510E-2
1.249596792E1,1.099525094E-1,8.985562921E-1,1.070509851E-1
1.250568235E1,1.099525020E-2,8.496885300E-1,1.339282542E-1
1.251539595E1,-7.330167294E-2,8.081509471E-1,1.742441803E-1
1.252510871E1,-1.698155403E-1,7.507312894E-1,2.170034945E-1
1.253482240E1,-2.748812735E-1,6.395570636E-1,2.304421216E-1
1.254453678E1,-3.591781855E-1,4.709632397E-1,2.157817930E-1
1.255425037E1,-4.056025743E-1,2.742704153E-1,1.986780763E-1
1.256396318E1,-4.068242610E-1,6.536065787E-2,1.840177327E-1
1.257367683E1,-3.542914093E-1,-1.447708011E-1,1.510319859E-1
1.258339121E1,-2.418955117E-1,-3.353551328E-1,6.551336497E-2
1.259310485E1,-9.773556143E-2,-4.746283293E-1,-7.131642103E-2
1.260281761E1,4.886778072E-2,-5.234960914E-1,-2.338017821E-1
1.261253126E1,2.040229887E-1,-4.465293586E-1,-3.987305462E-1
1.262224568E1,3.921639323E-1,-2.669402659E-1,-5.575508475E-1
1.263195928E1,6.145123243E-1,-6.291726977E-2,-6.992673874E-1
1.264167204E1,8.173136115E-1,1.117850468E-1,-8.043331504E-1
1.265138574E1,9.064973593E-1,2.693836391E-1,-8.532009125E-1
1.266110011E1,8.564078808E-1,4.220954478E-1,-8.788564801E-1
1.267081370E1,7.293516397E-1,5.161659122E-1,-9.118422270E-1
1.268052647E1,4.923428893E-1,4.709632397E-1,-8.800781965E-1
1.269024016E1,-1.221694518E-3,2.913741469E-1,-6.968240142E-1
1.269995454E1,-8.185353279E-1,1.557660550E-1,-3.510844707E-1
1.270966818E1,-1.803221107E0,2.864873707E-1,7.650861889E-2
1.271938095E1,-2.691545725E0,6.945333481E-1,4.674508572E-1
1.272909459E1,-3.317053318E0,1.175881028E0,7.313368917E-1
1.273880896E1,-3.662792921E0,1.583926916E0,8.632798791E-1
1.274852261E1,-3.776410580E0,1.890572309E0,8.901571631E-1
1.275823537E1,-3.727542639E0,2.082378387E0,8.754968047E-1
1.276794902E1,-3.565057278E0,2.172783613E0,8.693883419E-1
1.277766344E1,-3.326826811E0,2.161788464E0,8.767185211E-1
1.278737704E1,-3.034841776E0,2.035953999E0,8.742751479E-1
1.279708980E1,-2.691545725E0,1.842926145E0,8.412894011E-1
1.280680345E1,-2.305337667E0,1.645011663E0,8.131904006E-1
1.281651787E1,-1.915616989E0,1.426328301E0,7.924215794E-1
1.282623147E1,-1.580872655E0,1.229635477E0,7.826480269E-1
1.283594423E1,-1.320651770E0,1.008508801E0,8.131904006E-1
1.284565787E1,-1.088529825E0,6.273401380E-1,8.730534315E-1
1.285537230E1,-9.297095537E-1,1.911951900E-1,9.402466416E-1
1.286508589E1,-8.845068216E-1,-3.536805511E-1,9.781191945E-1
1.287479865E1,-9.785773158E-1,-9.437590241E-1,9.671239257E-1
1.288451230E1,-1.204590797E0,-1.392120957E0,9.133693576E-1
1.289422673E1,-1.468476772E0,-1.489856482E0,8.583931327E-1
1.290394032E1,-1.643179178E0,-1.246739268E0,8.009734750E-1
1.291365308E1,-1.703042150E0,-7.605048418E-1,6.775823236E-1
1.292336673E1,-1.670056462E0,-1.154501289E-1,5.212054253E-1
1.293308115E1,-1.562547326E0,4.953971207E-1,3.868190348E-1
1.294279475E1,-1.400061965E0,8.215895891E-1,2.732014358E-1
1.295250751E1,-1.213142633E0,7.934905887E-1,1.950129867E-1
1.296222115E1,-1.022558331E0,4.880669713E-1,1.498102844E-1
1.297193553E1,-8.454126120E-1,1.337755471E-1,1.278197914E-1
1.298164917E1,-7.061394453E-1,-1.447708011E-1,1.375933439E-1
1.299136193E1,-5.925218463E-1,-2.754921019E-1,1.339282542E-1
1.300107558E1,-4.935645759E-1,-3.341334462E-1,8.994726092E-2
1.301078996E1,-3.848337829E-1,-3.732276857E-1,1.175880991E-2
1.302050355E1,-2.382304370E-1,-4.062134326E-1,-7.498150319E-2
1.303021636E1,-4.275930673E-2,-4.343124032E-1,-1.495048702E-1
1.303993001E1,2.003578991E-1,-4.465293586E-1,-1.934858710E-1
1.304964438E1,4.874561131E-1,-4.453076422E-1,-2.081461996E-1
1.305935798E1,8.026533127E-1,-4.306473136E-1,-2.130329758E-1
1.306907074E1,1.117850542E0,-3.976615667E-1,-2.301367074E-1
1.307878438E1,1.400061965E0,-3.500154912E-1,-2.631224692E-1
1.308849881E1,1.640735745E0,-2.877090573E-1,-3.180987239E-1
1.309821240E1,1.826433301E0,-1.936385781E-1,-3.938437700E-1
1.310792516E1,1.925390601E0,-3.603998944E-2,-4.805840850E-1
1.311763881E1,1.911951900E0,1.887518018E-1,-5.709894896E-1
1.312735318E1,1.786117435E0,4.416425824E-1,-6.455128193E-1
1.313706678E1,1.590646267E0,6.725428104E-1,-6.552863717E-1
1.314677954E1,1.367076159E0,8.386932611E-1,-5.489989519E-1
1.315649324E1,1.116628766E0,9.144383669E-1,-3.413109183E-1
1.316620761E1,8.087617755E-1,8.325847983E-1,-1.543916464E-1
1.317592121E1,4.092676640E-1,6.395570636E-1,-1.067455560E-1
1.318563397E1,-1.710372418E-2,4.721849263E-1,-1.531699449E-1
1.319534761E1,-3.603998721E-1,3.720059693E-1,-2.032594234E-1
1.320506204E1,-5.473191738E-1,2.754921019E-1,-2.081461996E-1
1.321477563E1,-5.729747415E-1,5.497625098E-3,-1.592784226E-1
1.322448839E1,-4.837910235E-1,-5.234960914E-1,-8.353336155E-2
1.323420204E1,-3.787252903E-1,-1.149003744E0,1.786728203E-2
1.324391641E1,-3.029802442E-1,-1.577818513E0,1.827960461E-1
1.325363001E1,-1.991362125E-1,-1.709761500E0,3.269560039E-1
1.326334277E1,-7.207997888E-2,-1.590035439E0,2.719797492E-1
1.327305641E1,-4.398100078E-2,-1.170994163E0,-3.222219273E-2
1.328277079E1,-1.893626451E-1,-4.098785222E-1,-4.133908749E-1
1.329248443E1,-3.542914093E-1,4.795151055E-1,-6.479562521E-1
1.330219714E1,-3.408527672E-1,1.009730577E0,-6.394043565E-1
1.331191084E1,-1.111742035E-1,7.800519466E-1,-3.987305462E-1
1.332162522E1,1.966928244E-1,1.832541777E-3,-8.964183182E-2
1.333133881E1,4.935645759E-1,-4.037700295E-1,1.400367320E-1
1.334105157E1,8.099834919E-1,8.857285231E-2,2.304421216E-1
1.335076522E1,1.088529825E0,9.510892034E-1,1.937913001E-1
1.336047959E1,1.246128440E0,1.541167617E0,1.107160673E-1
1.337019318E1,1.305991411E0,1.774511337E0,7.773031294E-2
1.337990594E1,1.319430113E0,1.838039398E0,1.290414780E-1
1.338961959E1,1.310878277E0,1.849034667E0,2.487675399E-1
1.339933402E1,1.294996142E0,1.802610278E0,4.088095427E-1
1.340904761E1,1.299883008E0,1.663337111E0,5.737382770E-1
1.341876037E1,1.302326322E0,1.401894450E0,7.044596076E-1
1.342847402E1,1.259567022E0,1.067150116E0,7.521057129E-1
1.343818839E1,1.178935170E0,7.360709310E-1,7.117897868E-1
1.344790199E1,1.095860004E0,4.257605374E-1,5.993938446E-1
1.345761475E1,1.066539288E0,1.349972486E-1,4.564556181E-1
1.346732839E1,1.114185452E0,-1.765348613E-1,3.367295563E-1
1.347704277E1,1.237576604E0,-4.697415531E-1,2.780882120E-1
1.348675636E1,1.389066696E0,-6.456655264E-1,2.499892414E-1
1.349646912E1,1.462368369E0,-5.992411375E-1,1.583621502E-1
1.350618277E1,1.398840189E0,-3.390202224E-1,-2.122694254E-2
1.351589714E1,1.229024649E0,-3.726168349E-2,-2.509055138E-1
1.352561074E1,1.037218690E0,1.753131598E-1,-4.537068009E-1
1.353532350E1,8.686248064E-1,2.351761907E-1,-5.685460567E-1
1.354503714E1,7.379034758E-1,1.252236813E-1,-5.697677732E-1
1.355475152E1,6.487197876E-1,-8.490777016E-2,-4.830274582E-1
1.356446511E1,5.998520255E-1,-3.231382072E-1,-3.804051280E-1
1.357417787E1,5.754181147E-1,-5.564818382E-1,-3.168770075E-1
1.358389152E1,5.607577562E-1,-7.311841846E-1,-2.875563502E-1
1.359360589E1,5.351021886E-1,-8.203678727E-1,-2.704526186E-1
1.360331954E1,4.960079789E-1,-8.118160367E-1,-2.472404242E-1
1.361303225E1,4.459185004E-1,-6.969767213E-1,-2.008160353E-1
1.362274589E1,3.921639323E-1,-5.173876286E-1,-1.495048702E-1
1.363246032E1,3.555130959E-1,-3.243598938E-1,-1.262926757E-1
1.364217391E1,3.616215885E-1,-1.728697717E-1,-1.433963925E-1
1.365188662E1,4.324798584E-1,-6.902574003E-2,-1.739387512E-1
1.366160027E1,5.570927262E-1,2.382304333E-2,-1.971509457E-1
1.367131464E1,7.024743557E-1,1.154501289E-1,-2.154763639E-1
1.368102829E1,8.319739699E-1,2.046338320E-1,-2.289150059E-1
1.369074100E1,9.187142849E-1,2.889307439E-1,-2.350234836E-1
1.370045464E1,9.675820470E-1,3.597890437E-1,-2.399102598E-1
1.371016902E1,9.981244206E-1,4.001049399E-1,-2.447970361E-1
1.371988261E1,1.028666735E0,4.049917459E-1,-2.570139766E-1
1.372959537E1,1.067761064E0,3.695625961E-1,-2.838912606E-1
1.373930902E1,1.120293856E0,3.158080280E-1,-3.254288733E-1
1.374902339E1,1.167939901E0,2.767138183E-1,-3.608580232E-1
1.375873699E1,1.165496588E0,2.828222811E-1,-3.657447994E-1
1.376844975E1,1.067761064E0,3.475720882E-1,-3.303156495E-1
1.377816339E1,8.637380004E-1,4.428642690E-1,-2.545706034E-1
1.378787777E1,5.827482939E-1,5.479300022E-1,-1.605001241E-1
1.379759136E1,2.870981991E-1,6.248967648E-1,-7.742489129E-2
1.380730412E1,4.886778072E-2,6.407787800E-1,-3.833066672E-2
1.381701777E1,-9.773556143E-2,6.224533319E-1,-3.344388679E-2
1.382673214E1,-1.637070626E-1,6.016845703E-1,-2.367033064E-2
1.383644574E1,-1.966928244E-1,5.882459283E-1,6.872031838E-3
1.384615850E1,-2.321219593E-1,5.748072863E-1,5.818320066E-2
1.385587214E1,-2.968717813E-1,5.515950918E-1,1.278197914E-1
1.386558652E1,-3.860554695E-1,4.929537475E-1,1.889045089E-1
1.387530011E1,-4.630222321E-1,3.854446113E-1,2.353289127E-1
1.388501282E1,-4.898995161E-1,2.241809368E-1,2.683146596E-1
1.389472647E1,-4.508052766E-1,1.893626526E-2,2.780882120E-1
1.390444084E1,-3.420744538E-1,-2.046338320E-1,2.389939874E-1
1.391415443E1,-1.820324808E-1,-3.988832533E-1,1.363716573E-1
1.392386720E1,-6.108472589E-3,-5.002838969E-1,-5.344913341E-3
1.393358084E1,1.624853760E-1,-4.856235683E-1,-1.495048702E-1
1.394329522E1,3.335226178E-1,-3.976615667E-1,-2.838912606E-1
1.395300881E1,5.143333673E-1,-2.877090573E-1,-3.975088596E-1
1.396272157E1,6.682668924E-1,-1.985253543E-1,-5.037962794E-1
1.397243522E1,7.488987446E-1,-1.521009654E-1,-5.978667736E-1
1.398214959E1,7.000309825E-1,-1.142284349E-1,-6.320741773E-1
1.399186318E1,4.789042473E-1,-4.581354558E-2,-5.587725043E-1
1.400157589E1,5.497625470E-2,7.269082218E-2,-3.828485310E-1
1.401128954E1,-5.253286362E-1,2.070772201E-1,-1.714953631E-1
1.402100391E1,-1.147171140E0,2.962609231E-1,6.872031838E-3
1.403071751E1,-1.682273388E0,3.292466700E-1,1.204896197E-1
1.404043027E1,-2.084210873E0,3.634541333E-1,2.047865391E-1
1.405014391E1,-2.367796659E0,4.233171642E-1,2.829749882E-1
1.405985829E1,-2.564489603E0,5.002838969E-1,3.477247953E-1
1.406957188E1,-2.692767382E0,5.650337338E-1,3.965925872E-1
1.407928459E1,-2.768512487E0,6.187883019E-1,4.246915579E-1
1.408899824E1,-2.788059711E0,6.786513329E-1,4.527905285E-1
1.409871261E1,-2.746521950E0,7.702783942E-1,4.943281412E-1
1.410842620E1,-2.639012814E0,9.156600237E-1,5.627430081E-1
1.411813897E1,-2.477749109E0,1.108687758E0,6.360446811E-1
1.412785261E1,-2.307780981E0,1.306602240E0,6.629219651E-1
1.413756699E1,-2.148960590E0,1.464200854E0,6.201626658E-1
1.414728058E1,-1.996248841E0,1.524063945E0,5.395308137E-1
1.415699329E1,-1.853310585E0,1.434880257E0,4.808894992E-1
1.416670693E1,-1.716480851E0,1.207645059E0,4.821111858E-1
1.417642131E1,-1.591867924E0,8.557969928E-1,5.431959033E-1
1.418613490E1,-1.440377831E0,2.009687424E-1,6.482616663E-1
1.419584761E1,-1.240019917E0,-7.495095730E-1,7.582141757E-1
1.420556126E1,-1.145949483E0,-1.470309377E0,8.437327743E-1
1.421527563E1,-1.160609841E0,-1.977312565E0,8.620582223E-1
1.422498923E1,-1.235133171E0,-2.152014971E0,7.911999226E-1
1.423470199E1,-1.349972486E0,-1.809940457E0,6.494833231E-1
1.424441563E1,-1.426939249E0,-1.052489877E0,4.344651103E-1
1.425413001E1,-1.402505279E0,-1.264453828E-1,2.157817930E-1
1.426384355E1,-1.258345366E0,6.664343476E-1,5.085303262E-2
1.427355631E1,-1.028666735E0,1.108687758E0,-3.955236077E-2
1.428326996E1,-7.623373866E-1,1.151447058E0,-7.864658535E-2
1.429298433E1,-5.008947253E-1,8.606837988E-1,-9.452861547E-2
1.430269792E1,-2.858765125E-1,3.903313875E-1,-9.208522737E-2
1.431241063E1,-1.575985998E-1,6.719320081E-3,-4.566083103E-2
1.432212428E1,-6.719319522E-2,-2.816005945E-1,-2.122694254E-2
1.433183865E1,2.565558441E-2,-5.955760479E-1,-7.131642103E-2
1.434155225E1,1.001789495E-1,-7.898254991E-1,-1.507265568E-1
1.435126496E1,1.759240031E-1,-8.142594099E-1,-2.411319613E-1
1.436097860E1,2.858765125E-1,-7.153021693E-1,-3.376458287E-1
1.437069298E1,4.398100376E-1,-5.577035546E-1,-4.243861437E-1
1.438040657E1,6.340594292E-1,-4.001049399E-1,-4.976878166E-1
1.439011928E1,8.527427912E-1,-2.901524603E-1,-5.563291311E-1
1.439983292E1,1.082421303E0,-2.241809368E-1,-5.990884304E-1
1.440954730E1,1.308434844E0,-1.997470558E-1,-6.320741773E-1
1.441926089E1,1.516122937E0,-2.351761907E-1,-6.613948941E-1
1.442897365E1,1.693268657E0,-3.316900730E-1,-6.894938350E-1
1.443868725E1,1.815438032E0,-4.440859556E-1,-7.090409398E-1
1.444840162E1,1.842315316E0,-4.660764635E-1,-7.090409398E-1
1.445811522E1,1.753131628E0,-2.877090573E-1,-6.760551929E-1
1.446782798E1,1.579650998E0,1.020114943E-1,-5.819846988E-1
1.447754157E1,1.365854502E0,5.699204803E-1,-4.133908749E-1
1.448725595E1,1.120293856E0,9.193251133E-1,-2.521272004E-1
1.449696954E1,8.075400591E-1,1.015838981E0,-2.118112892E-1
1.450668230E1,4.288147688E-1,8.887827396E-1,-2.899997234E-1
1.451639589E1,7.818844914E-2,6.468872428E-1,-3.816268146E-1
1.452611027E1,-1.612636745E-1,3.732276857E-1,-4.292729199E-1
1.453582386E1,-2.895416021E-1,5.436540768E-2,-4.158342779E-1
1.454553662E1,-3.347443044E-1,-3.622324169E-1,-3.645231128E-1
1.455525022E1,-3.359659910E-1,-8.484668136E-1,-3.046600819E-1
1.456496459E1,-3.151971996E-1,-1.274838209E0,-2.521272004E-1
1.457467818E1,-2.895416021E-1,-1.537502527E0,-1.690519750E-1
1.458439089E1,-2.638860047E-1,-1.590035439E0,-3.955236077E-2
1.459410454E1,-2.443388999E-1,-1.366465330E0,9.361234307E-2
1.460381891E1,-2.687727809E-1,-9.107732773E-1,1.571404636E-1
1.461353251E1,-3.921639323E-1,-4.501944184E-1,8.628217876E-2
1.462324522E1,-5.632011890E-1,-2.620534599E-1,-1.006370857E-1
1.463295886E1,-6.255075932E-1,-3.329117596E-1,-2.692309320E-1
1.464267324E1,-4.960079789E-1,-4.294256270E-1,-3.266505599E-1
1.465238678E1,-2.309002578E-1,-4.318690002E-1,-2.814478874E-1
1.466209954E1,7.574506104E-2,-3.353551328E-1,-1.788255423E-1
1.467181318E1,3.665083647E-1,-1.850867122E-1,-9.208522737E-2
1.468152756E1,6.267293096E-1,1.404948719E-2,-5.421269313E-2
1.469124110E1,8.283088803E-1,2.767138183E-1,-5.344913341E-3
1.470095386E1,9.468132257E-1,5.833591223E-1,9.849911928E-2
1.471066746E1,9.920159578E-1,8.460234404E-1,2.304421216E-1
1.472038183E1,9.797990322E-1,9.608627558E-1,3.452814221E-1
1.473009542E1,9.431481957E-1,9.083298445E-1,4.149180055E-1
1.473980818E1,9.199360013E-1,7.678350210E-1,4.747810364E-1
1.474952178E1,9.199360013E-1,6.077930331E-1,5.627430081E-1
1.475923615E1,9.284878373E-1,3.695625961E-1,6.690304875E-1
1.476894975E1,9.321529269E-1,5.803048983E-2,7.386670709E-1
1.477866246E1,9.211576581E-1,-2.376195788E-1,7.069029808E-1
1.478837610E1,9.187142849E-1,-5.149442554E-1,5.651864409E-1
1.479809048E1,9.810206890E-1,-8.582404256E-1,3.843756318E-1
1.480780402E1,1.156944752E0,-1.288276911E0,2.341072112E-1
1.481751678E1,1.428160906E0,-1.642568231E0,1.107160673E-1
1.482723037E1,1.668834686E0,-1.729308605E0,-3.588727489E-2
1.483694475E1,1.753131628E0,-1.450762272E0,-2.350234836E-1
1.484665834E1,1.629740477E0,-8.350282311E-1,-4.366030693E-1
1.485637105E1,1.334090471E0,-8.124268800E-2,-5.648810267E-1
1.486608470E1,9.578084946E-1,5.845808387E-1,-5.990884304E-1
1.487579907E1,5.815265775E-1,1.006065488E0,-5.685460567E-1
1.488551261E1,2.614426315E-1,1.128234863E0,-5.074613690E-1
1.489522537E1,2.321219631E-2,1.001178622E0,-4.268295169E-1
1.490493902E1,-1.136175916E-1,7.177455425E-1,-3.339807391E-1
1.491465334E1,-1.539335102E-1,3.365768492E-1,-2.447970361E-1
1.492436693E1,-1.233911440E-1,-7.879929990E-2,-1.751604527E-1
1.493407964E1,-5.741964281E-2,-4.538595080E-1,-1.324011385E-1
1.494379329E1,7.330167107E-3,-7.385143638E-1,-1.116323397E-1
1.495350766E1,5.497625470E-2,-9.046648145E-1,-1.006370857E-1
1.496322121E1,9.773556143E-2,-9.559759498E-1,-8.719844371E-2
1.497293397E1,1.637070626E-1,-9.083298445E-1,-7.498150319E-2
1.498264756E1,2.736595869E-1,-7.727217674E-1,-6.642963737E-2
1.499236193E1,4.263713956E-1,-5.833591223E-1,-7.742489129E-2
1.500207553E1,5.937435627E-1,-3.842229247E-1,-1.079672500E-1
1.501178824E1,7.501204610E-1,-1.838650256E-1,-1.482831687E-1
1.502150188E1,8.906152844E-1,-6.108472589E-4,-1.971509457E-1
1.503121626E1,1.022558331E0,1.496575773E-1,-2.484621257E-1
1.504092980E1,1.165496588E0,2.559449971E-1,-3.034383655E-1
1.505064256E1,1.327981949E0,3.194731176E-1,-3.571929336E-1
1.506035615E1,1.495354056E0,3.585673273E-1,-4.060607255E-1
