"Time (s)","Acceleration x (m/s^2)","Acceleration y (m/s^2)","Acceleration z (m/s^2)"
5.624709500E-2,1.108175993E0,-1.311864972E0,-5.448457241E0
6.596167900E-2,1.510170221E0,-1.479362607E0,-5.967699528E0
7.567542900E-2,1.507777333E0,-1.577468276E0,-5.213661671E0
8.538845000E-2,1.098604679E0,-1.577468276E0,-3.908974886E0
9.510230400E-2,7.178468108E-1,-1.522433400E0,-2.031805515E0
1.048169390E-1,5.024927258E-1,-1.498505235E0,-1.136590727E-2
1.145306890E-1,2.629113793E-1,-1.292722464E0,1.695613980E0
1.242437100E-1,5.712864175E-2,-1.024427176E0,3.132204771E0
1.339575640E-1,-7.447660714E-2,-7.683951855E-1,4.200001717E0
1.436721470E-1,-4.360919297E-1,-4.426721931E-1,4.721936226E0
1.533858970E-1,-6.924230456E-1,-1.339980662E-1,4.420141697E0
1.630989180E-1,-8.407780528E-1,2.946162820E-1,2.799303293E0
1.728127720E-1,-1.204487085E0,8.452646136E-1,1.585244983E-1
1.825273560E-1,-2.418545485E0,1.264307618E0,-3.722035646E0
1.922411060E-1,-5.190929413E0,1.791027784E0,-1.032263660E1
2.019541270E-1,-7.785945892E0,6.251249313E-1,-1.703330803E1
2.116679810E-1,-6.785147667E0,-4.486243248E0,-1.648266029E1
2.213826160E-1,-5.803791523E0,-1.122084236E1,-1.049282646E1
2.310963660E-1,-5.094917774E0,-1.847976875E1,-3.466003656E0
2.408093870E-1,-3.687339783E0,-2.218595314E1,2.983550787E0
2.505232410E-1,-2.100000858E0,-2.457757950E1,2.698804855E0
2.602378250E-1,-3.092723191E-1,-2.740739059E1,-8.706583977E0
2.699515750E-1,5.234299600E-2,-2.593999290E1,-1.467039585E1
2.796645950E-1,-2.035394669E0,-2.340928268E1,-6.734001160E0
2.893784500E-1,-3.287439108E0,-2.503012085E1,3.430709541E-1
2.990930850E-1,-2.260320187E0,-2.514258385E1,1.578365684E0
3.088068350E-1,-1.147059321E0,-2.399343109E1,-5.371587753E0
3.185198560E-1,-2.332104683E0,-2.362942314E1,-1.019820976E1
3.282337100E-1,-6.442974091E0,-2.358395958E1,-7.521538734E0
3.379482930E-1,-1.033579731E1,-2.300220490E1,-2.776571512E0
3.476620430E-1,-1.205474091E1,-2.160419655E1,-2.285743713E0
3.573750640E-1,-1.067318535E1,-2.058425713E1,-5.587240696E0
3.670889180E-1,-8.535198212E0,-1.990200233E1,-8.553443909E0
3.768035540E-1,-6.495615959E0,-1.974407768E1,-9.302696228E0
3.865173040E-1,-4.829314232E0,-2.012692833E1,-8.677870750E0
3.962303250E-1,-3.184547901E0,-2.043829536E1,-7.768298626E0
4.059441790E-1,-1.398604870E0,-2.038565254E1,-6.889534473E0
4.156587620E-1,-2.518445849E-1,-1.961217308E1,-6.381957054E0
4.253725120E-1,4.450650215E-1,-1.819980812E1,-5.826523304E0
4.350855330E-1,8.685946465E-1,-1.630110359E1,-4.893023014E0
4.447993870E-1,9.475577474E-1,-1.434287834E1,-3.638286829E0
4.545140220E-1,4.755735025E-2,-1.252104282E1,-2.137388945E0
4.642277720E-1,-1.300499082E0,-1.046201897E1,-1.632204175E0
4.739407930E-1,-2.767897606E0,-8.137392044E0,-2.565704107E0
4.836546470E-1,-3.280260801E0,-6.313163280E0,-3.343969584E0
4.933692310E-1,-3.000300407E0,-4.536492825E0,-3.166601658E0
5.030830850E-1,-2.514258385E0,-2.788834810E0,-2.577668190E0
5.127960020E-1,-1.802991867E0,-9.622138143E-1,-2.137388945E0
5.225099080E-1,-8.934201598E-1,7.710871100E-1,-1.529312730E0
5.322244910E-1,8.823533356E-2,2.291426897E0,-8.635098934E-1
5.419382410E-1,8.374879360E-1,3.179463148E0,-3.945166469E-1
5.516512620E-1,9.403793216E-1,3.141177893E0,2.213360928E-2
5.613651160E-1,5.455635786E-1,3.823431492E0,-6.580262445E-3
5.710797520E-1,1.001994461E-1,4.225724697E0,-1.038485050E0
5.807935020E-1,-2.997010350E-1,3.641577005E0,-1.672882080E0
5.905065220E-1,-9.077770710E-1,2.231606245E0,-1.404586911E0
6.002203770E-1,-1.456032634E0,4.597210586E-1,-1.088734269E0
6.099349600E-1,-4.121637046E-1,-6.583253145E-1,-1.308874011E0
6.196488140E-1,2.318046987E-1,-1.448255897E0,-1.845165372E0
6.293617830E-1,3.945166469E-1,-1.907976985E0,-2.355135679E0
6.390756370E-1,6.245267391E-1,-2.199901342E0,-2.532204628E0
6.487902200E-1,1.010070205E0,-2.276471615E0,-2.410170555E0
6.585039700E-1,1.261316657E0,-2.135295153E0,-1.725524187E0
6.682169910E-1,1.199103236E0,-1.869691849E0,-7.151548862E-1
6.779308450E-1,1.175175071E0,-1.579861164E0,4.339981973E-1
6.876454810E-1,1.043569803E0,-1.307079315E0,1.554437399E0
6.973592310E-1,7.992027402E-1,-1.074676514E0,1.738684773E0
7.070722520E-1,1.163210869E0,-9.813563824E-1,8.841479421E-1
7.167861060E-1,1.524527073E0,-1.065105200E0,-2.099701911E-1
7.265007410E-1,1.965105653E0,-1.230509043E0,-1.244267821E0
7.362144910E-1,2.051247120E0,-1.508076429E0,-2.087139606E0
7.459275120E-1,1.565504193E0,-2.025225163E0,-3.722035646E0
7.556413660E-1,9.786644578E-1,-2.528017044E0,-4.098007679E0
7.653560020E-1,-1.472782373E0,-3.064308405E0,-3.451646566E0
7.750697520E-1,-5.808577061E0,-3.377768278E0,-3.784548044E0
7.847827720E-1,-8.722137451E0,-5.817550182E0,-4.483551502E0
7.944966270E-1,-8.963812828E0,-9.684052467E0,-2.853141785E0
8.042112620E-1,-9.392427444E0,-1.360558987E1,-4.447659016E0
8.139250120E-1,-7.759624958E0,-1.774248123E1,-8.210970879E0
8.236380330E-1,-4.080061913E0,-2.263370895E1,-3.475574970E0
8.333518870E-1,2.717050076E0,-2.678974342E1,-1.323230863E0
8.430665220E-1,8.278268814E0,-2.985913658E1,1.690828323E0
8.527802720E-1,5.735895157E0,-2.873151970E1,8.961120844E-1
8.624932930E-1,-5.294120312E-1,-2.559991264E1,-2.953640461E0
8.722071470E-1,-7.216155052E0,-2.384746933E1,-2.192423820E0
8.819217830E-1,-9.742077827E0,-2.350978088E1,-3.686143398E0
8.916355330E-1,-8.470592499E0,-2.418485641E1,-5.790630817E0
9.013485540E-1,-6.979265213E0,-2.527658272E1,-5.517848969E0
9.110624080E-1,-6.122036934E0,-2.612184715E1,-5.122734070E0
9.207770430E-1,-5.784648895E0,-2.579133797E1,-5.139483929E0
9.304907930E-1,-5.894718647E0,-2.513061905E1,-5.170590401E0
9.402038140E-1,-5.406283855E0,-2.395275307E1,-6.111567974E0
9.499177200E-1,-5.068596363E0,-2.233670044E1,-6.434599400E0
9.596323040E-1,-4.623531342E0,-2.067039871E1,-5.211268425E0
9.693460540E-1,-3.644268990E0,-1.871456528E1,-4.600799561E0
9.790590750E-1,-2.636292458E0,-1.690439415E1,-3.724428415E0
9.887729810E-1,-1.829612017E0,-1.515195084E1,-2.355135679E0
9.984875640E-1,-1.357926846E0,-1.333729458E1,-1.416550994E0
1.008201418E0,-1.025025368E0,-1.169252777E1,-7.606185079E-1
1.017914387E0,-7.426723242E-1,-9.789336205E0,-3.080759048E-1
1.027628241E0,-4.480560422E-1,-7.828418255E0,-3.969094455E-1
1.037342877E0,-1.031904742E-1,-5.994618893E0,-6.888338327E-1
1.047056627E0,1.719841212E-1,-4.062713623E0,-1.751845241E0
1.056769647E0,4.486542661E-3,-2.197508574E0,-2.438884497E0
1.066483502E0,-4.528416991E-1,-2.751746178E-1,-2.525026083E0
1.076198137E0,-8.335995674E-1,1.867598057E0,-2.829213619E0
1.085911887E0,-6.059823632E-1,3.926621914E0,-2.601596355E0
1.095624908E0,-3.834498227E-1,5.377270699E0,-1.768594980E0
1.105338814E0,-5.437689424E-1,5.413163185E0,-5.907281041E-1
1.115053397E0,-1.360319614E0,4.450949192E0,1.657029688E-1
1.124767252E0,-2.327319145E0,3.258426189E0,-6.580262445E-3
1.134480220E0,-2.219642162E0,1.951346874E0,-1.021735311E0
1.144194075E0,-1.422533035E0,3.687937856E-1,-1.668096542E0
1.153908710E0,-1.250249892E-1,-1.321436286E0,-2.259422779E0
1.163622460E0,1.340279818E0,-2.729014158E0,-2.570489645E0
1.173335481E0,2.331506491E0,-3.629313707E0,-2.371885538E0
1.183049387E0,2.786442041E0,-3.940380573E0,-2.050948143E0
1.192763970E0,2.927618504E0,-3.751347780E0,-1.735095501E0
1.202477825E0,2.700300455E0,-3.205485106E0,-1.423729420E0
1.212190793E0,2.259721994E0,-2.681157827E0,-1.184447169E0
1.221904647E0,1.692323804E0,-2.274078846E0,-9.137591720E-1
1.231619283E0,1.376172066E0,-2.022832394E0,-7.342974544E-1
1.241333033E0,1.203888893E0,-1.790728688E0,-6.696912646E-1
1.251046106E0,1.144068360E0,-1.728216171E0,-8.228318691E-1
1.260759960E0,4.304089844E-1,-1.541576028E0,-1.127019525E0
1.270474595E0,-6.370890141E-1,-1.093819022E0,-1.320838094E0
1.280188345E0,-1.403390527E0,-4.953143001E-1,-1.160519004E0
1.289901366E0,-2.224427700E0,1.534397453E-1,-8.898309469E-1
1.299615272E0,-2.660220623E0,4.863412082E-1,2.928216755E-1
1.309329856E0,-3.038585663E0,2.491526604E-1,2.760719061E-1
1.319043710E0,-3.876372576E0,-7.396813035E-1,-4.615156651E-1
1.328756679E0,-4.321736813E0,-2.030010939E0,-2.558525562E0
1.338470533E0,-3.854837179E0,-4.354638100E0,-4.976771832E0
1.348185168E0,-4.159024715E0,-7.373782158E0,-8.699405670E0
1.357899022E0,-6.402296066E0,-1.185523987E1,-1.362652683E1
1.367611991E0,-6.397510529E0,-1.943271065E1,-1.542443371E1
1.377325845E0,-3.988835335E0,-2.769243622E1,-9.482457161E0
1.387040481E0,3.945166469E-1,-3.376153183E1,-4.634299278E0
1.396754231E0,1.792822361E0,-3.435046387E1,-4.488337040E0
1.406467304E0,3.514458239E-1,-3.083570671E1,-6.769893646E0
1.416181158E0,-1.228415370E0,-2.642812729E1,-6.233602047E0
1.425895793E0,-2.834896564E0,-2.308116722E1,-5.642275810E0
1.435609543E0,-3.754338741E0,-2.048375893E1,-5.625525951E0
1.445322616E0,-4.934598446E0,-1.974646950E1,-4.143471718E0
1.455036470E0,-7.177869797E0,-1.954277992E1,-3.224328518E0
1.464751106E0,-9.143573761E0,-1.954038811E1,-2.038984060E0
1.474464856E0,-9.691828728E0,-1.939681816E1,-2.113460541E0
1.484177929E0,-8.825029373E0,-1.916710663E1,-2.618346214E0
1.493891783E0,-7.180262566E0,-1.884856224E1,-3.284149170E0
1.503606418E0,-6.914659023E0,-1.834816360E1,-4.229613304E0
1.513320168E0,-6.797111988E0,-1.793151474E1,-5.496313572E0
1.523033189E0,-5.801398277E0,-1.748884201E1,-6.245566368E0
1.532747095E0,-4.690530777E0,-1.719661903E1,-5.556134224E0
1.542461731E0,-3.582055569E0,-1.698844337E1,-4.514657974E0
1.552175481E0,-1.946860313E0,-1.662682724E1,-3.477967739E0
1.561888554E0,-3.188436031E-1,-1.566192150E1,-3.011068106E0
1.571602408E0,3.586242795E-1,-1.462044525E1,-3.171387196E0
1.581317043E0,2.174477577E-1,-1.331575871E1,-3.288934708E0
1.591030793E0,-4.384847581E-1,-1.156810093E1,-3.468396425E0
1.600743866E0,-7.235297561E-1,-9.499505997E0,-3.619144201E0
1.610457720E0,-1.381855130E0,-7.189235687E0,-3.856332779E0
1.620172356E0,-1.539781332E0,-4.776073933E0,-3.997509241E0
1.629886106E0,-1.692921996E0,-2.266900301E0,-4.607978344E0
1.639599179E0,-1.594816327E0,4.597210586E-1,-6.042176247E0
1.649313033E0,-1.079761237E-1,3.378366470E0,-6.008676529E0
1.659027668E0,1.587039590E0,5.415555954E0,-3.695714474E0
1.668741418E0,1.438385487E0,4.716552734E0,-5.500500798E-1
1.678454491E0,-2.015953064E-1,2.782254457E0,1.863111496E0
1.688168345E0,-1.118345499E0,2.806182861E0,2.782553673E0
1.697882981E0,-2.806182861E0,1.003190875E0,1.214357495E0
1.707596731E0,-1.851147413E0,-1.674975902E-1,-1.732702732E0
1.717309804E0,-3.858426511E-1,-1.007677436E0,-4.117150307E0
1.727023658E0,1.122532964E0,-1.759322882E0,-4.531407833E0
1.736738293E0,1.926820397E0,-2.020439625E0,-3.226721287E0
1.746452147E0,2.039283037E0,-2.001296997E0,-1.883450508E0
1.756165116E0,2.156830549E0,-2.008475542E0,-9.547362328E-1
1.765879022E0,2.432005167E0,-1.989332914E0,-4.974080026E-1
1.775593606E0,2.388934374E0,-1.788335800E0,-4.758726060E-1
1.785307460E0,2.063211441E0,-1.532004714E0,-3.343969584E-1
1.795020429E0,1.773679733E0,-1.290329576E0,3.502494097E-1
1.804734335E0,1.086640596E0,-9.095717072E-1,8.434699774E-1
1.814448918E0,5.168496966E-1,-4.833501875E-1,5.512465239E-1
1.824162772E0,2.772683203E-1,-2.841476910E-2,-1.357926875E-1
1.833875741E0,-3.116651475E-1,3.711866140E-1,-8.036893010E-1
1.843589647E0,-1.099202871E0,5.437689424E-1,-1.088734269E0
1.853304283E0,-2.272284269E0,6.251249313E-1,-1.701596022E0
1.863018033E0,-3.134298563E0,2.587239444E-1,-2.831606388E0
1.872731106E0,-3.553341627E0,-8.066803217E-1,-3.858725548E0
1.882444960E0,-4.752744198E0,-2.394019127E0,-5.287838936E0
1.892159595E0,-4.690530777E0,-4.728217602E0,-6.994818687E0
1.901873450E0,-2.595614433E0,-8.757431984E0,-4.612763882E0
1.911586418E0,-1.688136339E0,-1.308844090E1,-1.426122308E0
1.921300272E0,-2.279462576E0,-1.662682724E1,-2.038984060E0
1.931014908E0,-1.870290041E0,-2.009103584E1,-6.712465763E0
1.940728762E0,-1.848754644E0,-2.296391869E1,-1.029153061E1
1.950441731E0,-1.350748420E0,-2.550419998E1,-6.200102806E0
1.960155637E0,-1.199402362E-1,-2.713221550E1,-3.198007345E0
1.969870220E0,7.298108935E-1,-2.687349129E1,-1.782951951E0
1.979584075E0,8.135597110E-1,-2.515933418E1,-4.344767570E0
1.989297043E0,-4.528416991E-1,-2.380200577E1,-5.644668579E0
1.999010950E0,-3.208476067E0,-2.259303093E1,-5.330909729E0
2.008725585E0,-6.636792660E0,-2.204238319E1,-4.758726120E0
2.018439335E0,-9.174679756E0,-2.154198456E1,-3.801297903E0
2.028152356E0,-9.430712700E0,-2.115165520E1,-3.904189348E0
2.037866262E0,-7.867301941E0,-2.084537315E1,-4.287040710E0
2.047580897E0,-5.566602707E0,-2.073261261E1,-5.029414177E0
2.057294647E0,-3.948157310E0,-2.070629120E1,-5.065306664E0
2.067007720E0,-2.629113913E0,-2.065364838E1,-5.816951752E0
2.076721575E0,-1.628315806E0,-2.062493515E1,-6.130710602E0
2.086436210E0,-1.144666553E0,-2.052443695E1,-5.838487148E0
2.096150064E0,-1.075274706E0,-2.006471443E1,-5.218447208E0
2.105863033E0,-1.331605792E0,-1.898016739E1,-4.222434521E0
2.115576939E0,-1.922932148E0,-1.733779526E1,-3.485146284E0
2.125291522E0,-2.298605204E0,-1.547528172E1,-2.903391123E0
2.135005377E0,-2.406581402E0,-1.351436329E1,-2.393420935E0
2.144718345E0,-2.375474691E0,-1.159920788E1,-2.355135679E0
2.154432252E0,-1.970788598E0,-9.487542152E0,-2.587239504E0
2.164146887E0,-1.613958836E0,-7.376174927E0,-2.379063845E0
2.173860637E0,-1.417747378E0,-5.436792374E0,-1.560419440E0
2.183573710E0,-1.137488008E0,-3.526422262E0,-1.239482164E0
2.193287564E0,-1.034596682E0,-1.486541033E0,-1.687239051E0
2.203002200E0,-1.283749342E0,6.777670383E-1,-2.479562521E0
2.212715950E0,-1.808076620E0,2.880360365E0,-3.320041418E0
2.222429022E0,-2.119143486E0,4.489234447E0,-3.109174013E0
2.232142877E0,-1.235593796E0,4.692624092E0,-2.288136721E0
2.241857512E0,-2.279163599E-1,3.823431492E0,-1.715952992E0
2.251571366E0,-2.327020019E-1,2.621636391E0,-2.017448664E0
2.261284335E0,-7.211369276E-1,1.515554070E0,-2.664108992E0
2.270998241E0,-7.833502889E-1,6.394818425E-1,-3.075674295E0
2.280712825E0,-3.571287692E-1,-3.493520916E-1,-3.080460072E0
2.290426679E0,4.546363056E-1,-1.295115232E0,-2.340778828E0
2.300139647E0,1.268495083E0,-1.807478428E0,-1.318445325E0
2.309853554E0,1.850250125E0,-2.183151484E0,-4.471587241E-1
2.319568189E0,2.202294111E0,-2.334198475E0,-4.247260094E-2
2.329281939E0,2.372184515E0,-2.338984251E0,-8.315058798E-2
2.338995012E0,2.635395050E0,-2.199901342E0,-1.645065546E-1
2.348708866E0,2.853441000E0,-2.025225163E0,-2.745763958E-1
2.358423502E0,2.599502802E0,-1.658824325E0,-2.889333367E-1
2.368137356E0,1.809572101E0,-1.390828133E0,-1.166501045E-1
2.377850325E0,9.044869542E-1,-1.199103236E0,4.366901144E-2
2.387564231E0,2.796611488E-1,-8.018946648E-1,1.561316848E-1
2.397278814E0,-4.049852192E-1,-2.273181528E-1,1.226321608E-1
2.406992668E0,-1.393819213E0,3.161516786E-1,-2.267199457E-1
2.416705637E0,-2.631506681E0,6.394818425E-1,-2.626122832E-1
2.426419543E0,-3.438187122E0,6.275177598E-1,-1.057627559E0
2.436134179E0,-3.787838221E0,3.735794425E-1,-3.894618034E0
2.445847929E0,-4.477270126E0,-7.372884750E-1,-5.563312531E0
2.455561002E0,-4.939383984E0,-2.559123755E0,-6.346064568E0
2.465274856E0,-4.182952881E0,-6.301199436E0,-6.118746758E0
2.474989491E0,-3.153441191E0,-1.068455124E1,-7.033103943E0
2.484703241E0,-3.488436222E0,-1.543221092E1,-7.569395542E0
2.494416314E0,-3.313760281E0,-2.075893211E1,-6.985247612E0
2.504130168E0,-1.776670814E0,-2.662224579E1,-7.504789352E0
2.513844804E0,-6.107679605E-1,-2.953102112E1,-7.095317364E0
2.523558658E0,6.149554253E-1,-2.974637413E1,-5.414658546E0
2.533271627E0,-2.374876440E-1,-2.799153900E1,-5.675775528E0
2.542985533E0,-1.058524966E0,-2.504447746E1,-6.200102806E0
2.552700116E0,-2.183749676E0,-2.287299156E1,-2.893819809E0
2.562413970E0,-3.371187925E0,-2.105833435E1,-2.951247692E0
2.572126939E0,-4.517948151E0,-2.011257172E1,-3.667000771E0
2.581840845E0,-6.057430744E0,-1.941356850E1,-2.877070189E0
2.591555481E0,-8.097311974E0,-1.867388725E1,-2.958425999E0
2.601269231E0,-9.531210899E0,-1.841276932E1,-2.783750057E0
2.610982304E0,-9.122037888E0,-1.860449600E1,-3.291327477E0
2.620696158E0,-7.876873016E0,-1.841276932E1,-4.349553585E0
2.630410793E0,-6.751648426E0,-1.804906082E1,-5.970092297E0
2.640124647E0,-6.040680885E0,-1.746940041E1,-7.004390240E0
2.649837616E0,-5.403890610E0,-1.740958023E1,-7.162615299E0
2.659551522E0,-4.077668667E0,-1.713201141E1,-6.408277988E0
2.669266106E0,-2.344068766E0,-1.672493362E1,-5.465207100E0
2.678979960E0,-6.849454641E-1,-1.620060539E1,-4.820939541E0
2.688692929E0,7.465606928E-1,-1.597089481E1,-4.102793694E0
2.698406835E0,8.063812256E-1,-1.587996769E1,-2.647359133E0
2.708121470E0,4.112663865E-1,-1.563560009E1,-1.625025630E0
2.717835220E0,-1.561316848E-1,-1.471885014E1,-1.715952992E0
2.727548293E0,-1.250249863E0,-1.276271820E1,-2.144567251E0
2.737262147E0,-1.793420553E0,-1.056012440E1,-2.606382132E0
2.746976783E0,-1.503889084E0,-8.194819450E0,-2.910569668E0
2.756690533E0,-1.082453132E0,-5.784050465E0,-3.070888758E0
2.766403606E0,-5.270192027E-1,-3.413660526E0,-2.776571512E0
2.776117460E0,1.456630826E-1,-1.045962572E0,-2.328814745E0
2.785832095E0,9.906286001E-1,1.427019596E0,-1.548455358E0
2.795545950E0,1.749751568E0,3.823431492E0,-3.631108403E-1
2.805258918E0,1.402493119E0,3.655933857E0,9.200403094E-1
2.814972825E0,2.006980032E-1,2.671885490E0,2.260619164E0
2.824687408E0,-1.250249892E-1,4.826622486E0,1.923231244E0
2.834401262E0,-1.735992789E0,4.342973232E0,9.631111473E-2
2.844114231E0,-3.285046339E0,2.858824968E0,-1.342373490E0
2.853828137E0,-3.005086184E0,1.419841170E0,-2.553740025E0
2.863542772E0,-2.346461773E0,8.644071966E-2,-3.267399311E0
2.873256522E0,-1.417747378E0,-8.832506537E-1,-3.078067303E0
2.882969595E0,-6.801598072E-1,-1.115354419E0,-2.345564365E0
2.892683450E0,-2.901297510E-1,-1.081854939E0,-1.658525229E0
2.902398085E0,-1.007976532E-1,-1.141675472E0,-7.438687682E-1
2.912111835E0,2.940180898E-1,-1.254437327E0,4.627120793E-1
2.921824908E0,7.657032609E-1,-1.381256819E0,1.327119231E0
2.931538762E0,1.120140076E0,-1.460219979E0,1.530509233E0
2.941253397E0,1.594218135E0,-1.510469317E0,9.894321561E-1
2.950967147E0,2.056032896E0,-1.711466432E0,-6.266204119E-1
2.960680220E0,2.166401863E0,-2.065903187E0,-2.501097918E0
2.970394127E0,1.689931035E0,-2.413161755E0,-3.367897987E0
2.980108710E0,7.848458290E-1,-2.571087837E0,-3.566502094E0
2.989822564E0,-3.260220885E-1,-2.542374134E0,-3.468396425E0
2.999535533E0,-9.484550953E-1,-2.300399780E0,-3.109174013E0
3.009249439E0,-1.115952611E0,-1.872084618E0,-3.255435228E0
3.018964022E0,-2.324926376E0,-1.467398524E0,-2.402992249E0
3.028677877E0,-2.928216696E0,-3.734597921E0,-1.024128079E0
3.038390845E0,-3.196511984E0,-7.574779034E0,1.207179070E0
3.048104752E0,-3.507878065E0,-1.205175018E1,3.433700562E0
3.057819387E0,-3.040978432E0,-1.705783463E1,3.326023579E0
3.067533137E0,-1.621137381E0,-2.400778770E1,-8.850452900E-1
3.077246210E0,3.614657640E0,-2.964826965E1,-9.525527954E0
3.086960064E0,1.172363472E1,-3.490589905E1,-2.450280380E1
3.096674700E0,1.189591789E1,-3.924378586E1,-2.270728874E1
3.106388450E0,3.684049606E0,-3.601676559E1,-3.461217880E0
3.116101522E0,-5.643173218E0,-3.283730316E1,1.257936764E1
3.125815377E0,-1.072343445E1,-2.855415154E1,1.303161144E1
3.135530012E0,-1.048415279E1,-2.272942162E1,4.094418526E0
3.145243762E0,-8.532805443E0,-1.920299911E1,-2.101496458E0
3.154956835E0,-8.607281685E0,-1.707697678E1,1.518545032E0
3.164670689E0,-1.107547855E1,-1.448166180E1,4.341178417E0
3.174385325E0,-1.412543011E1,-1.082363415E1,1.109073281E0
3.184099179E0,-1.580608940E1,-1.402672672E1,-2.752643347E0
3.193812147E0,-1.699143410E1,-1.524078465E1,-7.768298626E0
3.203526054E0,-1.051765156E1,-1.480977726E1,-8.692227364E0
3.213240637E0,-3.976871252E0,-1.759412575E1,-4.414159775E0
3.222954491E0,1.364207983E0,-1.899691772E1,-1.888236165E0
3.232667460E0,5.546862125E0,-1.980389786E1,3.167499006E-1
3.242381366E0,7.902595997E0,-2.027049828E1,1.278963685E0
3.252096002E0,8.048558235E0,-1.902802467E1,7.115656137E-1
3.261809752E0,5.376672268E0,-1.598046589E1,1.561316848E-1
3.271522772E0,1.591825247E0,-1.192732334E1,9.391828626E-2
3.281236679E0,-1.489532143E-1,-8.300103188E0,-4.040879309E-1
3.290951262E0,-9.556335211E-1,-4.883750916E0,-1.447657704E0
3.300665116E0,-1.523031592E0,-1.608574986E0,-2.603989124E0
3.310378085E0,-1.685743570E0,1.407876968E0,-3.410968781E0
3.320091991E0,-2.030609131E0,3.948157310E0,-3.688536167E0
3.329806627E0,-2.614757061E0,5.008776188E0,-3.863511324E0
3.339520377E0,-2.519043922E0,4.965405941E0,-4.452444553E0
3.349233450E0,-7.378866673E-1,3.770789385E0,-4.859224796E0
3.358947304E0,1.187139153E0,2.035095692E0,-4.404588223E0
3.368661939E0,2.283650160E0,3.568296731E-1,-3.003889799E0
3.378375689E0,2.592324257E0,-1.163210869E0,-8.898309469E-1
3.388088762E0,2.209472656E0,-2.214258194E0,7.426723242E-1
3.397802616E0,1.773679733E0,-2.520838737E0,1.370190024E0
3.407517252E0,1.797608018E0,-2.327019930E0,1.235892892E0
3.417231002E0,2.017747641E0,-1.924726725E0,7.860422134E-1
3.426944075E0,2.207079887E0,-1.515254974E0,5.153541565E-1
3.436657929E0,1.900499344E0,-1.017248750E0,5.416752100E-1
3.446372564E0,1.357029557E0,-6.077769399E-1,5.847460628E-1
3.456086314E0,8.303094506E-1,-3.924229145E-1,6.421737671E-1
3.465799387E0,2.700898647E-1,-1.914258152E-1,7.908278704E-1
3.475513241E0,-3.403790295E-1,4.336991161E-2,6.828517914E-1
3.485227877E0,-7.713862062E-1,2.084746659E-1,2.784647346E-1
3.494941627E0,-9.077770710E-1,8.644071966E-2,1.256231871E-2
3.504654700E0,-6.972087026E-1,-1.579262912E-1,-1.310070455E-1
3.514368554E0,-2.159522474E-1,-2.751746178E-1,-1.716850251E-1
3.524083189E0,2.078764737E-1,-3.780659735E-1,-3.511467278E-1
3.533796939E0,2.841476910E-2,-5.312066078E-1,-1.239482164E0
3.543510012E0,-1.276570916E0,-6.269195080E-1,-3.875475407E0
3.553223866E0,-4.056133270E0,-1.206580877E0,-4.497908592E0
3.562938502E0,-7.620841026E0,-1.721037745E0,-7.342077255E0
3.572652252E0,-9.828220367E0,-3.921238184E0,-8.345268250E0
3.582365325E0,-8.353343964E0,-8.790931702E0,-6.496812344E0
3.592079179E0,-6.763612270E0,-1.415863037E1,-5.723631859E0
3.601793814E0,-2.461616278E0,-2.049811554E1,-6.317350864E0
3.611507564E0,2.807977438E0,-2.780968475E1,-9.039485931E0
3.621220637E0,4.878666401E0,-3.102264595E1,-6.796214581E0
3.630934491E0,3.614657640E0,-2.992613602E1,-2.652144909E0
3.640649127E0,8.303094506E-1,-2.804657364E1,-9.595218897E-1
3.650362877E0,-4.193421602E-1,-2.456082916E1,-4.596014023E0
3.660075950E0,-1.477568030E0,-2.215245247E1,-4.955236435E0
3.669789804E0,-2.348854542E0,-2.117079735E1,-4.643870354E0
3.679504439E0,-5.037489891E0,-2.114686966E1,-4.957629204E0
3.689218189E0,-8.468199730E0,-2.194397736E1,-4.316053867E0
3.698931262E0,-1.103719330E1,-2.272942162E1,-2.510669231E0
3.708645116E0,-1.153280735E1,-2.276531410E1,-2.374278307E0
3.718359752E0,-9.665508270E0,-2.213331032E1,-2.924926519E0
3.728073502E0,-7.283154011E0,-2.112772751E1,-4.344767570E0
3.737786575E0,-5.822933674E0,-1.986371803E1,-6.925426960E0
3.747500429E0,-5.604887962E0,-1.895384789E1,-7.253542900E0
3.757215064E0,-5.652744293E0,-1.872174263E1,-6.552146435E0
3.766928814E0,-5.312963486E0,-1.853480339E1,-5.999105453E0
3.776641835E0,-4.223630905E0,-1.804666901E1,-5.249553680E0
3.786355741E0,-2.739183664E0,-1.693340683E1,-4.416552544E0
3.796070377E0,-1.221236825E0,-1.567867088E1,-3.241078377E0
3.805784127E0,5.473581702E-2,-1.438355637E1,-1.950449586E0
3.815497147E0,1.349851131E0,-1.301665592E1,-1.318445325E0
3.825211054E0,2.412862539E0,-1.161117172E1,-1.225125194E0
3.834925689E0,2.666501760E0,-1.002144051E1,-1.553241014E0
3.844639439E0,1.957927108E0,-8.001000404E0,-2.388635159E0
3.854352460E0,7.298108935E-1,-5.546862125E0,-2.965604544E0
3.864066366E0,-3.379862010E-2,-3.136093140E0,-3.188436270E0
3.873780950E0,-3.619144261E-1,-8.808578253E-1,-3.733999729E0
3.883494804E0,-1.848455518E-1,1.743171334E0,-4.548157692E0
3.893207772E0,-7.091727853E-1,4.553840637E0,-5.378766060E0
3.902921679E0,-2.440080881E0,4.596911430E0,-4.071686745E0
3.912636262E0,-2.080858469E0,4.352544308E0,-1.253839016E0
3.922350116E0,-9.604191780E-1,4.223331928E0,2.401795685E-1
3.932063085E0,-5.748756528E-1,2.442174673E0,2.904288471E-1
3.941776991E0,-1.305284739E0,5.174478889E-1,1.776670814E-1
3.951491575E0,-2.542374134E-1,-5.814558864E-1,-1.442872047E0
3.961205429E0,9.595218897E-1,-1.560718536E0,-3.068495989E0
3.970918397E0,1.910070658E0,-2.434697151E0,-3.908974886E0
3.980632304E0,2.803191662E0,-3.004487991E0,-3.928117514E0
3.990346887E0,3.064009428E0,-2.920739174E0,-3.212364435E0
4.000060741E0,2.611466885E0,-2.458625317E0,-2.213959217E0
4.009773710E0,2.034497499E0,-2.001296997E0,-1.232303619E0
4.019487564E0,1.275673628E0,-1.565504193E0,-4.543372095E-1
4.029202200E0,7.345965505E-1,-1.206580877E0,2.665006220E-1
4.038916054E0,8.255237937E-1,-1.139282703E0,1.125823021E0
4.048629022E0,1.206281662E0,-9.669994712E-1,1.971087694E0
4.058342877E0,1.625324726E0,-6.870391965E-1,2.435594320E0
4.068057512E0,1.474277854E0,-3.110669553E-1,2.073979139E0
4.077771366E0,3.729812205E-1,3.185445070E-1,1.068395257E0
4.087484335E0,-9.269196987E-1,9.529415965E-1,-4.591228366E-1
4.097198189E0,-2.478366137E0,1.357627749E0,-1.680060625E0
4.106912825E0,-3.342474222E0,1.075274706E0,-3.837190151E0
4.116626679E0,-4.115953922E0,2.422732860E-2,-5.369194984E0
4.126339647E0,-5.169095039E0,-1.884048700E0,-6.580860615E0
4.136053502E0,-5.444568634E0,-4.507778645E0,-5.625525951E0
4.145768137E0,-5.521139145E0,-8.867501259E0,-2.515454769E0
4.155481887E0,-5.439783096E0,-1.323440266E1,-7.055835724E-1
4.165194960E0,-5.133202553E0,-1.668664742E1,2.054836512E0
4.174908814E0,-4.965705395E0,-2.125454712E1,7.621139884E-1
4.184623450E0,-3.117548704E0,-2.517847633E1,-1.201525974E1
4.194337200E0,2.101496458E0,-2.593999290E1,-1.021735287E1
4.204050272E0,3.270091295E0,-2.541805840E1,-2.146960020E0
4.213764127E0,1.354636669E0,-2.772593498E1,-3.442075491E0
4.223478762E0,9.619147182E-1,-2.766372108E1,-5.266303539E0
4.233192512E0,-3.212364316E-1,-2.821676254E1,-6.085247040E0
4.242905585E0,-1.448854089E0,-2.917897606E1,-4.696512699E0
4.252619439E0,-2.466402054E0,-2.924836922E1,-2.963211775E0
4.262334075E0,-3.728017569E0,-2.839383125E1,-2.652144909E0
4.272047825E0,-6.222535133E0,-2.587269402E1,-3.719642878E0
4.281760897E0,-8.118846893E0,-2.344996071E1,-4.023830414E0
4.291474752E0,-8.346165657E0,-2.131436729E1,-3.839582920E0
4.301189387E0,-7.561020374E0,-1.939921188E1,-4.414159775E0
4.310903137E0,-6.766005039E0,-1.775205231E1,-5.376373291E0
4.320616210E0,-6.050251961E0,-1.635883141E1,-5.295017242E0
4.330330064E0,-4.972883701E0,-1.518305779E1,-4.306482315E0
4.340044700E0,-3.610769272E0,-1.469013596E1,-3.523431301E0
4.349758450E0,-1.925324917E0,-1.449123287E1,-2.697608471E0
4.359471522E0,-3.116651475E-1,-1.404586887E1,-1.713560104E0
4.369185377E0,7.872386575E-1,-1.315783215E1,-1.265803218E0
4.378900012E0,8.374879360E-1,-1.176431274E1,-1.081555843E0
4.388613762E0,1.767697781E-1,-9.863513947E0,-1.110269666E0
4.398326835E0,-2.494517565E-1,-7.754240990E0,-1.617847204E0
4.408040689E0,-4.911268353E-1,-5.755336761E0,-2.185245275E0
4.417755325E0,-5.485545993E-1,-3.832703590E0,-2.407777786E0
4.427469075E0,-4.049852192E-1,-1.821835399E0,-2.424527645E0
4.437182147E0,-1.920240223E-1,2.443670183E-1,-2.221137524E0
4.446896002E0,1.884347759E-2,2.121237278E0,-1.584347725E0
4.456610637E0,4.486542661E-3,3.414258718E0,-6.888338327E-1
4.466324387E0,-2.087737769E-1,4.098905087E0,-1.262213886E-1
4.476037460E0,-9.005986452E-1,4.333401680E0,-1.477568001E-1
4.485751314E0,-2.025823355E0,3.600898981E0,-6.050850153E-1
4.495465950E0,-1.815255046E0,2.475674152E0,-1.830808401E0
4.505179700E0,-1.130309582E0,1.099202871E0,-3.085245609E0
4.514892720E0,-2.925225794E-1,-1.986042857E-1,-3.343969584E0
4.524606627E0,2.341975123E-1,-1.235294700E0,-2.745464802E0
4.534321262E0,9.475577474E-1,-1.912762642E0,-1.924128532E0
4.544035012E0,1.819143414E0,-2.214258194E0,-1.277767301E0
4.553748085E0,2.573181629E0,-2.298007011E0,-9.690931439E-1
4.563461939E0,3.001796007E0,-2.197508574E0,-6.098706722E-1
4.573176575E0,3.253341436E0,-1.974975944E0,-9.032905847E-2
4.582890325E0,2.819941521E0,-1.658824325E0,1.226321608E-1
4.592603397E0,1.929213285E0,-1.395613790E0,-5.922235921E-2
4.602317252E0,1.084247708E0,-1.230509043E0,-3.607180119E-1
4.612031887E0,4.378865361E-1,-1.218544960E0,-7.941179872E-1
4.621745637E0,-7.926224917E-2,-1.323829174E0,-1.076770186E0
4.631458710E0,-5.557330847E-1,-1.342971683E0,-1.172483087E0
4.641172564E0,-1.063310504E0,-1.235294700E0,-1.344766378E0
4.650887200E0,-1.400997639E0,-8.688937426E-1,-1.366301775E0
4.660600950E0,-1.726421595E0,-3.804588020E-1,-3.372683525E0
4.670314022E0,-2.954836845E0,-3.326023519E-1,-4.174578190E0
4.680027877E0,-4.704887390E0,-1.091426253E0,-3.712464333E0
4.689742512E0,-5.614459038E0,-3.310769320E0,-3.030210733E0
4.699456262E0,-4.848456860E0,-7.038487911E0,-1.885843396E0
4.709169335E0,-4.982454777E0,-1.145803165E1,-1.555633783E0
4.718883189E0,-5.669494152E0,-1.587518215E1,-2.963211775E0
4.728597825E0,-5.130809784E0,-2.041436577E1,-3.928117514E0
4.738311575E0,-3.119941711E0,-2.441965294E1,-8.622835159E0
4.748024647E0,7.082754970E-1,-2.565255356E1,-5.235197067E0
4.757738502E0,2.015354872E0,-2.645205688E1,1.200000525E0
4.767453137E0,1.433599830E0,-2.475225449E1,2.497508675E-1
4.777166887E0,9.140582681E-1,-2.296152687E1,-5.189733028E0
4.786879960E0,-4.719842672E-1,-2.248744774E1,-6.420242310E0
4.796593814E0,-2.514258385E0,-2.337817574E1,-5.359623432E0
4.806308450E0,-4.111168385E0,-2.488655281E1,-4.385445595E0
4.816022200E0,-6.533901215E0,-2.547787857E1,-4.368695736E0
4.825735272E0,-8.504091263E0,-2.514019203E1,-4.998307228E0
4.835449127E0,-8.377271652E0,-2.447229385E1,-5.532206059E0
4.845163762E0,-6.627221584E0,-2.364377975E1,-3.853940010E0
4.854877512E0,-5.198108196E0,-2.239891434E1,-2.910569668E0
4.864590585E0,-4.671388149E0,-2.079003906E1,-4.212863445E0
4.874304439E0,-4.987240791E0,-1.914048767E1,-5.292624474E0
4.884019075E0,-5.241178989E0,-1.789562225E1,-4.811367989E0
4.893732929E0,-5.011168957E0,-1.676561165E1,-3.753441334E0
4.903445897E0,-4.434199333E0,-1.563799286E1,-2.731107950E0
4.913159752E0,-3.426223040E0,-1.444816208E1,-2.314457655E0
4.922874387E0,-2.743969440E0,-1.305254841E1,-2.010270119E0
4.932588137E0,-2.241177559E0,-1.171884918E1,-1.593919039E0
4.942301210E0,-1.628315806E0,-1.046201897E1,-1.115055323E0
4.952015064E0,-1.087238789E0,-9.123832703E0,-9.329017401E-1
4.961729700E0,-5.270192027E-1,-7.560422421E0,-1.217946768E0
4.971443450E0,8.105687052E-2,-6.030511379E0,-1.737488389E0
4.981156522E0,5.766702294E-1,-4.431208611E0,-2.149353027E0
4.990870377E0,8.446664214E-1,-2.846262455E0,-2.467598438E0
5.000585012E0,9.379864931E-1,-1.220937729E0,-2.489133835E0
5.010298866E0,8.327022791E-1,3.640081584E-1,-2.144567251E0
5.020011835E0,8.015955687E-1,1.858026743E0,-1.857129455E0
5.029725689E0,8.925228715E-1,2.693420887E0,-1.426122308E0
5.039440325E0,5.838487148E-1,2.647957325E0,-6.457630396E-1
5.049154075E0,7.387840003E-2,2.461317301E0,-1.788634956E-1
5.058867147E0,-7.402794957E-1,2.044667006E0,-5.285146832E-1
5.068581002E0,-1.554138303E0,1.438983679E0,-1.320838094E0
5.078295637E0,-1.257428288E0,8.069794178E-1,-2.407777786E0
5.088009387E0,-8.264211416E-1,-2.093719784E-3,-2.783750057E0
5.097722460E0,-4.983053207E-1,-6.631109715E-1,-2.223530531E0
5.107436314E0,-2.901297510E-1,-1.194317579E0,-1.337587833E0
5.117150950E0,2.841476910E-2,-1.405185103E0,-7.845467329E-1
5.126864804E0,4.761717021E-1,-1.390828133E0,-4.208376706E-1
5.136577772E0,1.287637711E0,-1.465005636E0,-1.645065546E-1
5.146291627E0,2.125723839E0,-1.512862086E0,1.561316848E-1
5.156006262E0,2.482254505E0,-1.424327731E0,4.507479668E-1
5.165720116E0,2.300399780E0,-1.156032443E0,3.741776347E-1
5.175433085E0,1.673181176E0,-8.665009141E-1,-1.118644550E-1
5.185146939E0,1.000499010E0,-6.870391965E-1,-5.883352757E-1
5.194861575E0,5.312066078E-1,-6.655037999E-1,-7.917252183E-1
5.204575429E0,2.270190418E-1,-8.425726891E-1,-7.654041648E-1
5.214288397E0,-8.165507019E-2,-1.005284667E0,-1.304088354E0
5.224002252E0,-3.188436031E-1,-1.237687469E0,-2.486740828E0
5.233716887E0,-1.099202871E0,-1.718644857E0,-1.378265858E0
5.243430637E0,-3.076870918E0,-2.094617128E0,7.477570772E-1
5.253143710E0,-4.922634602E0,-2.736192703E0,-1.477568001E-1
5.262857564E0,-6.100501537E0,-4.464707851E0,-3.971188307E0
5.272572200E0,-7.711768150E0,-7.792526245E0,-1.150289631E1
5.282285950E0,-8.975776672E0,-1.323918819E1,-1.586979771E1
5.291999022E0,-9.325428009E0,-2.072064781E1,-7.909475327E0
5.301712877E0,-7.762017727E0,-2.522633362E1,-1.100698471E0
5.311427512E0,-4.400700092E0,-2.641377068E1,-3.623929977E0
5.321141366E0,-2.128714800E0,-2.932523727E1,-4.794618607E0
5.330854335E0,-1.836790442E0,-2.924597549E1,-5.785845280E0
5.340568189E0,-3.196511984E0,-2.720878601E1,-3.188436270E0
5.350282825E0,-3.804588079E0,-2.480519676E1,1.738684773E0
5.359996575E0,-4.513162613E0,-2.255474663E1,1.058823988E-1
5.369709647E0,-4.532305241E0,-2.115165520E1,-2.644966364E0
5.379423502E0,-5.557031631E0,-2.026092720E1,-3.841975927E0
5.389138137E0,-7.864908695E0,-2.231277275E1,-5.192125797E0
5.398851887E0,-9.923933029E0,-2.328724861E1,-4.737190723E0
5.408564960E0,-1.008664513E1,-2.385464668E1,-6.547360897E0
5.418278814E0,-8.437092781E0,-2.369432831E1,-8.012366295E0
5.427993450E0,-6.390331745E0,-2.290409851E1,-7.751548767E0
5.437707200E0,-4.019941807E0,-2.231277275E1,-7.117151737E0
5.447420272E0,-2.238784790E0,-2.137897301E1,-5.747560024E0
5.457134127E0,-8.934201598E-1,-1.997618103E1,-4.361517429E0
5.466848762E0,-8.886345029E-1,-1.791954994E1,-3.595216036E0
5.476562512E0,-1.975574136E0,-1.542024612E1,-3.243471146E0
5.486275585E0,-3.189333439E0,-1.283210945E1,-2.991925716E0
5.495989439E0,-4.163810730E0,-1.053141022E1,-2.333600283E0
5.505704075E0,-4.455734730E0,-8.695218086E0,-1.794916034E0
5.515417929E0,-3.828516245E0,-6.933203697E0,-1.656132340E0
5.525130897E0,-2.370688915E0,-5.166403294E0,-2.070389748E0
5.534844752E0,-9.364909530E-1,-3.102593660E0,-2.570489645E0
5.544559387E0,3.320041299E-2,-9.095717072E-1,-2.762214661E0
5.554273241E0,1.671984792E-1,1.194915771E0,-2.984747171E0
5.563986210E0,-2.991028305E-4,3.251247883E0,-3.442075491E0
5.573700064E0,1.552343667E-1,4.728516579E0,-3.894618034E0
5.583414700E0,7.968099117E-1,5.231308460E0,-3.509074450E0
5.593128554E0,1.730608940E0,4.376472473E0,-2.190030813E0
5.602841522E0,2.072782516E0,2.525923491E0,-5.443671346E-2
5.612555377E0,1.869392633E0,1.060917735E0,1.106680512E0
5.622270012E0,9.236295223E-1,1.465603895E-2,2.904288471E-1
5.631983762E0,-1.319641709E0,-8.282157183E-1,-1.036092162E0
5.641696835E0,-2.250748873E0,-1.148854017E0,-2.345564365E0
5.651410689E0,-1.743171334E0,-1.682752490E0,-3.544966698E0
5.661125325E0,-5.341976285E-1,-2.183151484E0,-3.418147087E0
5.670839179E0,6.675975323E-1,-2.403590441E0,-2.192423820E0
5.680552147E0,1.110568762E0,-2.087438583E0,-9.281160831E-1
5.690266002E0,1.376172066E0,-1.409970760E0,-2.697907388E-1
5.699980637E0,1.249352574E0,-7.612167001E-1,-1.429711580E-1
5.709694387E0,1.074676514E0,-4.235295951E-1,-1.333998591E-1
5.719407460E0,1.349851131E0,-4.187439680E-1,2.090728730E-1
5.729121314E0,1.526919961E0,-3.828516304E-1,7.235297561E-1
5.738835950E0,1.146461129E0,-3.613162339E-1,7.549355626E-1
5.748549700E0,4.088735580E-1,-2.009970993E-1,-1.375873014E-2
5.758262772E0,-4.983053207E-1,1.944168471E-2,-1.098305583E0
5.767976627E0,-9.628120065E-1,-2.895315289E-1,-1.876272082E0
5.777691262E0,-5.676971674E-1,-1.024427176E0,-1.510170221E0
5.787405012E0,-3.020938635E-1,-1.646860242E0,-8.108677864E-1
5.797118085E0,-1.075274706E0,-2.853441000E0,4.148556292E-1
5.806831939E0,-3.419044495E0,-3.811168194E0,-1.158126116E0
5.816546575E0,-6.550651073E0,-4.742574692E0,-5.527420521E0
5.826260325E0,-8.063812256E0,-8.065607071E0,-9.396315575E0
5.835973397E0,-7.697411537E0,-1.326311684E1,-1.039442158E1
5.845687252E0,-5.949753284E0,-1.988046837E1,-8.584549904E0
5.855401887E0,-6.634100676E-1,-2.695245552E1,-5.443671703E0
5.865115637E0,3.741477251E0,-3.183889771E1,-6.142674923E0
5.874828710E0,4.493422031E0,-3.203511047E1,-7.119544506E0
5.884542564E0,1.435992718E0,-2.990220642E1,-4.421338081E0
5.894257200E0,-3.527020693E0,-2.696441841E1,-2.508276224E0
5.903970950E0,-6.244070530E0,-2.475225449E1,-1.675274968E0
5.913684022E0,-7.793124199E0,-2.331596375E1,-2.118246317E0
5.923397877E0,-9.248857498E0,-2.250658989E1,-3.207578659E0
5.933112512E0,-9.844969749E0,-2.182673073E1,-3.628715515E0
5.942826262E0,-1.038604641E1,-2.092194366E1,-4.239184380E0
5.952539335E0,-1.068036366E1,-2.034497452E1,-6.125925064E0
5.962253189E0,-9.617352486E0,-2.019153404E1,-7.294220924E0
5.971967825E0,-7.606483936E0,-2.051725769E1,-7.191329479E0
5.981681575E0,-5.308177948E0,-2.066321945E1,-6.918248653E0
5.991394647E0,-2.523829699E0,-2.061536407E1,-6.355636120E0
6.001108502E0,-4.815555736E-2,-2.032583237E1,-4.773082733E0
6.010823137E0,1.062712312E0,-1.937528229E1,-3.140280724E0
6.020536887E0,1.251745343E0,-1.783101463E1,-2.283350945E0
6.030249960E0,2.078764737E-1,-1.572652817E1,-1.660917997E0
6.039963814E0,-6.227321029E-1,-1.346411419E1,-1.605883121E0
6.049678450E0,-6.777670383E-1,-1.135274696E1,-1.347159147E0
6.059392200E0,-3.523431420E-1,-9.346364975E0,-1.000199914E0
6.069105220E0,2.123630047E-2,-7.162914753E0,-1.064806104E0
6.078819127E0,4.881358147E-1,-5.079962254E0,-1.289731383E0
6.088533762E0,6.245267391E-1,-3.382553816E0,-1.723131418E0
6.098247512E0,4.857429862E-1,-1.699502230E0,-2.367099762E0
6.107960533E0,3.323032558E-1,-6.430710852E-2,-3.224328518E0
6.117674439E0,-2.991028305E-4,1.645065546E0,-3.061317444E0
6.127389022E0,-4.767699242E-1,3.493221998E0,-2.558525562E0
6.137102877E0,-5.772684813E-1,4.409972191E0,-2.103889227E0
6.146815845E0,-3.978067636E-1,3.718147278E0,-8.994022012E-1
6.156529752E0,-1.113559842E0,2.671885490E0,2.880360186E-1
6.166244335E0,-1.836790442E0,1.645065546E0,4.127619043E-2
6.175958189E0,-1.783849239E0,7.351947427E-1,-1.313659668E0
6.185671158E0,-9.053842425E-1,-4.755735025E-2,-2.501097918E0
6.195385012E0,-3.140579537E-2,-5.120640397E-1,-3.351148129E0
6.205099647E0,3.299104273E-1,-7.683951855E-1,-3.329612732E0
6.214813502E0,1.719841212E-1,-1.139282703E0,-2.211566210E0
6.224526470E0,1.719841212E-1,-1.591825247E0,-9.523434043E-1
6.234240325E0,7.250252366E-1,-1.958226204E0,-3.463610709E-1
6.243954960E0,1.579861164E0,-2.370090723E0,4.845465720E-2
6.253668710E0,2.132902384E0,-2.446661234E0,2.952145040E-1
6.263381783E0,2.159223318E0,-2.171187401E0,3.119642437E-1
6.273095637E0,1.835893154E0,-1.536790371E0,1.441675574E-1
6.282810272E0,1.194317579E0,-8.736793399E-1,-2.769692242E-1
6.292524022E0,6.053841114E-1,-2.057827413E-1,-9.065806866E-1
6.302237043E0,1.145563871E-1,2.276172489E-1,-1.488335729E0
6.311950950E0,-3.212364316E-1,2.395813614E-1,-1.014556766E0
6.321665585E0,-9.388837814E-1,1.151545867E-1,2.186441720E-1
6.331379335E0,-1.820040703E0,4.815555736E-2,2.330010980E-1
6.341092356E0,-3.203690529E0,2.563311160E-1,-4.057330132E0
6.350806262E0,-5.063810825E0,-3.804588020E-1,-5.385944843E0
6.360520845E0,-6.189035892E0,-1.783550143E0,-7.236793041E0
6.370234700E0,-4.395914078E0,-6.200401783E0,-4.433301926E0
6.379947668E0,-2.665006161E0,-1.082124138E1,2.361117840E0
6.389661522E0,-1.776670814E-1,-1.339711475E1,3.493520975E0
6.399376158E0,1.029212832E0,-1.545135307E1,-1.797308922E0
6.409090012E0,-6.299105883E-1,-1.787169266E1,-1.282463169E1
6.418802981E0,-5.892325878E0,-2.109422684E1,-1.175683498E1
6.428516835E0,-6.071787357E0,-2.549702072E1,-6.042176247E0
6.438231470E0,-3.795016766E0,-2.951427078E1,-2.137388945E0
6.447945220E0,1.408774406E-1,-3.093141937E1,-5.342874050E0
6.457658241E0,1.716252089E0,-2.911197853E1,-5.802595139E0
6.467372147E0,-1.618744493E0,-2.710350227E1,-2.900998354E0
6.477086783E0,-3.969692707E0,-2.471157646E1,-4.203291893E0
6.486800533E0,-5.961717606E0,-2.266720963E1,-3.863511324E0
6.496513554E0,-8.181060791E0,-2.178126717E1,-3.365504980E0
6.506227408E0,-9.313464165E0,-2.150130653E1,-3.082852840E0
6.515942043E0,-8.911170959E0,-2.117558289E1,-3.913760424E0
6.525655897E0,-8.343772888E0,-2.074218369E1,-5.460421085E0
6.535368866E0,-7.620841026E0,-2.013649940E1,-7.016354084E0
6.545082720E0,-6.454938412E0,-1.954517365E1,-7.373183727E0
6.554797356E0,-5.303392410E0,-1.908545303E1,-6.786643028E0
6.564511106E0,-3.895515203E0,-1.849412537E1,-5.764309883E0
6.574224127E0,-2.243570328E0,-1.780708694E1,-4.145864487E0
6.583938033E0,-1.022632599E0,-1.665554047E1,-2.898605585E0
6.593652616E0,-9.840483218E-2,-1.522612858E1,-2.173281193E0
6.603366470E0,3.798605874E-2,-1.372044468E1,-1.950449586E0
6.613079439E0,-2.087737769E-1,-1.212353516E1,-1.682453394E0
6.622793345E0,-4.241278172E-1,-1.041416264E1,-1.536491275E0
6.632507929E0,-3.906283081E-1,-8.764610291E0,-1.782951951E0
6.642221679E0,-3.667000830E-1,-7.014559746E0,-2.166102648E0
6.651934752E0,-4.983053207E-1,-5.276473045E0,-2.472383976E0
6.661648606E0,-7.163512707E-1,-3.406482220E0,-2.544168711E0
6.671363241E0,-9.843474030E-1,-1.378864050E0,-2.560918331E0
6.681076991E0,-1.278963685E0,6.203392744E-1,-2.795714140E0
6.690790012E0,-1.135095239E0,2.494816780E0,-2.793321371E0
6.700503918E0,-4.983053207E-1,3.988835335E0,-1.933699846E0
6.710218502E0,2.198405862E-1,4.407579422E0,-7.319046259E-1
6.719932356E0,4.450650215E-1,4.070191383E0,2.377867550E-1
6.729645325E0,-6.011966988E-2,2.909074068E0,5.895316601E-1
6.739359179E0,-7.785646915E-1,1.944168448E0,5.392823815E-1
6.749073814E0,-1.525424480E0,1.072881818E0,-2.865405083E-1
6.758787564E0,-1.300499082E0,1.007976532E-1,-1.598704576E0
6.768500585E0,-6.586244106E-1,-7.779664397E-1,-2.386242390E0
6.778214491E0,1.289133132E-1,-1.539183140E0,-2.501097918E0
6.787929075E0,6.939185858E-1,-1.922333837E0,-2.142174482E0
6.797642929E0,9.475577474E-1,-2.022832394E0,-1.416550994E0
6.807355897E0,1.232602715E0,-1.850549221E0,-4.950151742E-1
6.817069752E0,1.376172066E0,-1.668395638E0,-4.965107143E-2
6.826784387E0,1.464706540E0,-1.326221943E0,-4.965107143E-2
6.836498137E0,1.390529037E0,-1.057926655E0,-5.069792867E-1
6.846211158E0,1.151246786E0,-8.832506537E-1,-9.978070259E-1
6.855925064E0,7.489534616E-1,-8.449655175E-1,-1.565205097E0
6.865639647E0,4.642075896E-1,-1.024427176E0,-1.861915112E0
6.875353397E0,2.629113793E-1,-1.235294700E0,-1.919342875E0
6.885066470E0,-8.165507019E-2,-1.335793257E0,-2.438884497E0
6.894780325E0,-7.307082415E-1,-1.560718536E0,-4.395017147E0
6.904494960E0,-1.707278967E0,-2.001296997E0,-4.734797955E0
6.914208710E0,-2.856431961E0,-2.628515720E0,-3.985545158E0
6.923921731E0,-3.936193228E0,-4.718646049E0,-2.924926519E0
6.933635637E0,-4.831707001E0,-7.366304398E0,-1.684846282E0
6.943350220E0,-5.195715427E0,-1.004058266E1,-2.111067772E0
6.953063970E0,-4.051048756E0,-1.321286774E1,-6.398706913E0
6.962777043E0,-3.127120018E0,-1.685893059E1,-9.415457726E0
6.972490897E0,-3.261118174E0,-2.068714905E1,-2.731107950E0
6.982205481E0,2.820539773E-1,-2.411067963E1,-9.089735150E-1
6.991919335E0,3.640978813E0,-2.560948372E1,-4.672584534E0
7.001632304E0,3.258127213E0,-2.530768776E1,-7.411468983E0
7.011346158E0,3.705884218E-1,-2.453211594E1,-4.215256214E0
7.021060793E0,-4.230809689E0,-2.461586380E1,-1.177268744E0
7.030774543E0,-6.641578197E0,-2.441725922E1,-2.192423820E0
7.040487564E0,-6.136393547E0,-2.395275307E1,-3.631108284E0
7.050201470E0,-5.990431309E0,-2.339253235E1,-4.114757538E0
7.059916054E0,-7.620841026E0,-2.240130615E1,-5.489135265E0
7.069629804E0,-8.982954979E0,-2.132872391E1,-5.761917114E0
7.079342877E0,-8.657531738E0,-2.069432640E1,-4.543372154E0
7.089056731E0,-7.850552082E0,-2.020828438E1,-4.622334957E0
7.098771314E0,-6.986443996E0,-1.972254181E1,-5.599205017E0
7.108485168E0,-6.399903297E0,-1.929392624E1,-6.042176247E0
7.118198137E0,-5.633601665E0,-1.902084541E1,-5.570491314E0
7.127911991E0,-4.381557465E0,-1.878874207E1,-4.165007114E0
7.137626627E0,-2.921038151E0,-1.817109489E1,-2.740679264E0
7.147340377E0,-1.501496196E0,-1.700758553E1,-1.976770639E0
7.157053397E0,-5.437689424E-1,-1.543938923E1,-1.184447169E0
7.166767304E0,-8.883354068E-2,-1.356251907E1,-1.094716340E-1
7.176481887E0,-2.614158690E-1,-1.164945698E1,-4.725824669E-2
7.186195637E0,-3.954139352E-1,-1.014826012E1,-5.811567903E-1
7.195908710E0,-4.193421602E-1,-8.501399994E0,-5.093721151E-1
7.205622564E0,-6.275177598E-1,-6.784549713E0,-2.482553422E-1
7.215337147E0,-3.188436031E-1,-5.448756218E0,-6.433702111E-1
7.225051002E0,2.030908167E-1,-4.053142548E0,-1.433300734E0
7.234763970E0,8.159525394E-1,-2.523231506E0,-2.134995937E0
7.244477825E0,1.124925733E0,-7.779664397E-1,-2.845963478E0
7.254192460E0,1.428814173E0,1.549053550E0,-4.251148701E0
7.263906210E0,1.309173107E0,4.513162613E0,-5.601597786E0
7.273619231E0,6.005984545E-1,5.621637821E0,-4.914558411E0
7.283333085E0,-6.203392744E-1,3.842574120E0,-2.261815548E0
7.293047720E0,-1.223629713E0,3.004786968E0,-2.578266263E-1
7.302761470E0,-1.966002941E0,8.859425783E-1,2.691925503E-2
7.312474491E0,-1.812862277E0,-4.211367965E-1,-1.280160069E0
7.322188397E0,-7.953144312E-1,-1.711466432E0,-2.113460541E0
7.331902981E0,2.126621157E-1,-2.602194548E0,-2.278565407E0
7.341616731E0,1.163210869E0,-3.183949709E0,-1.794916034E0
7.351329752E0,1.658824325E0,-3.284448147E0,-1.071984529E0
7.361043658E0,1.819143414E0,-2.944667339E0,-8.180462122E-1
7.370758241E0,1.749751568E0,-2.329412937E0,-9.379864931E-1
7.380472095E0,1.510170221E0,-1.903191328E0,-9.978070259E-1
7.390185064E0,1.371386528E0,-1.359721422E0,-1.002592683E0
7.399898918E0,1.287637711E0,-8.928219676E-1,-1.229910851E0
7.409613502E0,1.112961650E0,-5.599204898E-1,-1.438086390E0
7.419327356E0,6.340979934E-1,-4.498506486E-1,-1.366301775E0
7.429040325E0,-5.533402413E-2,-3.493520916E-1,-1.505384564E0
7.438754179E0,-5.605186820E-1,-2.560320199E-1,-1.536491275E0
7.448468814E0,-1.341177106E0,-1.507478207E-1,-1.198804140E0
7.458182564E0,-2.085644007E0,-5.473581702E-2,-8.778668046E-1
7.467895585E0,-2.344068766E0,-1.627119333E-1,-2.496312141E0
7.477609439E0,-2.442473650E0,-1.084247708E0,-2.350350142E0
7.487324075E0,-2.906681299E0,-2.329412937E0,-2.486740828E0
7.497037825E0,-3.503092289E0,-4.215854168E0,-1.332802176E0
7.506750845E0,-4.503591537E0,-6.588337898E0,1.027717352E0
7.516464752E0,-4.972883701E0,-9.595218658E0,-5.691927075E-1
7.526179335E0,-4.822135925E0,-1.410838127E1,-5.587240696E0
7.535893085E0,-3.818944931E0,-2.072064781E1,-9.994820595E0
7.545606106E0,-3.550948858E0,-2.822633362E1,-1.123729324E1
7.555320012E0,-1.432104349E0,-3.070888710E1,-8.898308754E0
7.565034595E0,-1.336391449E0,-2.851586533E1,-2.838784933E0
7.574748345E0,-2.815753937E0,-2.852304459E1,-2.869891644E0
7.584461418E0,-5.035097122E0,-2.660549545E1,-2.434098721E0
7.594175272E0,-5.188536644E0,-2.295674133E1,-1.222732425E0
7.603889856E0,-5.245964527E0,-2.007667923E1,-1.438086390E0
7.613603710E0,-4.910670280E0,-2.082593155E1,-4.100400925E0
7.623316679E0,-5.418247700E0,-2.345235443E1,-3.631108284E0
7.633030533E0,-6.466902256E0,-2.508036995E1,-3.528217077E0
7.642745116E0,-7.017550468E0,-2.557359123E1,-5.800201893E0
7.652458970E0,-6.543472767E0,-2.483390999E1,-7.880761147E0
7.662171939E0,-5.616852283E0,-2.374457741E1,-8.766405106E0
7.671885793E0,-5.006382942E0,-2.267199516E1,-7.974081516E0
7.681600429E0,-4.135096550E0,-2.125933266E1,-7.131508827E0
7.691314179E0,-3.198904753E0,-1.978236198E1,-6.130710602E0
7.701027200E0,-2.743969440E0,-1.822852325E1,-4.428516388E0
7.710741054E0,-2.509472847E0,-1.630588913E1,-3.068495989E0
7.720455689E0,-2.763111830E0,-1.405543995E1,-2.237887383E0
7.730169439E0,-3.112763166E0,-1.167817116E1,-1.957628012E0
7.739882460E0,-2.909074068E0,-9.418149948E0,-2.180459738E0
7.749596314E0,-2.574079037E0,-7.299305439E0,-2.477169752E0
7.759310950E0,-2.080858469E0,-5.417649746E0,-2.584846735E0
7.769024700E0,-1.365105271E0,-3.677170277E0,-2.455634356E0
7.778737720E0,-6.924230456E-1,-1.857727647E0,-2.544168711E0
7.788451575E0,6.430710852E-2,-1.004985496E-1,-2.599203587E0
7.798166210E0,8.733802438E-1,1.415055513E0,-2.233101845E0
7.807879960E0,1.728216171E0,2.576172590E0,-1.632204175E0
7.817592981E0,2.405683994E0,3.629612923E0,-9.978070259E-1
7.827306835E0,2.427219391E0,3.574577808E0,-2.985046208E-1
7.837021470E0,2.329113722E0,3.045464993E0,1.704886109E-1
7.846735220E0,1.737787485E0,2.291426897E0,2.452643216E-2
7.856448241E0,-4.983053207E-1,1.211665511E0,-6.960122585E-1
7.866162095E0,-2.159821510E0,5.246263742E-1,-1.261017561E0
7.875876731E0,-2.365604401E0,-2.249253243E-1,-1.854736686E0
7.885590481E0,-1.896611094E0,-8.665009141E-1,-2.120639086E0
7.895303502E0,-1.199701428E0,-1.398006678E0,-1.967199326E0
7.905017408E0,-4.648058116E-1,-1.615753531E0,-1.502991676E0
7.914731991E0,7.148557901E-2,-1.455434322E0,-7.725825906E-1
7.924445741E0,3.490529954E-1,-1.465005636E0,-4.591228366E-1
7.934158762E0,6.077769399E-1,-1.508076429E0,-2.817548811E-1
7.943872668E0,1.223031521E0,-1.275972724E0,-2.745763958E-1
7.953587252E0,1.529312730E0,-1.043569803E0,-6.625127792E-1
7.963301002E0,1.823929071E0,-9.000003934E-1,-1.057627559E0
7.973014022E0,1.790429592E0,-7.420741320E-1,-1.466800332E0
7.982727929E0,1.273280740E0,-6.990033388E-1,-1.895414591E0
7.992442512E0,5.072783828E-1,-7.971090674E-1,-2.441277266E0
8.002156262E0,-8.883354068E-2,-1.110568762E0,-2.975175858E0
8.011869283E0,-3.140579760E-1,-1.438684583E0,-3.226721287E0
8.021583189E0,-1.055833027E-1,-1.766800404E0,-4.100400925E0
8.031297772E0,-3.427718580E-1,-2.164009094E0,-3.621536970E0
8.041011522E0,-1.278963685E0,-2.927917719E0,-2.989532709E0
8.050724543E0,-2.303390980E0,-4.158426762E0,-3.506681681E0
8.060438397E0,-4.285844326E0,-6.102295876E0,-4.938487053E0
8.070153033E0,-6.426224232E0,-9.243474007E0,-5.333302498E0
8.079866783E0,-7.206583500E0,-1.355055428E1,-5.618347645E0
8.089579804E0,-6.256034851E0,-1.828355789E1,-5.050949574E0
8.099293658E0,-2.521436930E0,-2.345474625E1,-6.334100723E0
8.109008293E0,1.737787485E0,-2.749113846E1,-8.974879265E0
8.118722043E0,3.767798424E0,-2.893251610E1,-5.697310925E0
8.128435064E0,1.871785522E0,-2.840101051E1,4.172484577E-1
8.138148918E0,-1.298106313E0,-2.649781799E1,4.172484577E-1
8.147863554E0,-4.092025757E0,-2.446272278E1,-7.941179872E-1
8.157577304E0,-6.452545166E0,-2.267917252E1,-2.508276224E0
8.167290325E0,-8.216953278E0,-2.131436729E1,-3.911367655E0
8.177004179E0,-1.000528908E1,-2.071825409E1,-4.919344425E0
8.186718814E0,-1.081226826E1,-2.006949997E1,-4.576871395E0
8.196432564E0,-1.031186962E1,-1.974646950E1,-4.995914459E0
8.206145585E0,-9.148359299E0,-1.979193306E1,-5.754738331E0
8.215859439E0,-7.584948540E0,-2.008146477E1,-4.902594566E0
8.225574075E0,-6.464509487E0,-2.041675949E1,-4.143471718E0
8.235287825E0,-5.700600624E0,-2.056272125E1,-4.088436604E0
8.245000845E0,-4.151846409E0,-2.032343864E1,-4.074079514E0
8.254714700E0,-1.805384636E0,-1.983979034E1,-3.535395384E0
8.264429283E0,5.096712112E-1,-1.905913162E1,-3.207578659E0
8.274143137E0,1.507777333E0,-1.806581116E1,-2.515454769E0
8.283856106E0,1.505384564E0,-1.685653877E1,-1.246660590E0
8.293569960E0,8.518448472E-1,-1.518784332E1,-4.304089844E-1
8.303284543E0,4.516452923E-2,-1.315065384E1,-7.677969933E-1
8.312998397E0,-4.097708762E-1,-1.111795139E1,-1.617847204E0
8.322711314E0,-6.179464459E-1,-9.119047165E0,-2.264208317E0
8.332425220E0,-5.030909777E-1,-7.131807804E0,-2.553740025E0
8.342139804E0,-1.537388563E-1,-5.252544880E0,-2.606382132E0
8.351853554E0,-7.477570791E-3,-3.361018419E0,-2.312064886E0
8.361566575E0,1.241276711E-1,-1.182353497E0,-2.410170555E0
8.371280481E0,1.528415531E-1,1.252343535E0,-3.113959551E0
8.380995064E0,-1.992024779E-1,3.878765583E0,-3.954438448E0
8.390708814E0,-1.484746456E0,3.744468451E0,-3.408575773E0
8.400421835E0,-1.771885157E0,3.672683716E0,-2.295315027E0
8.410135689E0,-1.271785259E0,4.888835907E0,-1.351944804E0
8.419850325E0,-9.915258884E-1,3.984049797E0,-1.031306505E0
8.429564075E0,-9.891330600E-1,2.320140600E0,-1.239482164E0
8.439277095E0,-1.132702470E0,6.346961856E-1,-1.119840980E0
8.448990950E0,-7.737790346E-1,-3.948157430E-1,-1.555633783E0
8.458705533E0,-3.020938635E-1,-1.357328653E0,-1.933699846E0
8.468419387E0,2.054836452E-1,-2.075474501E0,-2.067996979E0
8.478132356E0,8.063812256E-1,-2.556730986E0,-1.955235243E0
8.487846210E0,1.514955878E0,-2.690729141E0,-1.488335729E0
8.497560793E0,2.041675806E0,-2.573480844E0,-9.834501147E-1
8.507274543E0,2.135295153E0,-2.271686077E0,-7.486543655E-1
8.516987616E0,1.977069736E0,-1.888834357E0,-4.902295470E-1
8.526701470E0,1.711466432E0,-1.455434322E0,-2.745763958E-1
8.536416054E0,1.376172066E0,-9.909276962E-1,-3.056831062E-1
8.546129804E0,8.350951076E-1,-6.559324861E-1,-6.002993584E-1
8.555842825E0,4.160520434E-1,-3.972085714E-1,-7.989036441E-1
8.565556679E0,-1.079761237E-1,-2.153540403E-1,-1.253839016E0
8.575271314E0,-6.490531564E-1,-1.651047617E-1,-1.859522343E0
8.584985064E0,-8.072785139E-1,-3.972085714E-1,-2.084746838E0
8.594698085E0,-9.556335211E-1,-8.736793399E-1,-2.084746838E0
8.604411939E0,-1.511067510E0,-1.752144337E0,-1.644168258E0
8.614126575E0,-3.160619497E0,-2.386840582E0,-1.711167336E0
8.623840325E0,-4.831707001E0,-2.764906645E0,-2.707179785E0
8.633553345E0,-5.382355213E0,-4.579862595E0,-2.970390320E0
8.643267200E0,-5.128417015E0,-7.921738625E0,-3.652643681E0
8.652981783E0,-3.143869877E0,-1.163749313E1,-7.035496712E0
8.662695637E0,2.629113793E-1,-1.783101463E1,-1.111525917E1
8.672408606E0,1.998605132E0,-2.434308243E1,-1.051436138E1
8.682122460E0,6.747759581E-1,-2.861875725E1,-4.686941147E0
8.691837043E0,-4.049852192E-1,-2.935395241E1,-3.595216036E0
8.701550793E0,-3.100799084E0,-2.789821815E1,-2.793321371E0
8.711263814E0,-3.634697676E0,-2.470439911E1,-4.562514782E0
8.720977720E0,-3.931407690E0,-2.207827568E1,-3.597608805E0
8.730692304E0,-5.262714386E0,-2.081875420E1,-1.627418518E0
8.740406054E0,-7.060621262E0,-2.023699760E1,-3.432504177E0
8.750119075E0,-7.714160919E0,-2.028276062E1,-4.684548378E0
8.759832929E0,-8.604888916E0,-2.163051796E1,-3.733999729E0
8.769547564E0,-9.236893654E0,-2.280599213E1,-5.627918720E0
8.779261314E0,-9.095417976E0,-2.343560410E1,-7.071389198E0
8.788974335E0,-7.817052364E0,-2.369911385E1,-6.331707954E0
8.798688189E0,-6.023931026E0,-2.346192551E1,-7.085746288E0
8.808402772E0,-4.503591537E0,-2.270788765E1,-9.159127235E0
8.818116627E0,-3.086441994E0,-2.226491547E1,-9.099306107E0
8.827829595E0,-2.178964138E0,-2.169991112E1,-7.789834023E0
8.837543450E0,-1.310070395E0,-2.082832527E1,-6.554539204E0
8.847258033E0,-1.170987606E0,-1.950688934E1,-5.364409447E0
8.856971783E0,-1.523031592E0,-1.773051643E1,-4.265505314E0
8.866684804E0,-2.128714800E0,-1.543699646E1,-2.975175858E0
8.876398658E0,-2.238784790E0,-1.299512100E1,-2.123031855E0
8.886113293E0,-1.747956991E0,-1.051466084E1,-2.125424623E0
8.895827043E0,-1.036989570E0,-8.264211655E0,-2.249851465E0
8.905540064E0,-1.369891018E-1,-6.229115486E0,-1.890628934E0
8.915253918E0,6.723831892E-1,-4.287639141E0,-1.493121386E0
8.924968554E0,1.084247708E0,-2.128116608E0,-1.840379715E0
8.934682304E0,1.098604679E0,2.060818523E-1,-2.771785975E0
8.944395325E0,8.159525394E-1,2.949752092E0,-3.418147087E0
8.954109179E0,5.712864175E-2,5.674279690E0,-3.394218922E0
8.963823762E0,-7.881359458E-1,6.598208427E0,-2.462812662E0
8.973537512E0,-1.257428288E0,5.781956673E0,-5.380859971E-1
8.983250533E0,-1.716850281E0,4.323830605E0,1.037288666E0
8.992964387E0,-2.312962294E0,2.638386011E0,1.590329766E0
9.002679022E0,-2.499901533E0,7.878368497E-1,1.104287624E0
9.012392772E0,-2.006680965E0,-4.474578202E-1,-3.678964674E-1
9.022105793E0,-1.101595759E0,-1.407577872E0,-2.084746838E0
9.031819647E0,-6.948158741E-1,-1.725823283E0,-3.054138899E0
9.041534231E0,-3.475574851E-1,-1.781157374E0,-2.893819809E0
9.051248085E0,2.093719784E-3,-1.893620014E0,-2.278565407E0
9.060961054E0,5.312066078E-1,-1.848156333E0,-1.888236165E0
9.070674908E0,1.165603757E0,-1.776371717E0,-1.567597985E0
9.080389491E0,2.075175524E0,-1.781157374E0,-7.414759398E-1
9.090103241E0,2.886940479E0,-1.793121457E0,5.563312769E-2
9.099816262E0,3.511766434E0,-1.972583175E0,4.818546474E-1
9.109530116E0,3.823132277E0,-2.077867270E0,5.129613280E-1
9.119244752E0,3.681656837E0,-1.991725802E0,1.974078640E-2
9.128958502E0,2.855833769E0,-1.677966833E0,-9.714859724E-1
9.138671522E0,1.733001828E0,-1.247258782E0,-2.257030010E0
9.148385377E0,6.269195080E-1,-8.497511148E-1,-3.269792080E0
9.158099960E0,-6.753742099E-1,-4.905286431E-1,-3.571287870E0
9.167813710E0,-2.009073734E0,-4.235295951E-1,-3.293720484E0
9.177526731E0,-2.686541557E0,-7.468597889E-1,-2.022234201E0
9.187240637E0,-2.779861689E0,-1.438684583E0,-8.324031830E-1
9.196955220E0,-2.763111830E0,-2.441875458E0,-7.893323898E-1
9.206668970E0,-3.021835804E0,-3.562314749E0,-4.256233275E-1
9.216381991E0,-3.960121393E0,-4.280460835E0,-5.141577721E-1
9.226095845E0,-3.998406649E0,-5.432006359E0,6.041877344E-2
9.235810429E0,-3.701696634E0,-9.964012146E0,-3.710071564E0
9.245524283E0,-4.333701134E0,-1.437877083E1,-6.717251301E0
9.255237252E0,-4.472484589E0,-1.798176384E1,-9.740881920E0
9.264951106E0,-4.422235489E0,-1.958585167E1,-1.185494041E1
9.274665689E0,-4.654638290E0,-2.384268379E1,-7.315756321E0
9.284379439E0,-1.846361756E0,-2.763500786E1,-8.618049622E0
9.294092460E0,-5.940182209E-1,-2.865704155E1,-9.458528519E0
9.303806314E0,-1.417747438E-1,-2.918615532E1,-6.554539204E0
9.313520950E0,-7.666005492E-1,-2.848715210E1,-2.900998354E0
9.323234700E0,3.801597059E-1,-2.740260506E1,-1.701596022E0
9.332947720E0,1.682752490E0,-2.605245399E1,-2.055733681E0
9.342661575E0,-9.771689177E-1,-2.384268379E1,-2.613560438E0
9.352376158E0,-5.561817169E0,-2.206152534E1,-2.743072033E0
9.362089908E0,-9.344570160E0,-2.089323044E1,-3.085245609E0
9.371802929E0,-1.163809109E1,-2.006471443E1,-6.061318874E0
9.381516783E0,-1.192792225E1,-1.961935043E1,-7.344470024E0
9.391231418E0,-1.019671440E1,-1.976321983E1,-6.099604130E0
9.400945168E0,-7.742875099E0,-1.990439606E1,-5.659025669E0
9.410658189E0,-5.633601665E0,-1.970549202E1,-5.704489231E0
9.420372043E0,-3.610769272E0,-1.871217155E1,-5.730810165E0
9.430086627E0,-2.344068766E0,-1.770180321E1,-5.544169903E0
9.439800377E0,-1.365105271E0,-1.680150414E1,-4.442873478E0
9.449513397E0,-4.289134443E-1,-1.592543125E1,-2.673680305E0
9.459227304E0,5.623133183E-1,-1.493659687E1,-1.131805062E0
9.468941887E0,7.465606928E-1,-1.380419350E1,-5.476573110E-1
9.478655637E0,7.561319470E-1,-1.228864002E1,-9.906286001E-1
9.488368658E0,1.301994562E0,-1.042373371E1,-2.230708838E0
9.498082512E0,1.306780219E0,-7.960322857E0,-4.306482315E0
9.507797095E0,1.100997567E0,-5.465506077E0,-5.627918720E0
9.517510845E0,9.571290612E-1,-3.143271685E0,-5.330909729E0
9.527223866E0,9.092726111E-1,-6.798607111E-1,-4.114757538E0
9.536937772E0,1.187139153E0,1.860419631E0,-2.860320330E0
9.546652356E0,4.040879309E-1,3.852444410E0,-1.806880236E0
9.556366106E0,-1.096810102E0,3.691826344E0,9.152546525E-1
9.566079127E0,-6.658028960E-1,3.962514400E0,2.806481838E0
9.575792981E0,-1.295713425E0,3.557828188E0,1.477867126E0
9.585507564E0,-2.600399971E0,2.942573547E0,-1.253839016E0
9.595221314E0,-2.293819666E0,1.992024899E0,-2.755036116E0
9.604934335E0,-9.699904919E-1,6.179464459E-1,-3.068495989E0
9.614648189E0,3.323032558E-1,-8.090731502E-1,-2.745464802E0
9.624362825E0,1.615753531E0,-1.989332914E0,-1.366301775E0
9.634076575E0,2.618645191E0,-2.752942562E0,6.326025128E-1
9.643789595E0,3.454338551E0,-3.095415115E0,2.152942181E0
9.653503450E0,3.384946823E0,-2.681157827E0,2.631805897E0
9.663218033E0,2.271686077E0,-1.896012783E0,2.196012974E0
9.672931783E0,1.029212832E0,-1.115354419E0,1.271785259E0
9.682644804E0,2.602194622E-2,-6.125625968E-1,4.172484577E-1
9.692358658E0,-1.992024779E-1,-4.307080805E-1,-2.123630047E-1
9.702073293E0,-3.810569942E-1,-2.057827413E-1,-8.012964725E-1
9.711787043E0,-9.723833203E-1,-4.755735025E-2,-1.646561027E0
9.721500064E0,-1.707278967E0,-1.387837082E-1,-2.517847538E0
9.731213918E0,-2.107179403E0,-4.235295951E-1,-3.305684566E0
9.740928502E0,-1.918146491E0,-8.904291391E-1,-3.940081596E0
9.750642252E0,-1.305284739E0,-1.661217093E0,-4.117150307E0
9.760355272E0,-9.460622668E-1,-2.159223318E0,-4.038187504E0
9.770069127E0,-1.048953652E0,-2.417947292E0,-3.853940010E0
9.779783762E0,-9.101698995E-1,-2.757728100E0,-4.004687786E0
9.789497512E0,-6.155536175E-1,-2.879761934E0,-4.859224796E0
9.799210533E0,-1.848754644E0,-2.982952595E0,-5.330909729E0
9.808924387E0,-3.505485058E0,-3.890131474E0,-5.170590401E0
9.818638970E0,-4.127918243E0,-6.573981285E0,-1.447657704E0
9.828352720E0,-4.111168385E0,-1.013390255E1,1.896910191E0
9.838065741E0,-3.979264021E0,-1.381376553E1,-1.229910851E0
9.847779595E0,-2.404188633E0,-1.839123535E1,-9.092127800E0
9.857494231E0,-4.192524433E0,-2.221227264E1,-9.458528519E0
9.867207981E0,-3.964907169E0,-2.520001221E1,-1.689631939E0
9.876921002E0,-2.167000055E0,-2.729253578E1,6.328118801E0
9.886634856E0,2.003390789E0,-2.744806862E1,2.835195780E0
9.896349439E0,4.373780727E0,-2.552573395E1,-7.976474285E0
9.906063189E0,2.318046987E-1,-2.440290260E1,-8.558229446E0
9.915776210E0,-5.387141228E0,-2.498944283E1,-8.194221497E0
9.925490064E0,-8.640781403E0,-2.599263382E1,-1.059571743E1
9.935204700E0,-9.830613136E0,-2.754378128E1,-1.013599682E1
9.944918450E0,-9.813862801E0,-2.807289505E1,-8.723334312E0
9.954631470E0,-9.105288506E0,-2.679452896E1,-8.586943626E0
9.964345325E0,-9.229715347E0,-2.448904419E1,-8.158329010E0
9.974059908E0,-9.385248184E0,-2.212613106E1,-8.007580757E0
9.983773658E0,-8.753244400E0,-2.017000008E1,-8.697012901E0
9.993486679E0,-7.055835724E0,-1.920778465E1,-8.476873398E0
1.000320058E1,-4.881956577E0,-1.892752647E1,-6.314958096E0
1.001291517E1,-2.993122101E0,-1.882463455E1,-3.731606960E0
1.002262892E1,-1.415354609E0,-1.844866180E1,-2.383849621E0
1.003234194E1,-2.518445849E-1,-1.727079582E1,-1.684846282E0
1.004205579E1,2.964109182E-1,-1.545135307E1,-1.014556766E0
1.005177038E1,6.364908218E-1,-1.341147137E1,-4.007977992E-2
1.006148413E1,1.455135226E0,-1.114905834E1,5.177469850E-1
1.007119715E1,2.757728100E0,-8.905786514E0,2.449652255E-1
1.008091105E1,3.363411427E0,-6.547659874E0,-3.631108403E-1
1.009062564E1,2.987439156E0,-4.129712582E0,-2.178066730E0
1.010033939E1,1.960319996E0,-1.785943031E0,-4.552943230E0
1.011005241E1,7.034898400E-1,6.490531564E-1,-5.577669621E0
1.011976626E1,-6.299105883E-1,4.163511276E0,-5.647061348E0
1.012948084E1,-2.593221426E0,6.466603279E0,-5.527420521E0
1.013919460E1,-4.505984306E0,5.140381336E0,-2.788535595E0
1.014890762E1,-4.850849628E0,6.009274960E0,-1.597209126E-1
1.015862152E1,-5.006382942E0,5.262415409E0,1.283749342E0
1.016833611E1,-5.030311584E0,3.888336897E0,1.717149377E0
1.017804986E1,-4.462913513E0,2.106880426E0,1.609472275E0
1.018776288E1,-2.128714800E0,2.276172489E-1,1.032503009E0
1.019747673E1,6.508477330E-1,-1.642074585E0,2.521436810E-1
1.020719131E1,2.601895571E0,-3.059522867E0,-3.272185028E-1
1.021690517E1,3.528516054E0,-3.847060680E0,-6.457630396E-1
1.022661814E1,4.127020836E0,-4.022035599E0,-1.289731383E0
1.023633199E1,4.086342812E0,-3.686741590E0,-2.278565407E0
1.024604658E1,3.451945782E0,-3.215056419E0,-2.673680305E0
1.025576032E1,2.510968208E0,-2.757728100E0,-1.818844318E0
1.026547334E1,1.620539188E0,-2.401197433E0,-2.506481707E-1
1.027518720E1,1.005284667E0,-1.953440547E0,8.745766878E-1
1.028490184E1,4.402793646E-1,-1.381256819E0,1.058824062E0
1.029461558E1,-1.274178028E-1,-5.862415433E-1,8.099704385E-1
1.030432861E1,-6.586244106E-1,2.180459648E-1,7.477571070E-2
1.031404246E1,-1.144666553E0,9.074779749E-1,-9.137591720E-1
1.032375704E1,-1.690529227E0,1.403091431E0,-1.656132340E0
1.033347079E1,-1.982752681E0,1.479661703E0,-2.254637241E0
1.034318381E1,-1.836790442E0,1.194915771E0,-2.486740828E0
1.035289767E1,-1.314856052E0,4.429712892E-1,-2.596810818E0
1.036261230E1,-5.485545993E-1,-6.990033388E-1,-2.824428082E0
1.037232605E1,3.538386524E-1,-2.030010939E0,-3.375076294E0
1.038203908E1,1.148854017E0,-3.320340633E0,-4.890630245E0
1.039175293E1,2.724826932E-1,-5.015356064E0,-6.259922981E0
1.040146751E1,-1.120738268E0,-7.141379356E0,-5.989534378E0
1.041118137E1,-1.843968987E0,-9.947262764E0,-5.592026711E0
1.042089434E1,-3.029014349E0,-1.328943825E1,-6.980462074E0
1.043060819E1,-6.914659023E0,-1.643061638E1,-1.065793133E1
1.044032277E1,-8.635995865E0,-2.047897339E1,-1.345663643E1
1.045003652E1,-6.828218460E0,-2.450579453E1,-1.020778179E1
1.045974954E1,-3.507878065E0,-2.750310326E1,-9.403493881E0
1.046946340E1,1.526919961E0,-2.797239494E1,-6.600003242E0
1.047917803E1,2.642573595E0,-2.782882690E1,-2.755036116E0
1.048889178E1,8.135597110E-1,-2.614816856E1,-3.832404613E0
1.049860480E1,-2.662015259E-1,-2.164966202E1,-8.539385796E-1
1.050831866E1,-3.361616611E0,-1.822612953E1,1.087537885E0
1.051803324E1,-1.103240776E1,-1.892513275E1,-1.790130496E0
1.052774699E1,-1.272981644E1,-1.735693741E1,-3.188436270E0
1.053746001E1,-1.361097336E1,-1.796261978E1,-2.036591291E0
1.054717392E1,-1.345992661E1,-1.870499420E1,-2.175673962E0
1.055688850E1,-1.109701443E1,-1.923649979E1,-5.656632900E0
1.056660225E1,-7.393223763E0,-1.934178352E1,-6.257530212E0
1.057631527E1,-4.575376034E0,-1.962413597E1,-5.821737289E0
1.058602913E1,-3.165405273E0,-2.000489426E1,-6.789036274E0
1.059574376E1,-1.673779488E0,-2.099851418E1,-4.576871395E0
1.060545751E1,-2.691925503E-3,-2.103919220E1,-2.805285454E0
1.061517053E1,1.599003673E0,-2.101287079E1,-3.942474365E0
1.062488439E1,2.386541367E0,-2.114447594E1,-4.586442947E0
1.063459897E1,1.864607096E0,-2.108944130E1,-3.133102179E0
1.064431282E1,7.154539824E-1,-2.029233170E1,-1.878664851E0
1.065402579E1,-6.107679605E-1,-1.857069588E1,-2.391027927E0
1.066373965E1,-1.654636860E0,-1.579621887E1,-3.561716557E0
1.067345423E1,-1.719243050E0,-1.309561920E1,-3.803690672E0
1.068316798E1,-7.283154130E-1,-1.092413235E1,-2.891427040E0
1.069288100E1,3.059822023E-1,-8.621041298E0,-1.902593136E0
1.070259486E1,6.317051649E-1,-6.183651924E0,-1.375872970E0
1.071230949E1,5.742774606E-1,-3.899702787E0,-1.558026671E0
1.072202324E1,2.365903407E-1,-1.266401410E0,-2.917748213E0
1.073173626E1,-2.494517565E-1,1.707278967E0,-5.271089077E0
1.074145012E1,-5.676971674E-1,5.121238708E0,-7.593323708E0
1.075116470E1,-5.485545993E-1,5.020740032E0,-7.629215717E0
1.076087855E1,-4.049852192E-1,4.623232365E0,-5.931807518E0
1.077059152E1,-8.096713424E-1,4.472484589E0,-3.396611691E0
1.078030538E1,-1.558923960E0,2.387139797E0,-1.399801254E0
1.079001996E1,-2.724826813E0,5.772684813E-1,-3.825525343E-1
1.079973371E1,-2.478366137E0,-8.614161611E-2,-6.242275834E-1
1.080944673E1,-1.726421595E0,-8.928219676E-1,-1.086341500E0
1.081916064E1,-7.594220638E-1,-1.680359721E0,-1.148554921E0
1.082887522E1,4.689932466E-1,-2.286042929E0,-1.071984529E0
1.083858897E1,1.814357758E0,-2.683550596E0,-9.137591720E-1
1.084830199E1,2.836691141E0,-2.786442041E0,-7.223333120E-1
1.085801584E1,2.822334290E0,-2.573480844E0,-7.079764009E-1
1.086773048E1,2.503789902E0,-2.183151484E0,-7.941179872E-1
1.087744423E1,2.180758715E0,-1.673181176E0,-9.690931439E-1
1.088715725E1,1.759322882E0,-1.240080357E0,-8.635098934E-1
1.089687111E1,1.215852976E0,-7.348956466E-1,-1.091127157E0
1.090658569E1,2.940180898E-1,-9.571290761E-2,-1.481157184E0
1.091629954E1,-7.139584422E-1,5.318048596E-1,-1.514955878E0
1.092601246E1,-1.783849239E0,1.027119160E0,-1.373480201E0
1.093572637E1,-2.583650351E0,1.472483277E0,-1.251446247E0
1.094544095E1,-2.279462576E0,1.357627749E0,-1.356730461E0
1.095515470E1,-1.913360834E0,7.830511928E-1,-6.984050870E-1
1.096486772E1,-1.360319614E0,-1.268195957E-1,1.401296735E0
1.097458158E1,-1.252642632E0,-7.157530785E-1,3.886243105E0
1.098429621E1,-1.630708575E0,-7.325028181E-1,5.100002289E0
1.099400996E1,-2.009073734E0,-4.259224236E-1,3.886243105E0
1.100372298E1,-3.107977629E0,-6.559324861E-1,1.788933992E0
1.101343684E1,-4.503591537E0,-1.302293777E0,-3.054138899E0
1.102315142E1,-3.005086184E0,-4.744967461E0,-1.392832184E1
1.103286527E1,-2.164607286E0,-1.144128132E1,-1.862782478E1
1.104257824E1,-6.830611229E0,-2.019153404E1,-1.075603676E1
1.105229210E1,-7.113263607E0,-2.986392212E1,-8.306982994E0
1.106200668E1,-3.751945972E0,-3.752005768E1,-1.091157055E1
1.107172043E1,4.232304990E-1,-3.607419586E1,-1.553001690E1
1.108143345E1,1.649253011E0,-3.150121117E1,-9.077771187E0
1.109114730E1,2.219043970E0,-2.856850815E1,-5.115555763E0
1.110086194E1,1.170389414E0,-2.451297188E1,-4.428516388E0
1.111057569E1,-1.946860313E0,-2.131915283E1,-5.321338654E0
1.112028871E1,-6.785147667E0,-1.947338867E1,-5.460421085E0
1.113000256E1,-1.151844978E1,-1.890120506E1,-4.864309311E0
1.113971720E1,-1.397468281E1,-1.793630028E1,-5.934200287E0
1.114943095E1,-1.266999626E1,-1.791476440E1,-6.887141705E0
1.115914397E1,-9.978967667E0,-1.881984901E1,-6.595217228E0
1.116885782E1,-7.482057095E0,-1.964088631E1,-7.042675018E0
1.117857241E1,-5.494818211E0,-1.960977936E1,-7.009175777E0
1.118828616E1,-4.214059830E0,-1.931785583E1,-6.154638767E0
1.119799918E1,-3.335295677E0,-1.875763512E1,-7.205686092E0
1.120771308E1,-2.284248352E0,-1.812323952E1,-7.452147007E0
1.121742767E1,-1.288534999E0,-1.769701767E1,-5.879165173E0
1.122714142E1,-6.442674994E-1,-1.758694649E1,-4.507479668E0
1.123685444E1,7.148557901E-2,-1.754387665E1,-3.442075491E0
1.124656829E1,6.843472719E-1,-1.710090446E1,-2.350350142E0
1.125628293E1,8.398807645E-1,-1.624128342E1,-2.043769598E0
1.126599668E1,8.997012973E-1,-1.471167183E1,-2.635395050E0
1.127570970E1,8.638089895E-1,-1.254975700E1,-3.463610888E0
1.128542355E1,6.173482537E-1,-1.001665497E1,-3.959224224E0
1.129513814E1,5.216353536E-1,-7.543672562E0,-4.184149265E0
1.130485199E1,6.747759581E-1,-4.919643402E0,-3.889832258E0
1.131456491E1,8.614161611E-1,-2.097009897E0,-3.262613773E0
1.132427881E1,9.379864931E-1,1.489233017E0,-3.521038532E0
1.133399340E1,1.073779166E-1,2.856431961E0,-3.233899832E0
1.134370715E1,-5.174478889E-1,3.160320520E0,-1.143769264E0
1.135342017E1,-9.269196987E-1,5.142774105E0,3.095714152E-1
1.136313402E1,-1.745564103E0,5.288736343E0,3.885345757E-1
1.137284861E1,-3.174976587E0,5.564209938E0,-7.534400225E-1
1.138256246E1,-4.407878399E0,4.347758770E0,-2.383849621E0
1.139227543E1,-3.352045536E0,1.972882271E0,-3.049353361E0
1.140198928E1,-1.999502420E0,3.352942765E-1,-3.434896946E0
1.141170387E1,-9.460622668E-1,-1.405185103E0,-2.640180588E0
1.142141762E1,-2.303091735E-1,-2.276471615E0,-9.475577474E-1
1.143113064E1,1.911267042E-1,-2.250150681E0,-3.290131316E-2
1.144084449E1,5.144568682E-1,-1.675574064E0,-2.745763958E-1
1.145055913E1,8.231309652E-1,-9.574281573E-1,-7.055835724E-1
1.146027288E1,1.120140076E0,-4.666004181E-1,-8.252246976E-1
1.146998590E1,1.493420482E0,-2.392822653E-1,-5.165506005E-1
1.147969975E1,1.685145378E0,-3.206382394E-1,1.154536903E-1
1.148941434E1,1.699502230E0,-5.958128572E-1,4.866403043E-1
1.149912808E1,1.579861164E0,-8.784649968E-1,5.608177781E-1
1.150884111E1,1.651645780E0,-1.115354419E0,5.416752100E-1
1.151855501E1,1.718644857E0,-1.386042476E0,8.913264424E-2
1.152826960E1,1.529312730E0,-1.409970760E0,-6.529414654E-1
1.153798334E1,8.949156404E-1,-1.216152072E0,-1.845165372E0
1.154769637E1,1.624128371E-1,-9.933205247E-1,-2.886641502E0
1.155741022E1,-2.398804724E-1,-8.090731502E-1,-2.326421738E0
1.156712480E1,-8.599206209E-1,-7.660023570E-1,-1.483550072E0
1.157683866E1,-1.391426325E0,-1.086640596E0,-2.972783089E0
1.158655158E1,-2.988336325E0,-1.931905150E0,-2.798106909E0
1.159626548E1,-4.932205677E0,-2.666800737E0,-3.078067303E0
1.160598006E1,-4.822135925E0,-4.898108006E0,-3.908974886E0
1.161569381E1,-4.982454777E0,-8.554041862E0,-3.190829039E0
1.162540684E1,-4.817350388E0,-1.214507008E1,-4.859224796E0
1.163512069E1,-2.332104683E0,-1.559013653E1,-6.913462639E0
1.164483527E1,-1.628315806E0,-2.012453651E1,-6.042176247E0
1.165454913E1,-2.710469961E0,-2.389532471E1,-6.219244957E0
1.166426210E1,-9.556335211E-1,-2.452015114E1,-7.677371502E0
1.167397595E1,-5.270192027E-1,-2.308116722E1,-6.291029930E0
1.168369053E1,-7.067800164E-1,-2.495115852E1,-1.010967541E1
1.169340428E1,-1.096810102E0,-2.440290260E1,-7.421040535E0
1.170311730E1,-2.152642965E0,-2.448186493E1,-4.296612263E0
1.171283116E1,-3.038585663E0,-2.548744965E1,-5.934200287E0
1.172254579E1,-3.816552162E0,-2.657917404E1,-7.299006462E0
1.173225954E1,-6.203392506E0,-2.627498817E1,-5.407480240E0
1.174197256E1,-8.238488197E0,-2.523590469E1,-4.291826725E0
1.175168642E1,-7.745267868E0,-2.409871483E1,-4.447659016E0
1.176140100E1,-6.217749596E0,-2.205913353E1,-3.897010803E0
1.177111475E1,-6.155536175E0,-2.022982025E1,-4.627120972E0
1.178082777E1,-7.163512707E0,-1.844866180E1,-6.216852188E0
1.179054163E1,-8.226524353E0,-1.727797318E1,-7.971688747E0
1.180025626E1,-8.279166222E0,-1.696690750E1,-8.117650986E0
1.180997001E1,-6.737291336E0,-1.711765480E1,-7.706085205E0
1.181968303E1,-4.826921463E0,-1.729711723E1,-6.288637161E0
1.182939689E1,-3.160619497E0,-1.683978844E1,-4.153042793E0
1.183911147E1,-1.546959877E0,-1.589193153E1,-2.321636200E0
1.184882522E1,7.866404206E-2,-1.465873051E1,-1.435693622E0
1.185853824E1,1.517348647E0,-1.315783215E1,-1.215553880E0
1.186825210E1,2.307578325E0,-1.151545906E1,-1.203589797E0
1.187796668E1,2.463111877E0,-9.765408516E0,-1.675274968E0
1.188768053E1,2.202294111E0,-7.744669437E0,-2.525026083E0
1.189739350E1,1.754537225E0,-5.743372440E0,-3.221935749E0
1.190710736E1,1.309173107E0,-3.973880291E0,-3.468396425E0
1.191682194E1,1.031605721E0,-2.173580170E0,-3.341576815E0
1.192653569E1,5.527420044E-1,-4.642075896E-1,-2.889034271E0
1.193624871E1,3.320041299E-2,1.082453132E0,-2.321636200E0
1.194596256E1,-4.887340367E-1,2.564208508E0,-1.948056698E0
1.195567715E1,-1.025025368E0,3.660719633E0,-1.641775489E0
1.196539090E1,-1.702493310E0,4.019941807E0,-1.371087432E0
1.197510392E1,-2.435295343E0,4.046263218E0,-1.203589797E0
1.198481782E1,-2.923431158E0,3.744468451E0,-1.320838094E0
1.199453241E1,-2.736790895E0,2.643171787E0,-1.625025630E0
1.200424616E1,-2.190928221E0,1.245165110E0,-1.773380637E0
1.201395918E1,-1.590030670E0,9.601201117E-2,-1.639382601E0
1.202367303E1,-9.580263495E-1,-8.018946648E-1,-1.392622828E0
1.203338762E1,-4.456632137E-1,-1.259222865E0,-9.523434043E-1
1.204310137E1,-2.691925503E-3,-1.345364571E0,-4.591228366E-1
1.205281439E1,3.203391433E-1,-1.264008522E0,-2.171486616E-1
1.206252824E1,5.096712112E-1,-1.089033365E0,-3.439682424E-1
1.207224288E1,7.345965505E-1,-1.103390336E0,-4.974080026E-1
1.208195663E1,9.355936646E-1,-1.249651670E0,-5.021936297E-1
1.209166965E1,1.098604679E0,-1.467398524E0,-3.945166469E-1
1.210138350E1,1.318744421E0,-1.680359721E0,-6.433702111E-1
1.211109808E1,1.467099428E0,-1.864906192E0,-1.079162955E0
1.212081184E1,1.536491275E0,-2.018046856E0,-1.378265858E0
1.213052486E1,1.642074585E0,-2.041975021E0,-1.395015597E0
1.214023871E1,1.816750646E0,-1.936690807E0,-1.186840057E0
1.214995329E1,1.644467354E0,-1.783550143E0,-1.028913736E0
1.215966704E1,1.273280740E0,-1.632503271E0,-2.266601324E0
1.216938006E1,3.299104273E-1,-1.958226204E0,-2.469991207E0
1.217909392E1,-1.740778446E0,-2.642872572E0,-2.843570709E0
1.218880855E1,-4.613960266E0,-3.500101328E0,-4.907380104E0
1.219852230E1,-7.929515362E0,-5.738586903E0,-7.368398190E0
1.220823532E1,-9.938289642E0,-9.437292099E0,-8.543871880E0
1.221794918E1,-1.102283669E1,-1.336840057E1,-6.925426960E0
1.222766376E1,-9.047561646E0,-1.877199364E1,-8.524729729E0
1.223737751E1,-4.450949192E0,-2.405325127E1,-1.262812138E1
1.224709053E1,8.350951076E-1,-2.809682274E1,-7.377969742E0
1.225680439E1,4.486243248E0,-3.117339516E1,-4.239184380E0
1.226651902E1,3.413660526E0,-2.987110138E1,-4.603192329E0
1.227623277E1,2.078764737E-1,-2.770679283E1,-6.279065609E0
1.228594579E1,-4.269094467E0,-2.596392059E1,-6.472884178E0
1.229565965E1,-7.201797962E0,-2.517847633E1,-4.660620213E0
1.230537423E1,-8.624032021E0,-2.588226509E1,-2.309672117E0
1.231508798E1,-8.324629784E0,-2.540848541E1,-7.031907439E-1
1.232480100E1,-8.863314629E0,-2.444836617E1,-3.044567823E0
1.233451486E1,-9.567103386E0,-2.324657059E1,-5.067699432E0
1.234422944E1,-9.129216194E0,-2.173819542E1,-5.469992638E0
1.235394319E1,-7.723732471E0,-2.045504379E1,-6.901498795E0
1.236365621E1,-6.107679844E0,-1.945663834E1,-7.473682404E0
1.237337006E1,-4.819743156E0,-1.898016739E1,-6.348457813E0
1.238308470E1,-3.462115288E0,-1.850609016E1,-5.046164036E0
1.239279845E1,-1.664208174E0,-1.752234077E1,-4.141078472E0
1.240251147E1,2.413759828E-1,-1.663879204E1,-3.104388237E0
1.241222533E1,1.833500385E0,-1.556381607E1,-1.974377751E0
1.242193991E1,2.250150681E0,-1.391904926E1,-1.335195065E0
1.243165366E1,1.390529037E0,-1.145803165E1,-1.462014675E0
1.244136668E1,1.689931035E0,-9.320044518E0,-1.411765337E0
1.245108053E1,1.558026671E0,-7.316055298E0,-1.687239051E0
1.246079512E1,-6.969095767E-2,-5.204688549E0,-2.050948143E0
1.247050897E1,-1.628315806E0,-3.555136204E0,-2.300100803E0
1.248022189E1,-1.968395710E0,-1.860120535E0,-2.201995134E0
1.248993574E1,-1.676172256E0,3.113660514E-1,-2.513062000E0
1.249965038E1,-1.513460279E-1,2.334497690E0,-3.499503136E0
1.250936413E1,1.754537225E0,2.973680258E0,-3.959224224E0
1.251907715E1,1.744965911E0,2.736790895E0,-2.743072033E0
1.252879100E1,-6.801598072E-1,2.676671267E0,-9.137591720E-1
1.253850559E1,-3.632304668E0,1.673779488E0,1.154536903E-1
1.254821934E1,-4.645066738E0,6.083751321E-1,-8.012964725E-1
1.255793236E1,-3.763910055E0,-3.254238665E-1,-3.025425196E0
1.256764621E1,-1.764706731E0,-1.170389414E0,-4.143471718E0
1.257736079E1,5.712864175E-2,-1.682752490E0,-3.458825111E0
1.258707454E1,1.680359721E0,-1.843370795E0,-2.024626970E0
1.259678756E1,2.508575439E0,-1.591825247E0,-1.148554921E0
1.260650142E1,1.876571178E0,-9.526425004E-1,-8.826524615E-1
1.261621605E1,7.130611539E-1,-2.943171859E-1,-5.045864582E-1
1.262592980E1,-4.001995921E-1,-4.277170449E-2,3.409772366E-2
1.263564283E1,-1.034596682E0,-1.172483116E-1,4.292125702E-1
1.264535668E1,-5.078766346E-1,-3.876372576E-1,5.943173170E-1
1.265507126E1,7.866404206E-2,-3.708875179E-1,5.081757307E-1
1.266478501E1,5.120640397E-1,-4.331009090E-1,1.465603858E-1
1.267449803E1,4.689932466E-1,-2.273181528E-1,-1.573280841E-1
1.268421189E1,-1.274178028E-1,1.247258782E-1,-6.026921868E-1
1.269392647E1,-8.910273314E-1,3.281157911E-1,-1.466800332E0
1.270364022E1,-1.501496196E0,4.334000051E-1,-1.971984982E0
1.271335324E1,-1.843968987E0,2.324029058E-1,-1.869093537E0
1.272306710E1,-1.709671736E0,-2.584248483E-1,-1.179661512E0
1.273278168E1,-1.235593796E0,-1.220937729E0,-5.189434290E-1
1.274249553E1,1.217348501E-1,-2.278864384E0,-5.766702652E0
1.275220845E1,8.344969153E-2,-3.693919897E0,-5.647061348E0
1.276192236E1,-9.795617461E-1,-5.355436325E0,-5.089234829E0
1.277163694E1,-1.961217284E0,-8.649754524E0,-1.764706671E-1
1.278135069E1,-4.307379723E0,-1.153220844E1,6.615556240E0
1.279106371E1,-3.407080412E0,-1.425195122E1,-4.272684097E0
1.280077756E1,-1.420140266E0,-1.842951965E1,-2.133560371E1
1.281049215E1,-5.712564945E0,-2.414417839E1,-1.807717705E1
1.282020590E1,-8.365307808E0,-2.990220642E1,-8.821739197E0
1.282991892E1,1.129711390E0,-3.283251953E1,-5.091627598E0
1.283963277E1,5.407779217E0,-3.143181992E1,1.250249892E-1
1.284934736E1,4.481457710E0,-2.605723953E1,-1.507777333E0
1.285906111E1,-7.977072597E-1,-2.111097717E1,8.434699476E-2
1.286877413E1,-6.114858150E0,-1.745265007E1,-3.078067303E0
1.287848798E1,-9.821041107E0,-1.663400650E1,-4.789832592E0
1.288820256E1,-1.082662487E1,-1.761326790E1,-5.127519608E0
1.289791642E1,-1.121426201E1,-1.929392624E1,-4.672584534E0
1.290762934E1,-1.095344448E1,-2.025614166E1,-5.757131100E0
1.291734324E1,-8.188239098E0,-2.158026886E1,-6.034997940E0
1.292705782E1,-4.733601570E0,-2.255474663E1,-7.569395542E0
1.293677158E1,-2.253141642E0,-2.307638168E1,-7.775477409E0
1.294648460E1,-1.230808139E0,-2.322503662E1,-6.626324177E0
1.295619845E1,-7.761718631E-1,-2.273181534E1,-5.737988472E0
1.296591303E1,-8.072785139E-1,-2.186740875E1,-4.514657974E0
1.297562678E1,-7.354938388E-1,-2.053400803E1,-3.748655796E0
1.298533980E1,-1.147059321E0,-1.844626999E1,-3.248256683E0
1.299505366E1,-1.779063582E0,-1.586800289E1,-3.482753277E0
1.300476824E1,-2.404188633E0,-1.342343616E1,-4.095614910E0
1.301448199E1,-2.370688915E0,-1.111316586E1,-3.935296059E0
1.302419501E1,-2.437688112E0,-9.116654396E0,-3.418147087E0
1.303390887E1,-2.440080881E0,-7.079165936E0,-2.805285454E0
1.304362350E1,-2.250748873E0,-5.558825970E0,-2.546561480E0
1.305333725E1,-1.808076620E0,-3.988237143E0,-2.819642305E0
1.306305022E1,-9.652048349E-1,-2.247757673E0,-3.482753277E0
1.307276408E1,2.964109182E-1,-6.702894568E-1,-3.647858143E0
1.308247871E1,1.254138112E0,8.285148144E-1,-2.685644388E0
1.309219246E1,1.546062589E0,2.186142683E0,-1.103091240E0
1.310190548E1,1.438385487E0,3.189034462E0,4.316053987E-1
1.311161934E1,6.652047038E-1,2.748754978E0,9.918249846E-1
1.312133392E1,-6.155536175E-1,2.104487419E0,6.302096844E-1
1.313104767E1,-1.855933070E0,1.572981834E0,-1.357926875E-1
1.314076069E1,-2.779861689E0,4.621138871E-1,-7.366902828E-1
1.315047454E1,-3.055335522E0,-6.702894568E-1,-1.586740494E0
1.316018913E1,-2.605185747E0,-1.618146300E0,-2.606382132E0
1.316990288E1,-1.649851203E0,-2.228615284E0,-2.850749016E0
1.317961590E1,-6.011967063E-1,-2.259721994E0,-2.340778828E0
1.318932975E1,5.790630579E-1,-1.989332914E0,-1.589133382E0
1.319904434E1,2.072782516E0,-1.618146300E0,-8.515457511E-1
1.320875809E1,2.879761934E0,-1.077069283E0,-3.873381615E-1
1.321847111E1,2.846262455E0,-6.317051649E-1,-3.290131316E-2
1.322818496E1,2.298007011E0,-2.823530734E-1,3.263211846E-1
1.323789954E1,1.680359721E0,-1.986042857E-1,7.211369276E-1
1.324761329E1,1.225424290E0,-3.900300860E-1,5.943173170E-1
1.325732631E1,7.657032609E-1,-7.205387354E-1,1.417747438E-1
1.326704017E1,3.681955934E-1,-1.165603757E0,-4.854438901E-1
1.327675475E1,2.413759828E-1,-1.575075507E0,-1.270588875E0
1.328646850E1,4.737788737E-1,-1.888834357E0,-2.209173441E0
1.329618152E1,7.657032609E-1,-2.094617128E0,-3.157030344E0
1.330589538E1,8.063812256E-1,-2.223829508E0,-3.626322746E0
1.331560996E1,1.053141117E0,-2.508874655E0,-3.832404613E0
1.332532381E1,1.304387450E0,-2.616551638E0,-5.017449856E0
1.333503673E1,-1.752742529E-1,-2.949453115E0,-5.883950710E0
1.334475059E1,-2.636292458E0,-3.325126171E0,-7.763513088E0
1.335446522E1,-5.025525570E0,-5.515755177E0,-6.664609432E0
1.336417897E1,-8.042277336E0,-9.334401131E0,-1.742274046E0
1.337389199E1,-8.568997383E0,-1.327029514E1,7.307082415E-1
1.338360585E1,-6.445366859E0,-1.711047745E1,1.839183331E0
1.339332043E1,-4.089632988E0,-2.034258080E1,-2.029412746E0
1.340303418E1,-2.088036776E0,-2.321785736E1,-1.103599739E1
1.341274720E1,-1.745564103E0,-2.420908356E1,-1.424417400E1
1.342246105E1,-2.947658300E0,-2.522633362E1,-5.685346603E0
1.343217564E1,-2.004287958E0,-2.556402016E1,-1.337587833E0
1.344188939E1,-1.257428288E0,-2.520718956E1,-1.234696507E0
1.345160241E1,-1.853540182E0,-2.368954277E1,-5.718846321E0
1.346131626E1,-2.691327333E0,-2.232712936E1,-6.185745716E0
1.347103085E1,-4.553840637E0,-2.267199516E1,-6.118746758E0
1.348074460E1,-6.138786316E0,-2.288256264E1,-6.547360897E0
1.349045762E1,-7.673482895E0,-2.294716835E1,-7.394719124E0
1.350017147E1,-7.728518009E0,-2.255474663E1,-8.448159218E0
1.350988605E1,-6.749255180E0,-2.222423744E1,-7.763513088E0
1.351959980E1,-5.746363640E0,-2.167119598E1,-7.619644642E0
1.352931283E1,-4.702494621E0,-2.075414658E1,-7.966903210E0
1.353902668E1,-4.036691666E0,-1.956670952E1,-7.641180038E0
1.354874126E1,-3.744767427E0,-1.811366653E1,-6.355636120E0
1.355845501E1,-3.438187122E0,-1.688764572E1,-5.000699997E0
1.356816803E1,-3.088835001E0,-1.574327755E1,-3.614358664E0
1.357788189E1,-2.691327333E0,-1.468295765E1,-2.745464802E0
1.358759652E1,-2.291426897E0,-1.392144203E1,-1.885843396E0
1.359731027E1,-1.692921996E0,-1.311476135E1,-1.167697430E0
1.360702329E1,-1.151844978E0,-1.205653572E1,-8.276175261E-1
1.361673715E1,-1.144666553E0,-1.066301632E1,-1.519741535E0
1.362645173E1,-9.987043738E-1,-8.979964256E0,-2.496312141E0
1.363616548E1,-6.948158741E-1,-7.162914753E0,-2.479562521E0
1.364587850E1,-4.695914388E-1,-5.295615673E0,-1.792523265E0
1.365559236E1,-3.451646566E-1,-3.423231840E0,-1.543669701E0
1.366530694E1,-3.116651475E-1,-1.369292736E0,-1.043270707E0
1.367502069E1,-4.671986103E-1,6.155536175E-1,-3.176472187E-1
1.368473371E1,-5.676971674E-1,2.849253654E0,-2.434697002E-1
1.369444756E1,-7.187440991E-1,4.551447868E0,-9.379864931E-1
1.370416215E1,-6.490531564E-1,4.687838554E0,-1.536491275E0
1.371387590E1,-5.006981492E-1,4.182653904E0,-2.381456852E0
1.372358892E1,-8.024929166E-1,2.755933523E0,-2.898605585E0
1.373330277E1,-1.151844978E0,9.170492887E-1,-2.630609512E0
1.374301736E1,-1.453639746E0,-3.804588020E-1,-2.268994093E0
1.375273111E1,-1.649851203E0,-1.252044439E0,-2.087139606E0
1.376244413E1,-1.515853167E0,-1.661217093E0,-1.804487348E0
1.377215798E1,-1.393819213E0,-1.797907114E0,-1.761416554E0
1.378187256E1,-1.386640668E0,-1.694716692E0,-1.821237087E0
1.379158631E1,-1.135095239E0,-1.472184181E0,-1.548455358E0
1.380129934E1,-6.538388133E-1,-1.450648785E0,-9.834501147E-1
1.381101319E1,-2.350948304E-1,-1.527219057E0,-4.447658956E-1
1.382072782E1,1.959123611E-1,-1.579861164E0,-7.597211748E-2
1.383044158E1,8.279166222E-1,-1.539183140E0,-1.238285750E-1
1.384015460E1,1.594218135E0,-1.606182218E0,-7.103692293E-1
1.384986845E1,2.209472656E0,-1.824228168E0,-1.354337573E0
1.385958303E1,2.451147795E0,-2.039582253E0,-1.727917075E0
1.386929678E1,2.005783558E0,-1.984547257E0,-2.060818434E0
1.387900980E1,1.280459166E0,-1.661217093E0,-2.302493572E0
1.388872366E1,4.402793646E-1,-1.072283626E0,-2.290529490E0
1.389843824E1,-3.379862010E-1,-5.192425251E-1,-2.900998354E0
1.390815199E1,-1.101595759E0,-4.283152521E-1,-4.155435562E0
1.391786501E1,-2.373081923E0,-1.129711390E0,-2.963211775E0
1.392757887E1,-3.940979004E0,-2.104188442E0,-1.732702732E0
1.393729345E1,-4.092025757E0,-3.904488325E0,-1.562812328E0
1.394700720E1,-2.686541557E0,-6.966702938E0,-1.363908887E0
1.395672022E1,-1.322034478E0,-1.007168961E1,-3.063710213E0
1.396643408E1,-1.175474152E-1,-1.349761391E1,-7.804191113E0
1.397614866E1,2.841476910E-2,-1.793869209E1,-1.558983803E1
1.398586241E1,-3.876372576E0,-2.243241310E1,-1.187408352E1
1.399557543E1,-4.015156269E0,-2.728535652E1,-7.665108204E0
1.400528928E1,-4.271487713E0,-2.932523727E1,-6.477670193E0
1.401500392E1,-5.382355213E0,-2.783600426E1,-7.119544506E0
1.402471767E1,-4.999204636E0,-2.510908508E1,-8.891130447E0
1.403443069E1,-4.403092861E0,-2.418485641E1,-4.291826725E0
1.404414454E1,-4.297808647E0,-2.472114754E1,-3.320041299E-1
1.405385913E1,-3.057728291E0,-2.239412880E1,-2.599203587E0
1.406357288E1,-3.838087559E0,-2.079961014E1,-4.893023014E0
1.407328590E1,-5.849255085E0,-2.008385849E1,-2.915355206E0
1.408299975E1,-7.977371693E0,-1.959781647E1,-2.225923300E0
1.409271434E1,-9.670293808E0,-1.857069588E1,-4.153042793E0
1.410242809E1,-1.022572803E1,-1.776640892E1,-5.714060307E0
1.411214111E1,-9.761220932E0,-1.738565063E1,-7.030711174E0
1.412185496E1,-8.336593628E0,-1.734975815E1,-7.768298626E0
1.413156954E1,-5.954539299E0,-1.725643921E1,-6.422635078E0
1.414128329E1,-3.249154091E0,-1.717986870E1,-3.710071564E0
1.415099631E1,-5.389832854E-1,-1.695972824E1,-2.185245275E0
1.416071017E1,1.819143414E0,-1.664596939E1,-2.460419893E0
1.417042475E1,2.757728100E0,-1.654786491E1,-3.037389278E0
1.418013861E1,2.192722797E0,-1.611924934E1,-2.845963478E0
1.418985152E1,5.479564071E-1,-1.529581928E1,-2.237887383E0
1.419956538E1,-1.697707653E0,-1.377787304E1,-2.767000198E0
1.420927996E1,-3.103191853E0,-1.184327602E1,-4.076472282E0
1.421899381E1,-3.265903711E0,-9.846764565E0,-4.904987335E0
1.422870678E1,-2.669791937E0,-7.890631676E0,-4.897809029E0
1.423842064E1,-1.942074656E0,-5.882156372E0,-4.136292934E0
1.424813522E1,-1.204487085E0,-3.933202267E0,-3.214757204E0
1.425784897E1,9.272187948E-3,-1.891227245E0,-2.216351986E0
1.426756199E1,1.261316657E0,4.190430641E-1,-1.668096542E0
1.427727584E1,1.804786444E0,1.647458434E0,-1.957628012E0
1.428699043E1,1.828714728E0,1.211665511E0,-1.430907965E0
1.429670418E1,1.529312730E0,2.799004316E0,-3.415754437E-1
1.430641720E1,6.388836503E-1,3.385545015E0,2.186441720E-1
1.431613105E1,-5.150550604E-1,3.900300980E0,-9.619147182E-1
1.432584564E1,-1.839183331E0,2.767897606E0,-3.458825111E0
1.433555939E1,-1.518245935E0,1.166201949E0,-5.544169903E0
1.434527241E1,-4.384847581E-1,-8.614161611E-2,-5.565705299E0
1.435498626E1,2.437688112E-1,-1.419542074E0,-3.413361549E0
1.436470085E1,2.102692872E-1,-2.327019930E0,-8.060821295E-1
1.437441460E1,1.405783277E-2,-2.585444927E0,6.804589629E-1
1.438412762E1,-2.853440940E-1,-2.070688963E0,8.099704385E-1
1.439384147E1,-3.667000830E-1,-1.350150228E0,-1.375873014E-2
1.440355605E1,-4.408775866E-1,-6.726822853E-1,-7.701897621E-1
1.441326980E1,-4.743770957E-1,-1.698904037E-1,-1.064806104E0
1.442298282E1,-2.997010350E-1,3.140579537E-2,-8.682954907E-1
1.443269668E1,1.408774406E-1,-2.129612118E-1,4.366901144E-2
1.444241131E1,6.173482537E-1,-6.221339107E-1,1.144965649E0
1.445212501E1,1.084247708E0,-1.129711390E0,1.652543187E0
1.446183803E1,1.831107497E0,-1.594218135E0,1.674078584E0
1.447155189E1,2.233400822E0,-1.733001828E0,1.499402523E0
1.448126652E1,1.579861164E0,-1.448255897E0,7.043871880E-1
1.449098027E1,3.251247704E-1,-8.593224287E-1,-1.036092162E0
1.450069329E1,-1.494317770E0,-4.378865361E-1,-3.547359467E0
1.451040715E1,-4.106382847E0,-8.784649968E-1,-6.484848499E0
1.452012173E1,-6.627221584E0,-1.934298038E0,-7.842476368E0
1.452983548E1,-7.864908695E0,-5.520540714E0,-7.653144360E0
1.453954850E1,-8.082955360E0,-1.061515903E1,-8.759226799E0
1.454926236E1,-8.736495018E0,-1.656461334E1,-5.620740414E0
1.455897694E1,-7.675876141E0,-2.306681061E1,1.152144074E0
1.456869069E1,-2.128714800E0,-3.050310516E1,-4.835296154E0
1.457840371E1,5.484349728E0,-3.383810043E1,-9.690632820E0
1.458811756E1,7.229913712E0,-3.347648621E1,-3.923331738E0
1.459783215E1,5.678467274E0,-3.221487045E1,-1.366301775E0
1.460754590E1,1.807179332E0,-3.062513924E1,9.152546525E-1
1.461725892E1,-2.461616278E0,-2.778336334E1,6.278168559E-1
1.462697277E1,-5.466104031E0,-2.469482613E1,-3.865904093E0
1.463668736E1,-8.238488197E0,-2.270070839E1,-6.583253384E0
1.464640111E1,-1.101565838E1,-2.126172447E1,-5.778666496E0
1.465611413E1,-1.267478180E1,-2.019871330E1,-6.094818592E0
1.466582798E1,-1.252642632E1,-1.879113579E1,-7.001997471E0
1.467554256E1,-1.163091278E1,-1.717986870E1,-7.746763229E0
1.468525631E1,-1.009143066E1,-1.685175323E1,-7.514360428E0
1.469496934E1,-8.171489716E0,-1.768026733E1,-5.314159870E0
1.470468319E1,-4.994419098E0,-1.851326942E1,-1.473978758E0
1.471439777E1,-3.475574851E-1,-1.833620071E1,1.022931695E0
1.472411152E1,3.691227913E0,-1.778315926E1,1.590329766E0
1.473382454E1,6.600003242E0,-1.668186188E1,2.030908108E0
1.474353840E1,7.864310741E0,-1.559970856E1,2.868695259E0
1.475325303E1,6.121438503E0,-1.355533981E1,3.208775282E0
1.476296673E1,3.145365477E0,-1.096481037E1,1.904088616E0
1.477267975E1,7.968099117E-1,-8.137392044E0,-4.950151742E-1
1.478239361E1,-1.199701428E0,-5.245366573E0,-2.692822695E0
1.479210819E1,-2.734398127E0,-2.425125837E0,-4.143471718E0
1.480182194E1,-3.249154091E0,-2.464607358E-1,-4.574478626E0
1.481153496E1,-3.136691332E0,1.678565025E0,-4.433301926E0
1.482124881E1,-3.198904753E0,3.356831074E0,-3.753441334E0
1.483096345E1,-2.796611547E0,4.024727821E0,-2.958425999E0
1.484067720E1,-2.143071890E0,3.998406649E0,-2.649751902E0
1.485039017E1,-1.424925923E0,3.143570662E0,-2.393420935E0
1.486010402E1,-1.872383654E-1,1.891526341E0,-3.396611691E0
1.486981866E1,9.906286001E-1,8.596215248E-1,-5.098805904E0
1.487953241E1,1.519741535E0,-1.172483116E-1,-5.151448250E0
1.488924538E1,1.258923769E0,-1.067497969E0,-3.889832258E0
1.489895923E1,5.838487148E-1,-2.082653046E0,-2.438884497E0
1.490867387E1,2.461616248E-1,-2.573480844E0,-1.720738530E0
1.491838762E1,3.011965454E-1,-2.738585472E0,-1.553241014E0
1.492810059E1,5.407779217E-1,-2.721835852E0,-1.380658627E0
1.493781444E1,8.470591903E-1,-2.547159672E0,-1.239482164E0
1.494752908E1,1.273280740E0,-2.382055044E0,-8.635098934E-1
1.495724283E1,1.416850090E0,-2.027618170E0,9.870393574E-2
1.496695579E1,1.680359721E0,-1.508076429E0,1.346261859E0
1.497666965E1,1.699502230E0,-1.247258782E0,2.447558403E0
1.498638428E1,1.931606054E0,-1.026820064E0,3.180061340E0
1.499609803E1,2.214258194E0,-6.774678826E-1,2.859123945E0
1.500581100E1,1.716252089E0,-1.603191197E-1,1.609472275E0
1.501552486E1,2.748754919E-1,3.831507266E-1,2.114657015E-1
1.502523949E1,-1.561316729E0,7.447660565E-1,-3.768695518E-2
1.503495324E1,-3.237190008E0,7.112665176E-1,-2.147558331E-1
1.504466621E1,-3.931407690E0,1.534397453E-1,-3.070888758E0
1.505438006E1,-4.147060871E0,-5.647061467E-1,-6.602396011E0
1.506409470E1,-4.697709084E0,-8.712865710E-1,-7.710870743E0
1.507380845E1,-3.931407690E0,-2.685943365E0,-8.450551987E0
1.508352142E1,-3.574877024E0,-6.700800896E0,-3.066103220E0
