"Time (s)","Gyroscope x (rad/s)","Gyroscope y (rad/s)","Gyroscope z (rad/s)"
9.029230400E-2,-1.418692708E0,-2.420482337E-1,-9.452861547E-2
1.000069390E-1,-1.654479742E0,-3.715478480E-1,-6.398624927E-2
1.097206890E-1,-1.772984147E0,-5.499152541E-1,-4.321744293E-2
1.194337100E-1,-1.783979416E0,-7.392778993E-1,-2.977880463E-2
1.291475640E-1,-1.694795728E0,-9.298622608E-1,-2.244863659E-2
1.388621470E-1,-1.524980187E0,-1.107007980E0,-1.756185852E-2
1.485758970E-1,-1.291636586E0,-1.224290609E0,3.206948051E-3
1.582889180E-1,-1.047297597E0,-1.254832983E0,3.619270027E-2
1.680027720E-1,-8.860339522E-1,-1.199856758E0,7.406523079E-2
1.777173560E-1,-8.628217578E-1,-1.032484531E0,1.278197914E-1
1.874311060E-1,-1.064401388E0,-7.295043468E-1,2.463241518E-1
1.971441270E-1,-1.693574071E0,-4.656183124E-1,5.286883116E-1
2.068579810E-1,-2.653825998E0,-3.507790267E-1,9.342908859E-1
2.165726160E-1,-3.274446726E0,-2.005106062E-1,1.233605981E0
2.262863660E-1,-3.111961365E0,3.286358118E-1,1.391204596E0
2.359993870E-1,-2.190803766E0,1.573542595E0,1.509709001E0
2.457132410E-1,-9.972081780E-1,2.451941013E0,1.578123927E0
2.554278250E-1,-3.521534503E-1,1.726254344E0,1.402199864E0
2.651415750E-1,-8.286142945E-1,2.870981991E-1,9.672766328E-1
2.748545950E-1,-1.722894669E0,-7.637118101E-1,5.690042377E-1
2.845684500E-1,-2.034426689E0,-1.359898686E0,4.602734149E-1
2.942830850E-1,-1.661809921E0,-1.425870180E0,4.834856093E-1
3.039968350E-1,-1.036302328E0,-1.163205862E0,3.662029207E-1
3.137098560E-1,-6.832326651E-1,-7.722636461E-1,5.940489471E-2
3.234237100E-1,-5.549547076E-1,-5.548020005E-1,-3.388675153E-1
3.331382930E-1,-2.079934925E-1,-4.460712075E-1,-6.271874309E-1
3.428520430E-1,4.883723855E-1,-1.992889196E-1,-6.821636558E-1
3.525650640E-1,1.223985195E0,2.418955117E-1,-5.404471159E-1
3.622789180E-1,1.699224353E0,7.122479081E-1,-3.510844707E-1
3.719935540E-1,1.891030431E0,1.017671585E0,-1.812689304E-1
3.817073040E-1,1.939898133E0,1.125180602E0,-5.176930502E-2
3.914203250E-1,1.960667014E0,1.123958945E0,2.641914412E-2
4.011341790E-1,1.992431045E0,1.057987452E0,3.863608837E-2
4.108487620E-1,2.032747030E0,9.284878373E-1,-3.588727489E-2
4.205625120E-1,2.046185493E0,7.684458494E-1,-1.641651988E-1
4.302755330E-1,2.016865015E0,5.986303091E-1,-3.058817685E-1
4.399893870E-1,1.960667014E0,4.349232614E-1,-4.390464723E-1
4.497040220E-1,1.904469013E0,2.883199155E-1,-5.526640415E-1
4.594177720E-1,1.866596460E0,1.183516532E-1,-5.954233408E-1
4.691307930E-1,1.806733489E0,-6.856760383E-2,-5.392253995E-1
4.788446470E-1,1.641804695E0,-2.322746664E-1,-3.779617548E-1
4.885592310E-1,1.387692213E0,-3.849864900E-1,-1.885990947E-1
4.982730850E-1,1.135870457E0,-5.413633585E-1,-2.733541466E-2
5.079860020E-1,9.526162744E-1,-6.329904795E-1,8.628217876E-2
5.176999080E-1,8.451071978E-1,-5.792359114E-1,1.473668963E-1
5.274144910E-1,7.925743461E-1,-4.314108789E-1,1.400367320E-1
5.371282410E-1,7.754706144E-1,-2.554868758E-1,6.306997687E-2
5.468412620E-1,7.864658237E-1,-7.589777559E-2,-7.009471953E-2
5.565551160E-1,8.328902125E-1,9.513945878E-2,-1.995943487E-1
5.662697520E-1,9.025267959E-1,3.176405728E-1,-2.777827978E-1
5.759835020E-1,9.416210651E-1,6.914790869E-1,-2.936648130E-1
5.856965220E-1,9.220739603E-1,1.059209108E0,-2.557922900E-1
5.954103770E-1,8.646543026E-1,1.213142633E0,-1.714953631E-1
6.051249600E-1,7.656970620E-1,1.084864736E0,-8.597674966E-2
6.148388140E-1,6.166502833E-1,8.063184023E-1,-7.253811508E-2
6.245517830E-1,4.052971601E-1,4.874561131E-1,-7.864658535E-2
6.342656370E-1,1.511846930E-1,1.954711229E-1,-6.520794332E-2
6.439802200E-1,-1.053711548E-1,-5.146388337E-2,-3.955236077E-2
6.536939700E-1,-3.362714052E-1,-2.139492482E-1,-2.367033064E-2
6.634069910E-1,-5.048652887E-1,-2.933593988E-1,-1.634016447E-2
6.731208450E-1,-6.026008129E-1,-3.239017725E-1,-5.344913341E-3
6.828354810E-1,-6.294780970E-1,-3.300102353E-1,-4.123218823E-3
6.925492310E-1,-6.123743653E-1,-3.458922505E-1,-5.344913341E-3
7.022622520E-1,-6.135960817E-1,-3.996468186E-1,4.428642802E-3
7.119761060E-1,-6.844543815E-1,-4.815003574E-1,-1.878355257E-2
7.216907410E-1,-8.005153537E-1,-5.682406425E-1,-7.864658535E-2
7.314044910E-1,-9.043593407E-1,-5.743491650E-1,-1.739387512E-1
7.411175120E-1,-9.739959836E-1,-4.973823726E-1,-2.899997234E-1
7.508313660E-1,-1.082726717E0,-4.705050886E-1,-4.194993675E-1
7.605460020E-1,-1.209782958E0,-5.169295073E-1,-5.819846988E-1
7.702597520E-1,-1.362494826E0,-5.438067913E-1,-6.528429985E-1
7.799727720E-1,-1.575069666E0,-6.256603003E-1,-5.013529062E-1
7.896866270E-1,-1.639819503E0,-6.109999418E-1,-1.861557066E-1
7.994012620E-1,-1.433353066E0,-4.216373265E-1,2.194468826E-1
8.091150120E-1,-1.322178841E0,8.658760041E-2,7.705838084E-1
8.188280330E-1,-1.423579574E0,4.569137394E-1,1.304464340E0
8.285418870E-1,-1.323400617E0,2.333436459E-1,1.499935389E0
8.382565220E-1,-1.119377613E0,2.223484069E-1,1.118766785E0
8.479702720E-1,-7.406523228E-1,2.480039895E-1,3.600944579E-1
8.576832930E-1,-5.354076028E-1,-1.919587553E-1,-2.545706034E-1
8.673971470E-1,-5.354076028E-1,-4.191939235E-1,-5.025745630E-1
8.771117830E-1,-4.572191834E-1,-6.403206587E-1,-4.133908749E-1
8.868255330E-1,-3.484883606E-1,-7.050704360E-1,-2.472404242E-1
8.965385540E-1,-2.006633282E-1,-6.403206587E-1,-1.873773932E-1
9.062524080E-1,1.133121699E-1,-4.741701782E-1,-2.093679011E-1
9.159670430E-1,5.189147592E-1,-2.273878902E-1,-2.521272004E-1
9.256807930E-1,8.805363178E-1,1.328592747E-2,-2.631224692E-1
9.353938140E-1,1.163969398E0,2.076880634E-1,-2.338017821E-1
9.451077200E-1,1.294843435E0,3.188622594E-1,-2.118112892E-1
9.548223040E-1,1.305838704E0,3.396310806E-1,-1.727170646E-1
9.645360540E-1,1.298508525E0,2.846548259E-1,-1.165191159E-1
9.742490750E-1,1.261857748E0,2.382304370E-1,-6.520794332E-2
9.839629810E-1,1.220320106E0,2.113531530E-1,-2.244863659E-2
9.936775640E-1,1.185959935E0,1.453816444E-1,1.298050396E-2
1.003391418E0,1.145644069E0,5.848862603E-2,3.497100621E-2
1.013104387E0,1.111436605E0,-2.458660305E-2,3.130592033E-2
1.022818241E0,1.082115889E0,-1.064401343E-1,1.664558798E-2
1.032532877E0,1.049130201E0,-1.663031727E-1,-1.145338640E-2
1.042246627E0,1.017366052E0,-2.115058601E-1,-6.398624927E-2
1.051959647E0,9.562813640E-1,-1.882936656E-1,-1.311794519E-1
1.061673502E0,8.756495714E-1,-1.039967462E-1,-1.947075576E-1
1.071388137E0,7.962393761E-1,2.290677279E-3,-2.289150059E-1
1.081101887E0,6.862868667E-1,1.330119967E-1,-2.435753495E-1
1.090814908E0,5.836645365E-1,3.213056624E-1,-2.655658424E-1
1.100528814E0,5.384618640E-1,5.705313683E-1,-2.728960216E-1
1.110243397E0,5.482354164E-1,7.794411182E-1,-2.338017821E-1
1.119957252E0,5.519005060E-1,8.588512540E-1,-1.262926757E-1
1.129670220E0,4.957025647E-1,8.539644480E-1,1.786728203E-2
1.139384075E0,3.600944579E-1,8.295305967E-1,1.632489264E-1
1.149098710E0,1.963873953E-1,7.586722970E-1,2.843494117E-1
1.158812460E0,3.512371704E-2,6.352811456E-1,3.503209054E-1
1.168525481E0,-1.078145429E-1,4.801259339E-1,3.356605768E-1
1.178239387E0,-2.385358512E-1,2.895416021E-1,2.487675399E-1
1.187953970E0,-3.717005551E-1,8.292251825E-2,1.192679256E-1
1.197667825E0,-5.097520351E-1,-7.956285775E-2,-1.511846948E-2
1.207380793E0,-6.600204706E-1,-1.944021434E-1,-1.238492802E-1
1.217094647E0,-8.420529366E-1,-3.092414141E-1,-1.983726472E-1
1.226809283E0,-1.033859015E0,-4.314108789E-1,-2.386885732E-1
1.236523033E0,-1.219556570E0,-5.474718809E-1,-2.643441558E-1
1.246236106E0,-1.379598498E0,-6.354338527E-1,-2.863346636E-1
1.255949960E0,-1.504211426E0,-6.549809575E-1,-3.132119179E-1
1.265664595E0,-1.587286592E0,-5.926745534E-1,-2.985515893E-1
1.275378345E0,-1.630045891E0,-4.998257756E-1,-2.276933193E-1
1.285091366E0,-1.655701518E0,-4.741701782E-1,-1.214058921E-1
1.294805272E0,-1.705790997E0,-5.364766121E-1,7.635590737E-4
1.304519856E0,-1.750993609E0,-6.562026739E-1,1.058292910E-1
1.314233710E0,-1.814521790E0,-7.539382577E-1,2.023431510E-1
1.323946679E0,-1.961125135E0,-7.527165413E-1,3.356605768E-1
1.333660533E0,-2.207907438E0,-6.855233312E-1,4.688252807E-1
1.343375168E0,-2.446137905E0,-6.268820167E-1,5.152496696E-1
1.353089022E0,-2.587854385E0,-6.781931520E-1,5.677825212E-1
1.362801991E0,-2.618396759E0,-2.212794125E-1,8.023478985E-1
1.372515845E0,-2.455911398E0,1.117850542E0,1.173743010E0
1.382230481E0,-2.006327868E0,1.954711199E0,1.389982939E0
1.391944231E0,-1.600725293E0,1.619966984E0,1.060125470E0
1.401657304E0,-1.578734756E0,4.984513521E-1,4.773771465E-1
1.411371158E0,-1.747328639E0,-3.825430870E-1,3.619270027E-2
1.421085793E0,-1.652036428E0,-4.912739098E-1,-1.605001241E-1
1.430799543E0,-1.408919215E0,-3.666610718E-1,-2.057028115E-1
1.440512616E0,-1.196344376E0,-5.254813433E-1,-2.997733057E-1
1.450226470E0,-9.324583411E-1,-8.712208867E-1,-4.683671296E-1
1.459941106E0,-5.134171247E-1,-1.048366666E0,-5.282301903E-1
1.469654856E0,1.096470803E-1,-9.506310225E-1,-4.268295169E-1
1.479367929E0,8.047912717E-1,-6.488724947E-1,-2.521272004E-1
1.489081783E0,1.445111871E0,-4.509579837E-1,-1.580567211E-1
1.498796418E0,1.977770686E0,-3.544441164E-1,-1.763821393E-1
1.508510168E0,2.400476933E0,-2.090624720E-1,-1.531699449E-1
1.518223189E0,2.688796997E0,1.084253844E-2,-6.032116711E-2
1.527937095E0,2.830513477E0,2.040229887E-1,2.397575416E-2
1.537651731E0,2.887933016E0,3.017585576E-1,5.940489471E-2
1.547365481E0,2.912367105E0,3.347443044E-1,4.474456236E-2
1.557078554E0,2.913588762E0,3.371876776E-1,-4.321744293E-2
1.566792408E0,2.858612537E0,3.347443044E-1,-1.934858710E-1
1.576507043E0,2.741329670E0,3.298575282E-1,-3.608580232E-1
1.586220793E0,2.611830235E0,3.628432751E-1,-4.976878166E-1
1.595933866E0,2.499434233E0,4.923428893E-1,-5.770979524E-1
1.605647720E0,2.404142141E0,6.939224601E-1,-6.051968932E-1
1.615362356E0,2.277085781E0,8.576295376E-1,-5.697677732E-1
1.625076106E0,2.086501598E0,9.052756429E-1,-5.099047422E-1
1.634789179E0,1.771304369E0,7.904363275E-1,-4.158342779E-1
1.644503033E0,1.297286868E0,5.619794726E-1,-3.046600819E-1
1.654217668E0,8.170081973E-1,3.469612300E-1,-2.655658424E-1
1.663931418E0,5.543438792E-1,3.616215885E-1,-3.217637837E-1
1.673644491E0,5.653391480E-1,6.988092661E-1,-3.461976945E-1
1.683358345E0,7.156075835E-1,1.075091124E0,-2.790044844E-1
1.693072981E0,8.341119289E-1,1.101968408E0,-1.495048702E-1
1.702786731E0,7.828007340E-1,7.488987446E-1,-6.566607859E-3
1.712499804E0,5.653391480E-1,3.151971996E-1,9.727742523E-2
1.722213658E0,2.623589039E-1,1.939439960E-2,1.901262105E-1
1.731928293E0,-3.084778599E-2,-1.345391124E-1,2.377723008E-1
1.741642147E0,-2.654131353E-1,-2.774773538E-1,2.451024652E-1
1.751355116E0,-4.572191834E-1,-4.045335948E-1,2.328855246E-1
1.761069022E0,-5.964923501E-1,-4.436278343E-1,1.998997629E-1
1.770783606E0,-6.783458591E-1,-3.886515796E-1,1.375933439E-1
1.780497460E0,-7.357655168E-1,-2.799207568E-1,5.573981255E-2
1.790210429E0,-7.931851745E-1,-2.029540092E-1,-4.077405483E-2
1.799924335E0,-8.249492049E-1,-2.322746664E-1,-1.519482583E-1
1.809638918E0,-8.298360109E-1,-3.422271907E-1,-2.509055138E-1
1.819352772E0,-8.310576677E-1,-4.582881629E-1,-3.205420971E-1
1.829065741E0,-8.261709213E-1,-4.815003574E-1,-3.645231128E-1
1.838779647E0,-8.041804433E-1,-3.263451457E-1,-3.523061574E-1
1.848494283E0,-7.724163532E-1,-8.444963396E-2,-2.692309320E-1
1.858208033E0,-8.115105629E-1,1.183516532E-1,-1.201841980E-1
1.867921106E0,-1.008203387E0,-1.725643501E-2,3.619270027E-2
1.877634960E0,-1.281862974E0,-3.739912212E-1,1.559187621E-1
1.887349595E0,-1.653258085E0,-5.364766121E-1,3.246653080E-1
1.897063450E0,-2.055195570E0,-4.937172830E-1,4.895940721E-1
1.906776418E0,-2.049087048E0,-4.106420577E-1,5.372401476E-1
1.916490272E0,-1.631267548E0,-2.458660305E-2,5.580089688E-1
1.926204908E0,-1.316070437E0,5.974085927E-1,6.435275674E-1
1.935918762E0,-1.473669052E0,7.635591030E-1,7.180509567E-1
1.945631731E0,-1.832847238E0,2.626643181E-1,7.253811359E-1
1.955345637E0,-1.946464777E0,-3.972034156E-1,5.897729993E-1
1.965060220E0,-1.818186879E0,-7.930324674E-1,3.332171738E-1
1.974774075E0,-1.553079128E0,-9.005415440E-1,6.872031838E-3
1.984487043E0,-1.313627005E0,-4.741701782E-1,-3.168770075E-1
1.994200950E0,-1.075396657E0,3.405473381E-2,-5.587725043E-1
2.003915585E0,-8.335011005E-1,5.115845799E-2,-7.065975666E-1
2.013629335E0,-5.903838873E-1,-1.357607991E-1,-7.456917763E-1
2.023342356E0,-2.641914487E-1,-1.296523362E-1,-5.917583108E-1
2.033056262E0,1.621799469E-1,1.195733473E-1,-3.180987239E-1
2.042770897E0,5.543438792E-1,2.870981991E-1,-7.864658535E-2
2.052484647E0,8.035695553E-1,2.541124523E-1,3.863608837E-2
2.062197720E0,9.868237376E-1,6.948387623E-2,7.650861889E-2
2.071911575E0,1.146865726E0,-2.092151903E-2,8.139539510E-2
2.081626210E0,1.282626510E0,-8.567132801E-2,6.551336497E-2
2.091340064E0,1.373031974E0,-2.237228155E-1,1.298050396E-2
2.101053033E0,1.419456363E0,-4.130854607E-1,-6.520794332E-2
2.110766939E0,1.462215662E0,-5.865660906E-1,-1.372879148E-1
2.120481522E0,1.518413544E0,-6.671979427E-1,-1.727170646E-1
2.130195377E0,1.567281365E0,-6.586460471E-1,-1.788255423E-1
2.139908345E0,1.596602082E0,-6.085565686E-1,-1.653869003E-1
2.149622252E0,1.575833201E0,-5.291464329E-1,-1.360662282E-1
2.159336887E0,1.482984424E0,-4.375193417E-1,-1.140757278E-1
2.169050637E0,1.364480019E0,-3.691044450E-1,-1.006370857E-1
2.178763710E0,1.291178346E0,-3.104631305E-1,-9.941539168E-2
2.188477564E0,1.247197390E0,-1.882936656E-1,-1.214058921E-1
2.198192200E0,1.183516622E0,1.068982761E-3,-1.543916464E-1
2.207905950E0,1.074785709E0,2.052446753E-1,-1.666085869E-1
2.217619022E0,9.208522439E-1,4.019374847E-1,-1.311794519E-1
2.227332877E0,7.962393761E-1,5.986303091E-1,-6.154286116E-2
2.237047512E0,7.363763452E-1,7.928797603E-1,-2.244863659E-2
2.246761366E0,6.997255087E-1,9.052756429E-1,-2.733541466E-2
2.256474335E0,6.313106418E-1,9.077190161E-1,-2.122694254E-2
2.266188241E0,5.384618640E-1,8.380824327E-1,1.053711493E-2
2.275902825E0,4.431696832E-1,7.635591030E-1,6.551336497E-2
2.285616679E0,3.319954872E-1,7.000309825E-1,1.156028435E-1
2.295329647E0,2.098260373E-1,5.876350403E-1,1.449235082E-1
2.305043554E0,7.910472155E-2,4.117110670E-1,1.510319859E-1
2.314758189E0,-6.016845629E-2,1.869192570E-1,1.424801201E-1
2.324471939E0,-2.104368806E-1,-3.313846514E-2,1.290414780E-1
2.334185012E0,-3.729222417E-1,-1.882936656E-1,1.107160673E-1
2.343898866E0,-5.292991400E-1,-3.080197275E-1,7.040014863E-2
2.353613502E0,-6.795675755E-1,-4.277457893E-1,-1.023169141E-2
2.363327356E0,-8.115105629E-1,-5.254813433E-1,-1.030804738E-1
2.373040325E0,-9.080244303E-1,-6.085565686E-1,-1.739387512E-1
2.382754231E0,-9.520054460E-1,-6.366555691E-1,-2.057028115E-1
2.392468814E0,-9.275715351E-1,-5.621321797E-1,-2.105895877E-1
2.402182668E0,-8.457180262E-1,-4.033119082E-1,-1.861557066E-1
2.411895637E0,-7.528692484E-1,-2.469350100E-1,-1.238492802E-1
2.421609543E0,-6.649072170E-1,-2.334963679E-1,-3.222219273E-2
2.431324179E0,-6.734591126E-1,-3.935383558E-1,5.451811850E-2
2.441037929E0,-8.616000414E-1,-4.998257756E-1,1.363716573E-1
2.450751002E0,-1.182905674E0,-4.033119082E-1,2.696890533E-1
2.460464856E0,-1.538418770E0,-2.628170252E-1,4.346178174E-1
2.470179491E0,-1.790087938E0,-1.846285909E-1,5.519005060E-1
2.479893241E0,-1.900040388E0,-5.039489828E-3,6.374191046E-1
2.489606314E0,-1.849950910E0,5.399889946E-1,7.644753456E-1
2.499320168E0,-1.742441773E0,1.076312900E0,8.854231238E-1
2.509034804E0,-1.637376070E0,1.161831498E0,8.964183331E-1
2.518748658E0,-1.567739487E0,8.820634484E-1,7.314895988E-1
2.528461627E0,-1.532310367E0,4.862344265E-1,4.431696832E-1
2.538175533E0,-1.639819503E0,2.305948362E-2,1.913478971E-1
2.547890116E0,-1.713121176E0,-3.996468186E-1,1.542389300E-2
2.557603970E0,-1.432131410E0,-6.659762263E-1,-1.324011385E-1
2.567316939E0,-1.091278672E0,-5.987830162E-1,-2.496838123E-1
2.577030845E0,-8.481613994E-1,-5.511369109E-1,-3.352024257E-1
2.586745481E0,-5.940489769E-1,-7.136223316E-1,-3.914003670E-1
2.596459231E0,-2.971771955E-1,-7.404996157E-1,-3.290939629E-1
2.606172304E0,7.543963939E-2,-6.036698222E-1,-1.446180940E-1
2.615886158E0,5.091412067E-1,-3.800997138E-1,1.664558798E-2
2.625600793E0,9.672766328E-1,-1.039967462E-1,8.506047726E-2
2.635314647E0,1.381583810E0,2.602209449E-1,8.506047726E-2
2.645027616E0,1.748092175E0,6.597150564E-1,7.895200700E-2
2.654741522E0,2.064511061E0,1.004232883E0,9.483403713E-2
2.664456106E0,2.286859512E0,1.247350097E0,9.972081333E-2
2.674169960E0,2.369934559E0,1.303548098E0,6.062658876E-2
2.683882929E0,2.288081169E0,1.121515512E0,-3.833066672E-2
2.693596835E0,2.123152256E0,8.539644480E-1,-1.983726472E-1
2.703311470E0,1.997317791E0,6.120689511E-1,-3.229855001E-1
2.713025220E0,1.915464282E0,3.799470067E-1,-3.975088596E-1
2.722738293E0,1.796959877E0,1.232384369E-1,-4.317162931E-1
2.732452147E0,1.632031202E0,-1.357607991E-1,-4.060607255E-1
2.742166783E0,1.436560035E0,-3.434488773E-1,-3.510844707E-1
2.751880533E0,1.227650285E0,-4.656183124E-1,-2.985515893E-1
2.761593606E0,1.019809484E0,-4.876088202E-1,-2.509055138E-1
2.771307460E0,8.292251825E-1,-4.118637741E-1,-2.179197669E-1
2.781022095E0,6.667397618E-1,-2.188360244E-1,-2.166980654E-1
2.790735950E0,5.384618640E-1,5.482354015E-2,-2.386885732E-1
2.800448918E0,4.614951015E-1,3.261924386E-1,-2.777827978E-1
2.810162825E0,4.333961308E-1,4.703523815E-1,-3.205420971E-1
2.819877408E0,4.419479966E-1,4.227063060E-1,-3.523061574E-1
2.829591262E0,4.407263100E-1,3.298575282E-1,-3.339807391E-1
2.839304231E0,3.869717419E-1,2.284568697E-1,-2.362451702E-1
2.849018137E0,3.307738006E-1,1.269035190E-1,-8.475505561E-2
2.858732772E0,2.745758295E-1,8.047912270E-2,6.062658876E-2
2.868446522E0,2.049392611E-1,4.504998401E-2,1.730224788E-1
2.878159595E0,1.499630064E-1,2.794626169E-2,2.426590770E-1
2.887873450E0,1.206423342E-1,4.138490185E-2,2.880144715E-1
2.897588085E0,7.910472155E-2,7.437065244E-2,3.173351586E-1
2.907301835E0,1.191152167E-2,6.826218218E-2,3.258870244E-1
2.917014908E0,-5.894676223E-2,-1.847812906E-2,2.965663373E-1
2.926728762E0,-1.285833418E-1,-1.443126649E-1,2.353289127E-1
2.936443397E0,-1.957765520E-1,-2.481566966E-1,1.620272398E-1
2.946157147E0,-2.593046725E-1,-3.067980409E-1,7.773031294E-2
2.955870220E0,-3.497100472E-1,-2.835858464E-1,-1.878355257E-2
2.965584127E0,-4.706578255E-1,-1.565296054E-1,-1.152974218E-1
2.975298710E0,-5.647283196E-1,3.038965166E-2,-1.849340051E-1
2.985012564E0,-6.392516494E-1,1.734806150E-1,-2.240282297E-1
2.994725533E0,-7.125533223E-1,1.942494214E-1,-2.423536479E-1
3.004439439E0,-7.773031592E-1,1.085781008E-1,-2.838912606E-1
3.014154022E0,-8.298360109E-1,8.170082420E-2,-3.584146202E-1
3.023867877E0,-8.347227573E-1,1.527118087E-1,-3.926220834E-1
3.033580845E0,-7.259919643E-1,3.103103936E-1,-3.620797098E-1
3.043294752E0,-4.169032574E-1,7.879929543E-1,-2.350234836E-1
3.053009387E0,4.581354558E-3,1.430604339E0,-4.123218823E-3
3.062723137E0,2.330382317E-1,1.490467310E0,2.684673667E-1
3.072436210E0,7.666133344E-2,8.307522535E-1,4.395045936E-1
3.082150064E0,-5.378510356E-1,2.638860047E-1,2.170034945E-1
3.091864700E0,-1.758323789E0,-8.200624585E-2,-4.903576374E-1
3.101578450E0,-2.683146477E0,-8.699992299E-1,-1.234369636E0
3.111291522E0,-2.188360214E0,-1.157097459E0,-1.437170863E0
3.121005377E0,-8.921424150E-1,-7.783721089E-1,-1.066997409E0
3.130720012E0,-2.556395829E-1,-1.791156888E0,-5.013529062E-1
3.140433762E0,-3.228327632E-1,-3.257190228E0,-2.655658424E-1
3.150146835E0,-3.936910629E-1,-3.477095366E0,-4.121691883E-1
3.159860689E0,1.255291104E-1,-2.618244171E0,-4.866925478E-1
3.169575325E0,9.452861547E-1,-1.260941505E0,-3.034383655E-1
3.179289179E0,1.447555304E0,-1.601946950E-1,5.085303262E-2
3.189002147E0,1.608819008E0,2.028012872E-1,4.321744442E-1
3.198716054E0,1.599045396E0,4.056025743E-1,8.084563613E-1
3.208430637E0,1.737096906E0,1.357302666E0,1.143200636E0
3.218144491E0,1.975327373E0,2.179502964E0,1.297134161E0
3.227857460E0,2.107270241E0,2.494700193E0,1.138313890E0
3.237571366E0,2.114600420E0,2.222262383E0,6.875085831E-1
3.247286002E0,2.007091284E0,1.560103893E0,8.994726092E-2
3.256999752E0,1.834832430E0,9.370396733E-1,-4.598152637E-1
3.266712772E0,1.645469785E0,4.935645759E-1,-7.383615971E-1
3.276426679E0,1.457328796E0,1.747023165E-1,-7.127060294E-1
3.286141262E0,1.230093718E0,-5.390727147E-2,-5.746545792E-1
3.295855116E0,9.098569751E-1,-3.190149665E-1,-4.231644273E-1
3.305568085E0,5.091412067E-1,-6.329904795E-1,-2.851129472E-1
3.315281991E0,8.887827396E-2,-8.443436027E-1,-1.507265568E-1
3.324996627E0,-2.825168669E-1,-8.382351398E-1,1.053711493E-2
3.334710377E0,-5.635066032E-1,-5.584670901E-1,2.145601064E-1
3.344423450E0,-7.834116220E-1,-8.200624585E-2,4.236225784E-1
3.354137304E0,-9.727742672E-1,3.237490356E-1,4.932591617E-1
3.363851939E0,-1.098608851E0,4.886777997E-1,3.918585181E-1
3.373565689E0,-1.082726717E0,5.326588154E-1,2.157817930E-1
3.383278762E0,-9.092461467E-1,5.949652195E-1,4.718795046E-2
3.392992616E0,-6.673506498E-1,6.487197876E-1,-6.032116711E-2
3.402707252E0,-4.804313779E-1,5.839699507E-1,-1.055238619E-1
3.412421002E0,-4.230117202E-1,3.371876776E-1,-1.360662282E-1
3.422134075E0,-4.840964675E-1,-1.114796288E-2,-1.714953631E-1
3.431847929E0,-6.013791561E-1,-3.275668323E-1,-2.093679011E-1
3.441562564E0,-7.198835015E-1,-5.462501645E-1,-2.276933193E-1
3.451276314E0,-8.322793841E-1,-6.794148684E-1,-2.069245130E-1
3.460989387E0,-9.458969831E-1,-7.747070193E-1,-1.617218107E-1
3.470703241E0,-1.049741030E0,-8.809944391E-1,-1.006370857E-1
3.480417877E0,-1.143811464E0,-9.848384857E-1,-2.733541466E-2
3.490131627E0,-1.235438585E0,-1.066691995E0,4.230117425E-2
3.499844700E0,-1.303853512E0,-1.124111652E0,8.139539510E-2
3.509558554E0,-1.301410079E0,-1.096012712E0,7.895200700E-2
3.519273189E0,-1.209782958E0,-9.298622608E-1,2.519745007E-2
3.528986939E0,-1.058292866E0,-6.708629727E-1,-6.520794332E-2
3.538700012E0,-9.581139088E-1,-4.143071473E-1,-1.678302884E-1
3.548413866E0,-9.886562824E-1,-1.785201132E-1,-2.325800955E-1
3.558128502E0,-1.140146375E0,8.292251825E-2,-1.702736765E-1
3.567842252E0,-1.583621502E0,1.747023165E-1,7.284353673E-2
3.577555325E0,-1.985558987E0,2.061609551E-2,4.028537571E-1
3.587269179E0,-2.056417227E0,-8.322793990E-2,7.082774043E-1
3.596983814E0,-1.873163104E0,4.630222321E-1,1.032026410E0
3.606697564E0,-1.551857471E0,1.508792758E0,1.201841950E0
3.616410637E0,-1.322178841E0,1.965706468E0,1.057682037E0
3.626124491E0,-1.265980959E0,1.269340634E0,5.946598053E-1
3.635839127E0,-1.224443316E0,2.944283783E-1,1.070509851E-1
3.645552877E0,-1.239103675E0,-4.619532526E-1,-1.629435122E-1
3.655265950E0,-1.407697558E0,-9.103151560E-1,-2.680092454E-1
3.664979804E0,-1.457787037E0,-1.202300072E0,-3.242071867E-1
3.674694439E0,-1.345391035E0,-1.256054640E0,-4.060607255E-1
3.684408189E0,-1.102273822E0,-1.340351582E0,-4.427115619E-1
3.694121262E0,-6.502469182E-1,-1.276823521E0,-3.547495604E-1
3.703835116E0,-4.062134400E-2,-9.860602021E-1,-1.152974218E-1
3.713549752E0,4.957025647E-1,-8.406785131E-1,1.473668963E-1
3.723263502E0,9.465078115E-1,-8.260182142E-1,2.831276953E-1
3.732976575E0,1.330272675E0,-6.977402568E-1,2.684673667E-1
3.742690429E0,1.627144337E0,-3.642176688E-1,1.974563748E-1
3.752405064E0,1.909355879E0,5.604523420E-2,1.705790907E-1
3.762118814E0,2.179350376E0,4.862344265E-1,1.791309565E-1
3.771831835E0,2.377264738E0,8.197570443E-1,1.925695986E-1
3.781545741E0,2.492104053E0,9.944593310E-1,1.742441803E-1
3.791260377E0,2.522646427E0,1.054322362E0,1.290414780E-1
3.800974127E0,2.504321098E0,1.028666735E0,6.184828654E-2
3.810687147E0,2.472557068E0,9.407047629E-1,-2.244863659E-2
3.820401054E0,2.405363798E0,8.502993584E-1,-1.324011385E-1
3.830115689E0,2.292967796E0,7.281299233E-1,-2.619007528E-1
3.839829439E0,2.146364450E0,5.864133835E-1,-3.755183518E-1
3.849542460E0,1.974105597E0,4.874561131E-1,-4.256078303E-1
3.859256366E0,1.777412772E0,3.970507085E-1,-4.085040987E-1
3.868970950E0,1.545290828E0,2.150182426E-1,-3.730749488E-1
3.878684804E0,1.250862479E0,-5.146388337E-2,-3.535278440E-1
3.888397772E0,9.049702287E-1,-2.799207568E-1,-3.645231128E-1
3.898111679E0,5.580089688E-1,-2.750339806E-1,-3.229855001E-1
3.907826262E0,3.490992188E-1,-5.039489828E-3,-1.617218107E-1
3.917540116E0,3.698680103E-1,4.385883212E-1,1.908897609E-2
3.927253085E0,4.883723855E-1,9.077190161E-1,1.498102844E-1
3.936966991E0,5.225798488E-1,1.017671585E0,2.157817930E-1
3.946681575E0,4.211791754E-1,6.047387719E-1,2.487675399E-1
3.956395429E0,2.000524700E-1,7.681404054E-2,2.121167034E-1
3.966108397E0,-5.283828825E-2,-2.200577259E-1,1.412584335E-1
3.975822304E0,-2.678565085E-1,-2.249445021E-1,7.406523079E-2
3.985536887E0,-4.352286756E-1,-3.924693540E-2,1.298050396E-2
3.995250741E0,-5.696150661E-1,1.502684206E-1,-4.077405483E-2
4.004963710E0,-6.978929639E-1,2.211267054E-1,-8.842013776E-2
4.014677564E0,-8.347227573E-1,1.392731816E-1,-1.482831687E-1
4.024392200E0,-9.801044464E-1,-8.200624585E-2,-2.008160353E-1
4.034106054E0,-1.081505060E0,-3.593308926E-1,-2.386885732E-1
4.043819022E0,-1.076618314E0,-5.523586273E-1,-2.838912606E-1
4.053532877E0,-9.568922520E-1,-5.706840754E-1,-3.388675153E-1
4.063247512E0,-7.614210844E-1,-4.289674759E-1,-4.060607255E-1
4.072961366E0,-5.683933496E-1,-1.931804419E-1,-4.573718905E-1
4.082674335E0,-4.437805414E-1,2.550287358E-2,-4.524851143E-1
4.092388189E0,-4.425588250E-1,1.380514801E-1,-3.901786804E-1
4.102102825E0,-5.708367825E-1,9.758284688E-2,-2.680092454E-1
4.111816679E0,-8.273926377E-1,-9.788827598E-2,-1.360662282E-1
4.121529647E0,-1.123042703E0,-2.322746664E-1,1.908897609E-2
4.131243502E0,-1.433353066E0,-1.870719790E-1,2.279987335E-1
4.140958137E0,-1.562852740E0,2.290677279E-3,4.407263100E-1
4.150671887E0,-1.404032469E0,2.101314515E-1,6.361974478E-1
4.160384960E0,-1.101052165E0,3.909422457E-1,7.828007340E-1
4.170098814E0,-6.600204706E-1,3.164188862E-1,8.842014074E-1
4.179813450E0,-3.326063454E-1,-2.214321308E-2,9.648332596E-1
4.189527200E0,-5.818319917E-1,1.575985998E-1,9.355126023E-1
4.199240272E0,-7.162184119E-1,6.621584296E-1,6.545228362E-1
4.208954127E0,-5.586197972E-1,7.598940134E-1,3.417690396E-1
4.218668762E0,-5.891621709E-1,5.729747415E-1,8.506047726E-2
4.228382512E0,-7.211052179E-1,1.600419879E-1,-1.861557066E-1
4.238095585E0,-7.467607856E-1,-2.603736520E-1,-3.877353072E-1
4.247809439E0,-4.926483035E-1,-2.066190839E-1,-5.221216679E-1
4.257524075E0,-7.360709459E-2,-4.779879749E-2,-6.210789680E-1
4.267237825E0,2.794626355E-1,-2.396048307E-1,-7.114843726E-1
4.276950897E0,5.152496696E-1,-5.169295073E-1,-6.723901033E-1
4.286664752E0,7.620319724E-1,-5.083776116E-1,-4.793623984E-1
4.296379387E0,1.060125470E0,-2.554868758E-1,-2.435753495E-1
4.306093137E0,1.318055630E0,4.871506989E-2,-7.253811508E-2
4.315806210E0,1.464658976E0,2.626643181E-1,3.741439432E-2
4.325520064E0,1.540404081E0,3.677300513E-1,1.229330078E-1
4.335234700E0,1.602710485E0,3.994941115E-1,1.937913001E-1
4.344948450E0,1.636917949E0,4.202629030E-1,2.304421216E-1
4.354661522E0,1.657686710E0,4.593571424E-1,2.194468826E-1
4.364375377E0,1.672347069E0,4.666872919E-1,1.534753740E-1
4.374090012E0,1.640583038E0,3.799470067E-1,4.596625641E-2
4.383803762E0,1.547734261E0,1.710372269E-1,-6.154286116E-2
4.393516835E0,1.412126184E0,-9.422318637E-2,-1.311794519E-1
4.403230689E0,1.244753957E0,-3.019112647E-1,-1.666085869E-1
4.412945325E0,1.056460381E0,-4.240806997E-1,-1.763821393E-1
4.422659075E0,8.670976758E-1,-4.888305068E-1,-1.666085869E-1
4.432372147E0,6.862868667E-1,-4.692834020E-1,-1.433963925E-1
4.442086002E0,5.140279531E-1,-3.495573401E-1,-1.079672500E-1
4.451800637E0,3.564293683E-1,-1.699682474E-1,-7.009471953E-2
4.461514387E0,2.367033064E-1,3.512371797E-3,-4.810422286E-2
4.471227460E0,1.499630064E-1,1.097997949E-1,-3.833066672E-2
4.480941314E0,8.521319181E-2,1.293469071E-1,7.635590737E-4
4.490655950E0,2.046338283E-2,5.604523420E-2,8.628217876E-2
4.500369700E0,-6.383354217E-2,1.068982761E-3,1.510319859E-1
4.510082720E0,-1.579040140E-1,1.572931744E-2,1.901262105E-1
4.519796627E0,-2.153236568E-1,6.704048812E-2,2.023431510E-1
4.529511262E0,-2.214321345E-1,1.232384369E-1,2.145601064E-1
4.539225012E0,-2.055501044E-1,1.710372269E-1,2.170034945E-1
4.548938085E0,-1.994416267E-1,1.930277348E-1,1.815743446E-1
4.558651939E0,-2.312056869E-1,1.759240031E-1,1.058292910E-1
4.568366575E0,-3.020639718E-1,9.391776472E-2,3.206948051E-3
4.578080325E0,-3.888042867E-1,-5.635065958E-2,-1.165191159E-1
4.587793397E0,-4.975350797E-1,-2.322746664E-1,-2.130329758E-1
4.597507252E0,-6.258130074E-1,-3.849864900E-1,-2.619007528E-1
4.607221887E0,-7.601994276E-1,-5.157077909E-1,-2.655658424E-1
4.616935637E0,-8.884773254E-1,-6.024481058E-1,-2.447970361E-1
4.626648710E0,-9.788827300E-1,-6.232169271E-1,-2.105895877E-1
4.636362564E0,-1.010646820E0,-5.853443742E-1,-1.666085869E-1
4.646077200E0,-1.010646820E0,-5.267030597E-1,-1.128540337E-1
4.655790950E0,-1.026528835E0,-5.157077909E-1,-6.642963737E-2
4.665504022E0,-1.140146375E0,-5.462501645E-1,-4.199574888E-2
4.675217877E0,-1.306296825E0,-5.108210444E-1,4.428642802E-3
4.684932512E0,-1.493216157E0,-3.752129376E-1,1.278197914E-1
4.694646262E0,-1.587286592E0,-1.577513069E-1,3.014531136E-1
4.704359335E0,-1.461452127E0,1.134648770E-1,4.529432356E-1
4.714073189E0,-1.235438585E0,4.263713956E-1,6.203153729E-1
4.723787825E0,-1.153585076E0,6.597150564E-1,8.182299137E-1
4.733501575E0,-1.208561301E0,3.029802442E-1,9.684983492E-1
4.743214647E0,-1.435796499E0,-2.615953386E-1,9.257390499E-1
4.752928502E0,-1.378376842E0,-3.813214004E-1,6.801784039E-1
4.762643137E0,-9.764393568E-1,-3.312319219E-1,3.735330999E-1
4.772356887E0,-7.101099491E-1,-3.153499067E-1,9.116895497E-2
4.782069960E0,-7.052231431E-1,-1.638597846E-1,-2.081461996E-1
4.791783814E0,-7.308787704E-1,-1.076618284E-1,-4.622586668E-1
4.801498450E0,-6.551336646E-1,-1.956238300E-1,-6.418477297E-1
4.811212200E0,-4.450022280E-1,-2.273878902E-1,-7.896727920E-1
4.820925272E0,-1.469087601E-1,-1.443126649E-1,-7.835643291E-1
4.830639127E0,1.548497826E-1,-6.368082762E-2,-5.807630420E-1
4.840353762E0,3.967452943E-1,-8.704573847E-3,-3.535278440E-1
4.850067512E0,6.459710002E-1,-1.236965694E-2,-2.472404242E-1
4.859780585E0,8.609892130E-1,-1.247655526E-1,-2.460187376E-1
4.869494439E0,9.856020808E-1,-1.736333370E-1,-2.704526186E-1
4.879209075E0,1.073564053E0,-7.956285775E-2,-2.460187376E-1
4.888922929E0,1.182294846E0,5.115845799E-2,-1.739387512E-1
4.898635897E0,1.309503794E0,1.244601309E-1,-9.208522737E-2
4.908349752E0,1.441446781E0,1.588202864E-1,-1.511846948E-2
4.918064387E0,1.537960649E0,2.028012872E-1,4.474456236E-2
4.927778137E0,1.580719948E0,2.272351831E-1,1.070509851E-1
4.937491210E0,1.564837933E0,1.954711229E-1,1.522536725E-1
4.947205064E0,1.509861708E0,1.049130186E-1,1.693574041E-1
4.956919700E0,1.437781692E0,-7.482878864E-3,1.620272398E-1
4.966633450E0,1.347376347E0,-9.788827598E-2,1.351499557E-1
4.976346522E0,1.234980464E0,-1.455343664E-1,8.139539510E-2
4.986060377E0,1.111436605E0,-1.333174109E-1,8.093725890E-3
4.995775012E0,9.807152748E-1,-5.879404768E-2,-7.131642103E-2
5.005488866E0,8.548807502E-1,5.482354015E-2,-1.482831687E-1
5.015201835E0,7.522584200E-1,1.905843467E-1,-2.081461996E-1
5.024915689E0,6.728482842E-1,3.884988427E-1,-2.484621257E-1
5.034630325E0,6.190937161E-1,6.413896084E-1,-2.777827978E-1
5.044344075E0,5.824428797E-1,8.319739699E-1,-2.912214398E-1
5.054057147E0,5.238015056E-1,8.625163436E-1,-2.863346636E-1
5.063771002E0,4.028537571E-1,7.281299233E-1,-2.374668717E-1
5.073485637E0,2.428117841E-1,5.375455618E-1,-1.519482583E-1
5.083199387E0,6.688777357E-2,4.019374847E-1,-7.009471953E-2
5.092912460E0,-9.193251282E-2,2.748812735E-1,1.053711493E-2
5.102626314E0,-1.945548505E-1,1.404948682E-1,8.750387281E-2
5.112340950E0,-2.470877171E-1,3.649812192E-2,1.583621502E-1
5.122054804E0,-2.910687327E-1,-2.092151903E-2,2.194468826E-1
5.131767772E0,-3.497100472E-1,-7.223268598E-2,2.560977042E-1
5.141481627E0,-4.266768098E-1,-1.382041872E-1,2.341072112E-1
5.151196262E0,-5.024218559E-1,-2.359397560E-1,1.498102844E-1
5.160910116E0,-5.622848868E-1,-3.617742956E-1,4.230117425E-2
5.170623085E0,-6.087092757E-1,-4.387410581E-1,-4.932591692E-2
5.180336939E0,-6.587987542E-1,-4.338542521E-1,-1.055238619E-1
5.190051575E0,-7.137750387E-1,-3.898732662E-1,-1.287360638E-1
5.199765429E0,-7.565343380E-1,-3.483356535E-1,-1.360662282E-1
5.209478397E0,-7.711946368E-1,-3.287885487E-1,-1.385096163E-1
5.219192252E0,-8.200624585E-1,-3.642176688E-1,-1.397313178E-1
5.228906887E0,-9.923213720E-1,-4.949389994E-1,-1.531699449E-1
5.238620637E0,-1.208561301E0,-6.977402568E-1,-1.531699449E-1
5.248333710E0,-1.372268319E0,-9.152019024E-1,-6.276455522E-2
5.258047564E0,-1.533532023E0,-1.232842445E0,1.156028435E-1
5.267762200E0,-1.774205923E0,-1.502836943E0,3.808632791E-1
5.277475950E0,-2.203020573E0,-1.061805248E0,8.060129285E-1
5.287189022E0,-2.586632729E0,-1.308740228E-1,1.355775476E0
5.296902877E0,-2.400935173E0,2.541124523E-1,1.873773932E0
5.306617512E0,-2.105285168E0,1.183516532E-1,2.059471607E0
5.316331366E0,-2.188360214E0,-5.024218559E-2,1.964179397E0
5.326044335E0,-2.276322365E0,-4.094203711E-1,1.746717691E0
5.335758189E0,-2.150487661E0,-6.390989423E-1,1.513374090E0
5.345472825E0,-1.681357026E0,-5.486935377E-1,1.295912504E0
5.355186575E0,-9.642223716E-1,-5.731274486E-1,1.019809484E0
5.364899647E0,-3.607053161E-1,-5.450284481E-1,6.765133142E-1
5.374613502E0,9.987352788E-2,-4.766135812E-1,3.100049794E-1
5.384328137E0,4.749337435E-1,-4.766135812E-1,2.031067200E-2
5.394041887E0,8.316685557E-1,-2.334963679E-1,-1.837123185E-1
5.403754960E0,1.233758807E0,1.429382563E-1,-2.264716178E-1
5.413468814E0,1.514748454E0,6.279509664E-1,-1.971509457E-1
5.423183450E0,1.625922680E0,8.893936276E-1,-1.727170646E-1
5.432897200E0,1.632031202E0,8.222004175E-1,-1.776038408E-1
5.442610272E0,1.603932142E0,6.890357137E-1,-2.692309320E-1
5.452324127E0,1.599045396E0,5.717530251E-1,-4.085040987E-1
5.462038762E0,1.605153918E0,4.532486796E-1,-5.770979524E-1
5.471752512E0,1.603932142E0,3.139754832E-1,-7.053758502E-1
5.481465585E0,1.585606813E0,1.771457046E-1,-7.420266867E-1
5.491179439E0,1.545290828E0,1.134648770E-1,-6.711684465E-1
5.500894075E0,1.508640051E0,1.110214889E-1,-5.013529062E-1
5.510607929E0,1.474432588E0,1.110214889E-1,-2.875563502E-1
5.520320897E0,1.424343109E0,7.314895838E-2,-9.941539168E-2
5.530034752E0,1.349819779E0,6.337540597E-2,4.428642802E-3
5.539749387E0,1.254527569E0,1.305686086E-1,1.542389300E-2
5.549463241E0,1.144422293E0,2.333436459E-1,-5.054761097E-2
5.559176210E0,1.021031141E0,3.347443044E-1,-1.324011385E-1
5.568890064E0,8.829796910E-1,4.605788291E-1,-1.983726472E-1
5.578604700E0,7.290462255E-1,6.560499668E-1,-2.545706034E-1
5.588318554E0,6.178719997E-1,9.309312105E-1,-3.229855001E-1
5.598031522E0,6.166502833E-1,1.203369141E0,-4.133908749E-1
5.607745377E0,7.449282408E-1,1.379293084E0,-5.099047422E-1
5.617460012E0,8.890882134E-1,1.413500547E0,-6.015318632E-1
5.627173762E0,8.719844818E-1,1.258345366E0,-6.516213417E-1
5.636886835E0,6.826218367E-1,8.893936276E-1,-5.783196688E-1
5.646600689E0,4.101839364E-1,4.935645759E-1,-4.146125913E-1
5.656315325E0,1.096470803E-1,2.333436459E-1,-2.338017821E-1
5.666029179E0,-1.786728203E-1,9.620844387E-3,-9.330692142E-2
5.675742147E0,-4.181249440E-1,-2.506000996E-1,-2.855710872E-2
5.685456002E0,-6.013791561E-1,-4.998257756E-1,-5.344913341E-3
5.695170637E0,-7.406523228E-1,-6.195518374E-1,7.635590737E-4
5.704884387E0,-8.506048322E-1,-5.780141950E-1,8.093725890E-3
5.714597460E0,-9.593356252E-1,-4.802786708E-1,-2.901524538E-3
5.724311314E0,-1.061957955E0,-4.350759685E-1,-6.154286116E-2
5.734025950E0,-1.118155956E0,-4.643966258E-1,-1.605001241E-1
5.743739700E0,-1.107160687E0,-4.839437306E-1,-2.606790662E-1
5.753452772E0,-1.058292866E0,-3.727695346E-1,-3.168770075E-1
5.763166627E0,-9.947647452E-1,-1.247655526E-1,-3.083251417E-1
5.772881262E0,-9.177979827E-1,1.893626451E-1,-2.790044844E-1
5.782595012E0,-8.127322793E-1,4.752391577E-1,-2.912214398E-1
5.792308085E0,-6.771242023E-1,4.935645759E-1,-3.437542915E-1
5.802021939E0,-6.038225293E-1,2.101314515E-1,-4.194993675E-1
5.811736575E0,-8.225058317E-1,-1.223221645E-1,-4.060607255E-1
5.821450325E0,-1.397923946E0,-5.059342384E-1,-2.154763639E-1
5.831163397E0,-1.969676971E0,-7.954758406E-1,1.107160673E-1
5.840877252E0,-2.200577259E0,-5.511369109E-1,5.421269536E-1
5.850591887E0,-2.002662659E0,2.675510943E-1,9.575030804E-1
5.860305637E0,-1.540862203E0,9.394831061E-1,1.039356589E0
5.870018710E0,-1.334395885E0,7.415685654E-1,6.691831946E-1
5.879732564E0,-1.368603230E0,-1.236965694E-2,5.696150661E-2
5.889447200E0,-1.247655511E0,-6.207735538E-1,-3.571929336E-1
5.899160950E0,-1.005759954E0,-8.577822447E-1,-3.926220834E-1
5.908874022E0,-7.394306064E-1,-8.919897079E-1,-3.083251417E-1
5.918587877E0,-5.060869455E-1,-1.036149621E0,-2.961082160E-1
5.928302512E0,-2.422009408E-1,-1.150988936E0,-3.376458287E-1
5.938016262E0,1.951656938E-1,-9.164236188E-1,-3.608580232E-1
5.947729335E0,7.156075835E-1,-4.033119082E-1,-2.838912606E-1
5.957443189E0,1.134648800E0,1.146865711E-1,-1.372879148E-1
5.967157825E0,1.428008199E0,4.850127101E-1,1.175880991E-2
5.976871575E0,1.623479247E0,7.281299233E-1,1.461452097E-1
5.986584647E0,1.724879980E0,8.625163436E-1,2.402156889E-1
5.996298502E0,1.754200578E0,8.148702383E-1,2.145601064E-1
6.006013137E0,1.779856205E0,6.181774139E-1,6.795676053E-2
6.015726887E0,1.811620235E0,3.982724249E-1,-1.055238619E-1
6.025439960E0,1.827502251E0,2.223484069E-1,-2.399102598E-1
6.035153814E0,1.804290056E0,6.215370819E-2,-2.790044844E-1
6.044868450E0,1.705332875E0,-8.322793990E-2,-2.472404242E-1
6.054582200E0,1.575833201E0,-1.834068894E-1,-1.995943487E-1
6.064295220E0,1.464658976E0,-2.151709497E-1,-1.592784226E-1
6.074009127E0,1.353484869E0,-1.846285909E-1,-1.287360638E-1
6.083723762E0,1.221541762E0,-1.516428292E-1,-1.262926757E-1
6.093437512E0,1.071120620E0,-1.455343664E-1,-1.519482583E-1
6.103150533E0,8.878664970E-1,-1.858502775E-1,-1.983726472E-1
6.112864439E0,6.630746722E-1,-2.261662036E-1,-2.667875290E-1
6.122579022E0,4.822639227E-1,-1.980672181E-1,-3.303156495E-1
6.132292877E0,3.943018913E-1,1.328592747E-2,-3.486410677E-1
6.142005845E0,3.906368315E-1,3.860554695E-1,-3.229855001E-1
6.151719752E0,4.419479966E-1,6.206207871E-1,-2.997733057E-1
6.161434335E0,5.164713860E-1,5.705313683E-1,-2.631224692E-1
6.171148189E0,5.433486104E-1,3.958290219E-1,-2.130329758E-1
6.180861158E0,4.773771465E-1,2.382304370E-1,-1.433963925E-1
6.190575012E0,3.271087110E-1,1.134648770E-1,-7.131642103E-2
6.200289647E0,1.010952219E-1,3.527642787E-2,-1.511846948E-2
6.210003502E0,-1.737860441E-1,-3.924693540E-2,3.985778242E-2
6.219716470E0,-4.315635860E-1,-1.944021434E-1,1.070509851E-1
6.229430325E0,-6.233696342E-1,-3.898732662E-1,1.632489264E-1
6.239144960E0,-7.601994276E-1,-5.059342384E-1,1.827960461E-1
6.248858710E0,-8.359444737E-1,-5.425850749E-1,1.375933439E-1
6.258571783E0,-8.603783846E-1,-5.438067913E-1,3.497100621E-2
6.268285637E0,-8.603783846E-1,-5.364766121E-1,-9.575030953E-2
6.278000272E0,-8.493831158E-1,-5.303681493E-1,-2.166980654E-1
6.287714022E0,-8.347227573E-1,-4.924955964E-1,-2.961082160E-1
6.297427043E0,-8.237275481E-1,-3.898732662E-1,-3.278722763E-1
6.307140950E0,-8.102889061E-1,-2.078407854E-1,-3.254288733E-1
6.316855585E0,-7.492041588E-1,-1.359135192E-2,-3.107685447E-1
6.326569335E0,-6.478035450E-1,1.097997949E-1,-2.838912606E-1
6.336282356E0,-6.649072170E-1,9.025268257E-2,-2.240282297E-1
6.345996262E0,-1.009425044E0,-1.736333370E-1,-9.452861547E-2
6.355710845E0,-1.532310367E0,-5.047125220E-1,1.119377613E-1
6.365424700E0,-2.128497362E0,-7.930324674E-1,3.723114133E-1
6.375137668E0,-2.293426037E0,-9.872818589E-1,5.641174316E-1
6.384851522E0,-1.826738715E0,-1.026376128E0,6.789567471E-1
6.394566158E0,-1.201231122E0,-3.752129376E-1,6.630746722E-1
6.404280012E0,-1.044854283E0,3.872771561E-1,5.763344169E-1
6.413992981E0,-1.564074397E0,2.895416021E-1,5.494571328E-1
6.423706835E0,-1.957460046E0,-4.008685052E-1,7.094991207E-1
6.433421470E0,-1.835290551E0,-3.923166394E-1,8.524373770E-1
6.443135220E0,-1.459008694E0,-2.017323077E-1,8.768712282E-1
6.452848241E0,-1.325843930E0,-2.506000996E-1,5.836645365E-1
6.462562147E0,-1.250098944E0,-5.315898061E-1,1.449235082E-1
6.472276783E0,-1.022863746E0,-8.638907075E-1,-1.372879148E-1
6.481990533E0,-7.357655168E-1,-8.345700502E-1,-2.826695740E-1
6.491703554E0,-3.717005551E-1,-6.525375843E-1,-3.132119179E-1
6.501417408E0,1.191152167E-2,-5.193728805E-1,-2.667875290E-1
6.511132043E0,3.979669809E-1,-4.582881629E-1,-2.105895877E-1
6.520845897E0,7.913526297E-1,-2.823641598E-1,-1.629435122E-1
6.530558866E0,1.170077920E0,9.025268257E-2,-9.819369763E-2
6.540272720E0,1.456107140E0,4.410317242E-1,-2.122694254E-2
6.549987356E0,1.644248128E0,6.365028620E-1,3.252761811E-2
6.559701106E0,1.754200578E0,6.988092661E-1,6.184828654E-2
6.569414127E0,1.809176922E0,6.499415040E-1,5.573981255E-2
6.579128033E0,1.850714445E0,5.375455618E-1,3.206948051E-3
6.588842616E0,1.862931371E0,4.288147688E-1,-6.154286116E-2
6.598556470E0,1.816506982E0,2.956500649E-1,-1.287360638E-1
6.608269439E0,1.712663054E0,1.661504507E-1,-1.727170646E-1
6.617983345E0,1.599045396E0,4.993676394E-2,-1.922641695E-1
6.627697929E0,1.487871170E0,-6.612421572E-2,-2.032594234E-1
6.637411679E0,1.375475287E0,-1.626380831E-1,-2.338017821E-1
6.647124752E0,1.271631241E0,-1.980672181E-1,-2.851129472E-1
6.656838606E0,1.177408099E0,-1.394258887E-1,-3.352024257E-1
6.666553241E0,1.093111157E0,-1.236965694E-2,-3.706315756E-1
6.676266991E0,1.005149126E0,1.073564067E-1,-3.914003670E-1
6.685980012E0,8.793146014E-1,2.321219593E-1,-3.828485310E-1
6.695693918E0,7.278245091E-1,4.178195298E-1,-3.535278440E-1
6.705408502E0,6.105418205E-1,6.474980712E-1,-3.254288733E-1
6.715122356E0,5.580089688E-1,8.576295376E-1,-3.132119179E-1
6.724835325E0,5.470137000E-1,9.956810474E-1,-2.961082160E-1
6.734549179E0,5.225798488E-1,9.932376146E-1,-2.680092454E-1
6.744263814E0,4.676035643E-1,8.148702383E-1,-2.118112892E-1
6.753977564E0,3.771981895E-1,5.693096519E-1,-1.165191159E-1
6.763690585E0,2.452551723E-1,3.530697227E-1,-2.000524849E-2
6.773404491E0,9.620844573E-2,1.637070626E-1,6.551336497E-2
6.783119075E0,-4.184303805E-2,8.399149403E-3,1.229330078E-1
6.792832929E0,-1.725643575E-1,-1.198787764E-1,1.595838517E-1
6.802545897E0,-2.800734639E-1,-2.176143378E-1,1.766875684E-1
6.812259752E0,-3.619270027E-1,-3.092414141E-1,1.681357026E-1
6.821974387E0,-4.413371384E-1,-4.130854607E-1,1.327065676E-1
6.831688137E0,-5.244123936E-1,-4.949389994E-1,7.650861889E-2
6.841401158E0,-6.172611713E-1,-5.352548957E-1,8.093725890E-3
6.851115064E0,-7.076665759E-1,-5.340332389E-1,-5.543438718E-2
6.860829647E0,-7.895200849E-1,-4.815003574E-1,-1.006370857E-1
6.870543397E0,-8.335011005E-1,-3.825430870E-1,-1.311794519E-1
6.880256470E0,-8.261709213E-1,-2.420482337E-1,-1.482831687E-1
6.889970325E0,-8.188407421E-1,-7.589777559E-2,-1.495048702E-1
6.899684960E0,-9.239065051E-1,1.159082651E-1,-1.299577504E-1
6.909398710E0,-1.099830508E0,3.237490356E-1,-9.697200358E-2
6.919111731E0,-1.283084631E0,4.605788291E-1,-2.489202656E-2
6.928825637E0,-1.439461589E0,3.872771561E-1,7.895200700E-2
6.938540220E0,-1.532310367E0,1.293469071E-1,2.194468826E-1
6.948253970E0,-1.664253354E0,-4.413371533E-2,3.967452943E-1
6.957967043E0,-1.991667509E0,-1.725643501E-2,5.384618640E-1
6.967680897E0,-2.174921751E0,-6.734590977E-2,6.923953891E-1
6.977395481E0,-1.779092669E0,-1.650814712E-1,8.389987350E-1
6.987109335E0,-1.322178841E0,1.478250325E-1,7.388197780E-1
6.996822304E0,-1.237882018E0,2.638860047E-1,4.052971601E-1
7.006536158E0,-1.374711752E0,-1.614163816E-1,-7.788302377E-3
7.016250793E0,-1.279419541E0,-6.207735538E-1,-3.535278440E-1
7.025964543E0,-9.593356252E-1,-7.343910933E-1,-4.524851143E-1
7.035677564E0,-6.868977547E-1,-6.415423155E-1,-4.072824121E-1
7.045391470E0,-4.621059597E-1,-5.938962698E-1,-4.341596961E-1
7.055106054E0,-2.202104330E-1,-6.122216582E-1,-5.233433843E-1
7.064819804E0,2.290677279E-2,-5.254813433E-1,-5.282301903E-1
7.074532877E0,3.148917556E-1,-2.994678617E-1,-4.366030693E-1
7.084246731E0,6.740699410E-1,-3.817795310E-3,-3.376458287E-1
7.093961314E0,9.807152748E-1,3.066453338E-1,-2.447970361E-1
7.103675168E0,1.162747741E0,5.668662786E-1,-1.507265568E-1
7.113388137E0,1.254527569E0,6.963658929E-1,-3.588727489E-2
7.123101991E0,1.330272675E0,6.927008033E-1,8.017370105E-2
7.132816627E0,1.460993886E0,6.743753552E-1,1.559187621E-1
7.142530377E0,1.624701023E0,6.377245188E-1,1.791309565E-1
7.152243397E0,1.752978921E0,5.509842038E-1,1.473668963E-1
7.161957304E0,1.844606042E0,4.483618736E-1,8.628217876E-2
7.171671887E0,1.914242625E0,3.359659910E-1,3.619270027E-2
7.181385637E0,1.913020849E0,2.321219593E-1,1.786728203E-2
7.191098710E0,1.821393847E0,1.429382563E-1,6.872031838E-3
7.200812564E0,1.724879980E0,5.848862603E-2,1.985253533E-3
7.210527147E0,1.662573576E0,7.177455351E-3,2.153236605E-2
7.220241002E0,1.610040665E0,3.649812192E-2,2.764083818E-2
7.229953970E0,1.552621007E0,1.429382563E-1,-6.566607859E-3
7.239667825E0,1.490314603E0,2.773246467E-1,-7.864658535E-2
7.249382460E0,1.391357303E0,3.603998721E-1,-1.690519750E-1
7.259096210E0,1.193290114E0,4.019374847E-1,-2.704526186E-1
7.268809231E0,9.074136019E-1,5.351021886E-1,-3.437542915E-1
7.278523085E0,6.777350307E-1,8.050966859E-1,-3.633013964E-1
7.288237720E0,6.056550741E-1,1.067761064E0,-2.997733057E-1
7.297951470E0,6.386408210E-1,1.170383334E0,-1.714953631E-1
7.307664491E0,6.349757314E-1,1.043327093E0,-5.054761097E-2
7.317378397E0,5.115845799E-1,7.721109390E-1,5.573981255E-2
7.327092981E0,3.161134422E-1,4.251496792E-1,1.327065676E-1
7.336806731E0,8.276980370E-2,5.238015205E-2,1.986780763E-1
7.346519752E0,-1.530172378E-1,-3.055763543E-1,2.341072112E-1
7.356233658E0,-3.607053161E-1,-5.975613594E-1,2.365505993E-1
7.365948241E0,-5.402944088E-1,-7.673768401E-1,2.157817930E-1
7.375662095E0,-7.052231431E-1,-8.345700502E-1,1.644706279E-1
7.385375064E0,-8.616000414E-1,-8.736643195E-1,8.994726092E-2
7.395088918E0,-1.002094984E0,-8.883246183E-1,1.053711493E-2
7.404803502E0,-1.140146375E0,-8.296833038E-1,-6.398624927E-2
7.414517356E0,-1.259872437E0,-7.014053464E-1,-1.238492802E-1
7.424230325E0,-1.335617542E0,-5.645755529E-1,-1.543916464E-1
7.433944179E0,-1.375933409E0,-4.350759685E-1,-1.470614821E-1
7.443658814E0,-1.385707021E0,-3.129065037E-1,-1.189625040E-1
7.453372564E0,-1.357608080E0,-2.359397560E-1,-6.520794332E-2
7.463085585E0,-1.324622273E0,-2.701472044E-1,1.175880991E-2
7.472799439E0,-1.360051394E0,-4.509579837E-1,7.773031294E-2
7.482514075E0,-1.424801230E0,-5.865660906E-1,1.278197914E-1
7.492227825E0,-1.612942219E0,-5.621321797E-1,2.011214644E-1
7.501940845E0,-1.760767221E0,-5.987830162E-1,2.990097404E-1
7.511654752E0,-1.672805190E0,-7.209524512E-1,4.676035643E-1
7.521369335E0,-1.604390383E0,-5.254813433E-1,6.826218367E-1
7.531083085E0,-1.731446505E0,-1.162136942E-1,9.513946176E-1
7.540796106E0,-1.835290551E0,9.636115283E-2,1.211615562E0
7.550510012E0,-1.832847238E0,-1.345391124E-1,1.271478534E0
7.560224595E0,-1.675248623E0,-3.678827584E-1,1.006370902E0
7.569938345E0,-1.287971497E0,-6.598677635E-1,7.131641507E-1
7.579651418E0,-9.373451471E-1,-6.916317940E-1,5.519005060E-1
7.589365272E0,-6.856760383E-1,-4.534013867E-1,4.883723855E-1
7.599079856E0,-4.046863019E-1,-2.933593988E-1,4.126273096E-1
7.608793710E0,-1.249182671E-1,-3.923166394E-1,3.429907262E-1
7.618506679E0,8.887827396E-2,-4.216373265E-1,1.913478971E-1
7.628220533E0,4.126273096E-1,-3.434488773E-1,-1.389677543E-2
7.637935116E0,8.255600929E-1,-1.186570823E-1,-1.678302884E-1
7.647648970E0,1.208103180E0,2.247917950E-1,-2.814478874E-1
7.657361939E0,1.478097677E0,5.509842038E-1,-3.633013964E-1
7.667075793E0,1.614927411E0,8.014315963E-1,-4.121691883E-1
7.676790429E0,1.687007427E0,8.869501948E-1,-4.329380095E-1
7.686504179E0,1.689450860E0,8.551861644E-1,-4.414898455E-1
7.696217200E0,1.655243397E0,7.354601026E-1,-4.585935771E-1
7.705931054E0,1.640583038E0,5.485408306E-1,-4.781406820E-1
7.715645689E0,1.645469785E0,4.104893506E-1,-4.756973088E-1
7.725359439E0,1.649134874E0,3.090887070E-1,-4.182776511E-1
7.735072460E0,1.612484097E0,1.808107942E-1,-3.180987239E-1
7.744786314E0,1.523300409E0,4.993676394E-2,-2.191414535E-1
7.754500950E0,1.396244168E0,-5.512896553E-2,-1.165191159E-1
7.764214700E0,1.250862479E0,-1.186570823E-1,-2.244863659E-2
7.773927720E0,1.104106426E0,-1.540862173E-1,3.008422814E-2
7.783641575E0,9.440644383E-1,-1.675248593E-1,3.863608837E-2
7.793356210E0,7.815790772E-1,-1.430909634E-1,7.635590737E-4
7.803069960E0,6.496360302E-1,-8.811471611E-2,-7.253811508E-2
7.812782981E0,5.836645365E-1,3.161134571E-2,-1.837123185E-1
7.822496835E0,6.129852533E-1,2.809897363E-1,-3.107685447E-1
7.832211470E0,7.253811359E-1,6.658235192E-1,-4.280512035E-1
7.841925220E0,8.683193922E-1,1.049435616E0,-5.331169367E-1
7.851638241E0,9.440644383E-1,1.254680276E0,-5.966450572E-1
7.861352095E0,8.756495714E-1,1.176491857E0,-5.331169367E-1
7.871066731E0,6.923953891E-1,8.698465228E-1,-3.742966652E-1
7.880780481E0,4.407263100E-1,4.837910235E-1,-1.873773932E-1
7.890493502E0,1.609582454E-1,9.025268257E-2,1.985253533E-3
7.900207408E0,-9.681928903E-2,-2.725905776E-1,1.620272398E-1
7.909921991E0,-2.910687327E-1,-5.804576278E-1,2.646495700E-1
7.919635741E0,-4.022429287E-1,-8.162446618E-1,3.063398898E-1
7.929348762E0,-4.669927359E-1,-9.469659925E-1,3.026748300E-1
7.939062668E0,-5.048652887E-1,-9.750649333E-1,2.658712566E-1
7.948777252E0,-5.244123936E-1,-8.846595287E-1,1.876828223E-1
7.958491002E0,-5.476245880E-1,-6.867450476E-1,9.972081333E-2
7.968204022E0,-5.867187977E-1,-4.497362971E-1,4.428642802E-3
7.977917929E0,-6.526902914E-1,-2.359397560E-1,-9.086353332E-2
7.987632512E0,-7.540909648E-1,-9.910997003E-2,-1.653869003E-1
7.997346262E0,-8.945857882E-1,-4.413371533E-2,-2.020377368E-1
8.007059283E0,-1.054627776E0,-3.924693540E-2,-2.118112892E-1
8.016773189E0,-1.196344376E0,-4.657710344E-2,-2.179197669E-1
8.026487772E0,-1.325843930E0,-4.046862945E-2,-2.545706034E-1
8.036201522E0,-1.364938259E0,2.916795574E-2,-3.046600819E-1
8.045914543E0,-1.340504289E0,2.663294077E-1,-3.303156495E-1
8.055628397E0,-1.366159916E0,6.548282504E-1,-3.217637837E-1
8.065343033E0,-1.483442545E0,9.211576581E-1,-2.093679011E-1
8.075056783E0,-1.628824234E0,8.368607163E-1,1.542389300E-2
8.084769804E0,-1.820630312E0,5.277720094E-1,2.892361879E-1
8.094483658E0,-1.988002419E0,2.370087355E-1,5.824428797E-1
8.104198293E0,-2.060082436E0,1.305686086E-1,7.473716140E-1
8.113912043E0,-2.107728481E0,1.159082651E-1,6.691831946E-1
8.123625064E0,-1.981893897E0,-1.577513069E-1,3.894151151E-1
8.133338918E0,-1.730224848E0,-7.857022882E-1,8.261708915E-2
8.143053554E0,-1.572626233E0,-1.276823521E0,-1.152974218E-1
8.152767304E0,-1.407697558E0,-1.497950196E0,-1.824906170E-1
8.162480325E0,-1.185349107E0,-1.601794243E0,-1.910424829E-1
8.172194179E0,-9.263498783E-1,-1.486954927E0,-1.873773932E-1
8.181908814E0,-6.050441861E-1,-1.137550354E0,-1.165191159E-1
8.191622564E0,-1.408002973E-1,-6.781931520E-1,1.542389300E-2
8.201335585E0,3.820849657E-1,-1.198787764E-1,1.192679256E-1
8.211049439E0,8.976400495E-1,5.167768002E-1,1.498102844E-1
8.220764075E0,1.364480019E0,1.018893242E0,1.351499557E-1
8.230477825E0,1.724879980E0,1.248571754E0,1.229330078E-1
8.240190845E0,1.944784999E0,1.251015186E0,1.461452097E-1
8.249904700E0,2.033968687E0,1.148392797E0,1.669140160E-1
8.259619283E0,2.042520523E0,9.907942414E-1,1.327065676E-1
8.269333137E0,1.985100865E0,8.405258060E-1,2.641914412E-2
8.279046106E0,1.904469013E0,6.902574301E-1,-9.819369763E-2
8.288759960E0,1.848271132E0,4.862344265E-1,-2.020377368E-1
8.298474543E0,1.815285325E0,2.541124523E-1,-2.582356930E-1
8.308188397E0,1.749313831E0,4.138490185E-2,-2.655658424E-1
8.317901314E0,1.630809426E0,-1.589729935E-1,-2.533488870E-1
8.327615220E0,1.480540991E0,-3.458922505E-1,-2.399102598E-1
8.337329804E0,1.332715988E0,-4.705050886E-1,-2.362451702E-1
8.347043554E0,1.223985195E0,-4.888305068E-1,-2.545706034E-1
8.356756575E0,1.160304427E0,-4.106420577E-1,-2.802261710E-1
8.366470481E0,1.083337665E0,-3.104631305E-1,-3.144336343E-1
8.376185064E0,9.355126023E-1,-2.029540092E-1,-3.547495604E-1
8.385898814E0,7.266027927E-1,-2.458660305E-2,-3.694098890E-1
8.395611835E0,5.421269536E-1,1.966928244E-1,-3.022166789E-1
8.405325689E0,4.162923992E-1,4.251496792E-1,-1.947075576E-1
8.415040325E0,3.613161445E-1,6.548282504E-1,-9.941539168E-2
8.424754075E0,3.393256664E-1,8.087617755E-1,-2.733541466E-2
8.434467095E0,2.953446507E-1,8.222004175E-1,2.764083818E-2
8.444180950E0,2.232646793E-1,6.474980712E-1,8.017370105E-2
8.453895533E0,9.987352788E-2,3.579564989E-1,1.265980899E-1
8.463609387E0,-6.139015034E-2,1.817270555E-2,1.644706279E-1
8.473322356E0,-2.324273884E-1,-2.701472044E-1,1.998997629E-1
8.483036210E0,-4.034646153E-1,-4.607315361E-1,2.292204350E-1
8.492750793E0,-5.586197972E-1,-5.987830162E-1,2.243336588E-1
8.502464543E0,-6.930062175E-1,-6.928535104E-1,1.864611208E-1
8.512177616E0,-8.163973689E-1,-7.136223316E-1,1.265980899E-1
8.521891470E0,-9.263498783E-1,-6.843016148E-1,5.329642445E-2
8.531606054E0,-1.019198656E0,-6.525375843E-1,-2.244863659E-2
8.541319804E0,-1.101052165E0,-6.183301210E-1,-9.330692142E-2
8.551032825E0,-1.169467092E0,-5.645755529E-1,-1.543916464E-1
8.560746679E0,-1.201231122E0,-4.863871336E-1,-2.069245130E-1
8.570461314E0,-1.193900943E0,-3.471139669E-1,-2.325800955E-1
8.580175064E0,-1.164580345E0,-1.430909634E-1,-2.301367074E-1
8.589888085E0,-1.120599270E0,3.038965166E-2,-2.325800955E-1
8.599601939E0,-1.074174881E0,8.047912270E-2,-2.435753495E-1
8.609316575E0,-1.028972149E0,1.317902952E-1,-2.447970361E-1
8.619030325E0,-1.115712523E0,2.333436459E-1,-1.507265568E-1
8.628743345E0,-1.417471051E0,1.710372269E-1,2.764083818E-2
8.638457200E0,-1.746106863E0,-1.553079188E-1,2.182251811E-1
8.648171783E0,-1.980672240E0,-4.900522232E-1,4.101839364E-1
8.657885637E0,-2.176143408E0,-3.410054743E-1,5.262449384E-1
8.667598606E0,-2.276322365E0,4.324798584E-1,5.066977739E-1
8.677312460E0,-2.099176645E0,9.541434050E-1,4.333961308E-1
8.687027043E0,-1.727781415E0,7.207997441E-1,3.051182032E-1
8.696740793E0,-1.476112366E0,3.518480062E-1,1.449235082E-1
8.706453814E0,-1.404032469E0,-1.931804419E-1,1.204896197E-1
8.716167720E0,-1.424801230E0,-6.427640319E-1,1.314848661E-1
8.725882304E0,-1.289193153E0,-8.419002295E-1,1.498102844E-1
8.735596054E0,-1.052184463E0,-1.059361815E0,1.644706279E-1
8.745309075E0,-8.554915786E-1,-1.306144118E0,1.351499557E-1
8.755022929E0,-5.024218559E-1,-1.304922462E0,6.429167092E-2
8.764737564E0,7.543963939E-2,-8.956547976E-1,5.207473040E-2
8.774451314E0,6.484143734E-1,-2.677038014E-1,9.361234307E-2
8.784164335E0,1.155417562E0,1.710372269E-1,9.483403713E-2
8.793878189E0,1.628366113E0,4.361449480E-1,2.886253223E-2
8.803592772E0,1.954558492E0,6.389462352E-1,-3.710897267E-2
8.813306627E0,2.054737568E0,7.635591030E-1,-6.154286116E-2
8.823019595E0,2.044963837E0,7.574505806E-1,-1.055238619E-1
8.832733450E0,2.022973299E0,6.279509664E-1,-1.812689304E-1
8.842448033E0,2.021751642E0,5.094466209E-1,-2.899997234E-1
8.852161783E0,2.053515673E0,5.008947253E-1,-3.816268146E-1
8.861874804E0,2.069397688E0,5.351021886E-1,-4.109475017E-1
8.871588658E0,2.046185493E0,4.813476503E-1,-3.559712470E-1
8.881303293E0,1.954558492E0,3.225273490E-1,-2.509055138E-1
8.891017043E0,1.788408041E0,1.269035190E-1,-1.372879148E-1
8.900730064E0,1.586828470E0,-4.902049154E-2,-4.566083103E-2
8.910443918E0,1.409682751E0,-2.053973973E-1,-1.389677543E-2
8.920158554E0,1.281404853E0,-3.361186981E-1,-5.787777901E-2
8.929872304E0,1.174964666E0,-4.045335948E-1,-1.556133330E-1
8.939585325E0,1.051573515E0,-3.727695346E-1,-2.728960216E-1
8.949299179E0,9.184088707E-1,-2.188360244E-1,-3.718532622E-1
8.959013762E0,8.047912717E-1,6.948387623E-2,-4.072824121E-1
8.968727512E0,7.730271816E-1,4.764608741E-1,-3.718532622E-1
8.978440533E0,8.622109294E-1,8.600729704E-1,-2.936648130E-1
8.988154387E0,9.892671108E-1,1.090973258E0,-1.824906170E-1
8.997869022E0,1.051573515E0,1.078756213E0,-5.299099907E-2
9.007582772E0,1.006370902E0,8.612946272E-1,7.773031294E-2
9.017295793E0,8.316685557E-1,4.984513521E-1,2.047865391E-1
9.027009647E0,5.604523420E-1,8.903098851E-2,2.965663373E-1
9.036724231E0,2.586938143E-1,-2.664821148E-1,3.796415627E-1
9.046438085E0,-1.252236869E-2,-5.376983285E-1,4.431696832E-1
9.056151054E0,-2.189887464E-1,-6.965186000E-1,4.834856093E-1
9.065864908E0,-3.692571819E-1,-7.148439884E-1,4.883723855E-1
9.075579491E0,-4.779879749E-1,-6.305471063E-1,4.492781460E-1
9.085293241E0,-5.292991400E-1,-5.303681493E-1,3.515425920E-1
9.095006262E0,-5.268557668E-1,-4.106420577E-1,2.194468826E-1
9.104720116E0,-4.926483035E-1,-2.542651594E-1,6.673506647E-2
9.114434752E0,-4.425588250E-1,-8.811471611E-2,-9.575030953E-2
9.124148502E0,-4.120164812E-1,3.527642787E-2,-2.496838123E-1
9.133861522E0,-4.474456310E-1,7.681404054E-2,-3.718532622E-1
9.143575377E0,-5.769452453E-1,1.939439960E-2,-4.537068009E-1
9.153289960E0,-7.834116220E-1,-1.186570823E-1,-4.964661002E-1
9.163003710E0,-1.015533566E0,-2.958027720E-1,-4.756973088E-1
9.172716731E0,-1.201231122E0,-4.582881629E-1,-3.877353072E-1
9.182430637E0,-1.262315869E0,-5.682406425E-1,-2.680092454E-1
9.192145220E0,-1.246433854E0,-6.122216582E-1,-1.507265568E-1
9.201858970E0,-1.247655511E0,-5.560237169E-1,-6.520794332E-2
9.211571991E0,-1.312405348E0,-4.081986845E-1,-1.267508045E-2
9.221285845E0,-1.375933409E0,-4.570664763E-1,6.062658876E-2
9.231000429E0,-1.324622273E0,-6.000047326E-1,1.363716573E-1
9.240714283E0,-1.439461589E0,-5.083776116E-1,2.255553454E-1
9.250427252E0,-1.652036428E0,-9.544488788E-2,3.833066523E-1
9.260141106E0,-1.847507477E0,7.000309825E-1,5.653391480E-1
9.269855689E0,-1.955016613E0,1.274227381E0,7.253811359E-1
9.279569439E0,-1.809635043E0,1.337755442E0,7.473716140E-1
9.289282460E0,-1.722894669E0,1.205812454E0,5.445703268E-1
9.298996314E0,-1.689908981E0,7.733326554E-1,3.222219348E-1
9.308710950E0,-1.534753680E0,1.000262350E-1,1.314848661E-1
9.318424700E0,-1.236660242E0,-4.204156399E-1,-4.581354442E-4
9.328137720E0,-8.567132950E-1,-4.399627447E-1,-2.057028115E-1
9.337851575E0,-4.547757804E-1,-3.031329513E-1,-5.074613690E-1
9.347566158E0,-8.826743066E-2,-2.970244884E-1,-7.102626562E-1
9.357279908E0,2.195995897E-1,-3.507790267E-1,-7.029324770E-1
9.366992929E0,4.639385045E-1,-5.572454333E-1,-5.062396526E-1
9.376706783E0,6.581879258E-1,-7.062921524E-1,-2.057028115E-1
9.386421418E0,9.636115432E-1,-5.682406425E-1,9.116895497E-2
9.396135168E0,1.441446781E0,-1.870719790E-1,2.819060087E-1
9.405848189E0,1.931346297E0,2.724378705E-1,3.442124426E-1
9.415562043E0,2.292967796E0,6.413896084E-1,3.222219348E-1
9.425276627E0,2.476222038E0,8.906152844E-1,2.634278834E-1
9.434990377E0,2.510429621E0,1.082421303E0,2.194468826E-1
9.444703397E0,2.472557068E0,1.166718245E0,1.827960461E-1
9.454417304E0,2.410250664E0,1.101968408E0,1.241547018E-1
9.464131887E0,2.339392185E0,9.248227477E-1,2.275406010E-2
9.473845637E0,2.237991571E0,6.694886088E-1,-7.498150319E-2
9.483558658E0,2.110935450E0,4.117110670E-1,-1.433963925E-1
9.493272512E0,1.970440507E0,2.626643181E-1,-2.130329758E-1
9.502987095E0,1.748092175E0,2.480039895E-1,-2.570139766E-1
9.512700845E0,1.409682751E0,2.345653474E-1,-2.777827978E-1
9.522413866E0,1.023474574E0,8.780929446E-2,-2.948864996E-1
9.532127772E0,6.765133142E-1,-1.162136942E-1,-3.229855001E-1
9.541842356E0,4.089622498E-1,-1.821851879E-1,-3.535278440E-1
9.551556106E0,2.281514555E-1,-3.680354729E-2,-3.107685447E-1
9.561269127E0,2.049392611E-1,1.624853760E-1,-2.093679011E-1
9.570982981E0,2.806843221E-1,2.944283783E-1,-1.446180940E-1
9.580697564E0,2.623589039E-1,3.103103936E-1,-3.955236077E-2
9.590411314E0,6.810946763E-2,1.661504507E-1,1.082726792E-1
9.600124335E0,-1.860029846E-1,-6.612421572E-2,2.377723008E-1
9.609838189E0,-3.936910629E-1,-2.176143378E-1,3.185568452E-1
9.619552825E0,-5.256340504E-1,-2.102841735E-1,3.625378609E-1
9.629266575E0,-5.525113344E-1,-1.125486046E-1,3.613161445E-1
9.638979595E0,-4.804313779E-1,-6.368082762E-2,3.051182032E-1
9.648693450E0,-3.692571819E-1,-1.235438585E-1,1.779092699E-1
9.658408033E0,-2.886253297E-1,-2.689255178E-1,3.008422814E-2
9.668121783E0,-2.739650011E-1,-4.265241027E-1,-7.864658535E-2
9.677834804E0,-3.289412558E-1,-5.450284481E-1,-1.226275861E-1
9.687548658E0,-4.340069890E-1,-6.403206587E-1,-1.201841980E-1
9.697263293E0,-5.512896776E-1,-7.148439884E-1,-1.177408099E-1
9.706977043E0,-6.649072170E-1,-7.380561829E-1,-1.067455560E-1
9.716690064E0,-7.895200849E-1,-6.928535104E-1,-6.032116711E-2
9.726403918E0,-9.446752667E-1,-6.305471063E-1,2.397575416E-2
9.736118502E0,-1.158471823E0,-6.403206587E-1,1.143811494E-1
9.745832252E0,-1.446791768E0,-7.441646457E-1,1.644706279E-1
9.755545272E0,-1.750993609E0,-8.944330812E-1,1.620272398E-1
9.765259127E0,-1.992889166E0,-9.677347541E-1,1.534753740E-1
9.774973762E0,-2.149266005E0,-8.919897079E-1,1.730224788E-1
9.784687512E0,-2.264105320E0,-7.282826304E-1,1.950129867E-1
9.794400533E0,-2.363062620E0,-5.181511641E-1,1.840177327E-1
9.804114387E0,-2.429034233E0,-1.809635013E-1,2.279987335E-1
9.813828970E0,-2.470571756E0,2.895416021E-1,3.393256664E-1
9.823542720E0,-2.330076933E0,6.609367132E-1,4.236225784E-1
9.833255741E0,-1.984337330E0,7.073611021E-1,4.627167881E-1
9.842969595E0,-1.804748178E0,8.857285380E-1,4.859289825E-1
9.852684231E0,-1.953794956E0,1.161831498E0,4.969242513E-1
9.862397981E0,-1.926917672E0,4.422534108E-1,6.349757314E-1
9.872111002E0,-1.278197885E0,2.651077211E-1,6.923953891E-1
9.881824856E0,-3.692571819E-1,3.701734245E-1,6.105418205E-1
9.891539439E0,5.833591148E-2,2.504473627E-1,2.646495700E-1
9.901253189E0,-2.067717910E-1,-1.308740228E-1,-2.044811249E-1
9.910966210E0,-5.170822144E-1,-8.370134830E-1,-5.245651007E-1
9.920680064E0,-6.099309921E-1,-1.355011940E0,-6.833853722E-1
9.930394700E0,-4.718795121E-1,-1.223068953E0,-7.273663878E-1
9.940108450E0,8.246437646E-3,-7.014053464E-1,-6.528429985E-1
9.949821470E0,6.080984473E-1,-1.687465608E-1,-5.318952799E-1
9.959535325E0,1.089446068E0,2.321219593E-1,-4.573718905E-1
9.969249908E0,1.399909258E0,4.068242610E-1,-3.437542915E-1
9.978963658E0,1.535517335E0,4.618005157E-1,-1.201841980E-1
9.988676679E0,1.545290828E0,5.228852630E-1,1.669140160E-1
9.998390585E0,1.512305140E0,4.996730685E-1,3.918585181E-1
1.000810517E1,1.536738992E0,3.677300513E-1,4.920374751E-1
1.001781892E1,1.682120681E0,2.687727809E-1,4.847072959E-1
1.002753194E1,1.897138834E0,3.066453338E-1,4.162923992E-1
1.003724579E1,2.076727867E0,4.434750974E-1,3.258870244E-1
1.004696038E1,2.153694630E0,5.338805318E-1,2.365505993E-1
1.005667413E1,2.145142794E0,4.446968138E-1,1.412584335E-1
1.006638715E1,2.081614733E0,2.174616307E-1,5.650337320E-3
1.007610105E1,1.983879209E0,-3.680354729E-2,-2.093679011E-1
1.008581564E1,1.903247356E0,-2.310529798E-1,-4.561502039E-1
1.009552939E1,1.801846743E0,-2.872509360E-1,-6.626165509E-1
1.010524241E1,1.612484097E0,-2.579302490E-1,-8.153283596E-1
1.011495626E1,1.380362034E0,-2.188360244E-1,-9.216157794E-1
1.012467084E1,1.156639338E0,-6.245913357E-2,-9.570449591E-1
1.013438460E1,9.623898268E-1,3.530697227E-1,-8.226585388E-1
1.014409762E1,8.658760190E-1,7.537854910E-1,-5.844281316E-1
1.015381152E1,8.231166601E-1,9.468132257E-1,-3.132119179E-1
1.016352611E1,7.669187188E-1,9.187142849E-1,-3.710897267E-2
1.017323986E1,6.459710002E-1,6.572716236E-1,2.389939874E-1
1.018295288E1,4.639385045E-1,2.492256761E-1,5.091412067E-1
1.019266673E1,2.867927849E-1,-7.956285775E-2,6.728482842E-1
1.020238131E1,1.316375881E-1,-2.762556672E-1,6.985038519E-1
1.021209517E1,-2.351761982E-2,-4.460712075E-1,6.117635369E-1
1.022180814E1,-1.652341783E-1,-6.317687631E-1,4.419479966E-1
1.023152199E1,-2.837385535E-1,-7.380561829E-1,2.206685692E-1
1.024123658E1,-3.900259733E-1,-6.757497787E-1,1.542389300E-2
1.025095032E1,-4.767662883E-1,-4.827220440E-1,-1.311794519E-1
1.026066335E1,-5.219689608E-1,-3.080197275E-1,-2.264716178E-1
1.027037720E1,-5.060869455E-1,-2.347180545E-1,-2.887780368E-1
1.028009184E1,-4.547757804E-1,-2.176143378E-1,-3.254288733E-1
1.028980558E1,-4.303418994E-1,-2.225011140E-1,-3.339807391E-1
1.029951861E1,-4.608842432E-1,-2.823641598E-1,-3.107685447E-1
1.030923246E1,-5.745018721E-1,-3.923166394E-1,-2.619007528E-1
1.031894704E1,-7.724163532E-1,-5.315898061E-1,-1.910424829E-1
1.032866079E1,-1.024085402E0,-7.026270628E-1,-8.842013776E-2
1.033837381E1,-1.302631736E0,-8.724426031E-1,2.886253223E-2
1.034808767E1,-1.542083859E0,-9.958337545E-1,1.400367320E-1
1.035780230E1,-1.703347564E0,-1.041036487E0,2.157817930E-1
1.036751605E1,-1.807191610E0,-1.001942158E0,2.463241518E-1
1.037722908E1,-1.874384761E0,-9.750649333E-1,2.121167034E-1
1.038694293E1,-1.901262045E0,-7.869240046E-1,1.143811494E-1
1.039665751E1,-1.915922403E0,-1.882936656E-1,5.451811850E-2
1.040637137E1,-1.896375299E0,6.145123243E-1,5.207473040E-2
1.041608434E1,-1.826738715E0,1.130067468E0,4.840964451E-2
1.042579819E1,-1.863389611E0,1.154501319E0,7.895200700E-2
1.043551277E1,-2.306864738E0,7.366818190E-1,2.990097404E-1
1.044522652E1,-2.826084852E0,4.043808877E-1,6.679614782E-1
1.045493954E1,-2.881061077E0,2.748812735E-1,9.929322004E-1
1.046465340E1,-2.766221762E0,2.296785712E-1,1.091889501E0
1.047436803E1,-2.491340637E0,1.808107942E-1,8.487722874E-1
1.048408178E1,-2.044200420E0,-3.802524135E-2,4.761554301E-1
1.049379480E1,-1.705790997E0,-1.589729935E-1,1.595838517E-1
1.050350866E1,-1.324622273E0,-9.910997003E-2,-1.666085869E-1
1.051322324E1,-9.910996556E-1,-2.005106062E-1,-4.512633979E-1
1.052293699E1,-8.994725943E-1,-8.345700502E-1,-5.648810267E-1
1.053265001E1,-6.575770974E-1,-1.236507535E0,-5.612159371E-1
1.054236392E1,-3.573456407E-2,-7.942541242E-1,-3.034383655E-1
1.055207850E1,7.437065244E-1,1.759240031E-1,8.872556686E-2
1.056179225E1,1.374253631E0,1.042105436E0,3.649812341E-1
1.057150527E1,1.895917177E0,1.522231340E0,4.236225784E-1
1.058121913E1,2.308849812E0,1.759240150E0,3.698680103E-1
1.059093376E1,2.528754950E0,1.799556017E0,3.002314270E-1
1.060064751E1,2.721782684E0,1.685938478E0,2.035648525E-1
1.061036053E1,2.920918941E0,1.451373100E0,7.162184268E-2
1.062007439E1,3.002772331E0,1.246128440E0,-1.128540337E-1
1.062978897E1,2.996664047E0,1.125180602E0,-3.009949923E-1
1.063950283E1,3.014989376E0,9.907942414E-1,-4.231644273E-1
1.064921579E1,3.013767719E0,7.598940134E-1,-4.500417113E-1
1.065892965E1,2.878159523E0,4.495835900E-1,-3.828485310E-1
1.066864423E1,2.592283010E0,1.661504507E-1,-2.509055138E-1
1.067835798E1,2.244100094E0,-8.322793990E-2,-1.201841980E-1
1.068807100E1,1.943563223E0,-3.300102353E-1,-7.986827940E-2
1.069778486E1,1.711441278E0,-5.621321797E-1,-1.189625040E-1
1.070749949E1,1.529408813E0,-7.258392572E-1,-1.800472289E-1
1.071721324E1,1.381583810E0,-7.918107510E-1,-2.362451702E-1
1.072692626E1,1.216655016E0,-7.563816309E-1,-2.753393948E-1
1.073664012E1,9.709417224E-1,-5.914528370E-1,-2.948864996E-1
1.074635470E1,6.374191046E-1,-1.834068894E-1,-2.826695740E-1
1.075606855E1,3.332171738E-1,4.300364852E-1,-2.350234836E-1
1.076578152E1,1.682884246E-1,1.071426034E0,-1.885990947E-1
1.077549538E1,1.328592747E-1,1.524674773E0,-1.238492802E-1
1.078520996E1,8.765657991E-2,1.533226609E0,-6.276455522E-2
1.079492371E1,-3.329117596E-2,1.119072199E0,9.315420873E-3
1.080463673E1,-2.214321345E-1,5.680879354E-1,8.872556686E-2
1.081435064E1,-4.291202128E-1,8.414421231E-2,1.693574041E-1
1.082406522E1,-6.184828281E-1,-2.786990702E-1,2.536543310E-1
1.083377897E1,-7.870767117E-1,-5.267030597E-1,3.136700690E-1
1.084349199E1,-9.324583411E-1,-6.916317940E-1,3.038965166E-1
1.085320585E1,-1.050962687E0,-8.076927662E-1,2.267770469E-1
1.086292048E1,-1.148698330E0,-8.809944391E-1,1.363716573E-1
1.087263423E1,-1.232995152E0,-9.188669920E-1,3.741439432E-2
1.088234725E1,-1.316070437E0,-9.323056340E-1,-6.520794332E-2
1.089206111E1,-1.378376842E0,-9.408574700E-1,-1.702736765E-1
1.090177569E1,-1.432131410E0,-9.066500664E-1,-2.496838123E-1
1.091148954E1,-1.496881247E0,-8.223531246E-1,-2.692309320E-1
1.092120246E1,-1.555522561E0,-7.539382577E-1,-2.276933193E-1
1.093091637E1,-1.581178188E0,-7.111788988E-1,-1.189625040E-1
1.094063095E1,-1.561630964E0,-6.598677635E-1,3.863608837E-2
1.095034470E1,-1.506654739E0,-5.511369109E-1,1.876828223E-1
1.096005772E1,-1.377155185E0,-3.483356535E-1,2.867927849E-1
1.096977158E1,-1.132816195E0,-5.268557742E-2,3.197785318E-1
1.097948621E1,-8.078454733E-1,2.028012872E-1,3.283303976E-1
1.098919996E1,-5.378510356E-1,2.480039895E-1,3.393256664E-1
1.099891298E1,-4.963133931E-1,2.183778957E-2,3.429907262E-1
1.100862684E1,-7.186617851E-1,-4.399627447E-1,3.759764731E-1
1.101834142E1,-1.228108406E0,-9.750649333E-1,4.407263100E-1
1.102805527E1,-1.907370567E0,-7.857022882E-1,4.187358022E-1
1.103776824E1,-2.107728481E0,1.527118087E-1,5.128062963E-1
1.104748210E1,-1.524980187E0,1.543000221E0,9.037485123E-1
1.105719668E1,-8.603783846E-1,2.405516624E0,1.243379593E0
1.106691043E1,-8.005153537E-1,1.811772943E0,1.157860994E0
1.107662345E1,-1.240325332E0,6.462764144E-1,7.302678823E-1
1.108633730E1,-1.360051394E0,5.115845799E-2,2.867927849E-1
1.109605194E1,-1.303853512E0,-9.300149232E-2,-7.620319724E-2
1.110576569E1,-1.272089362E0,-3.300102353E-1,-3.645231128E-1
1.111547871E1,-1.246433854E0,-7.783721089E-1,-5.978667736E-1
1.112519256E1,-1.086391807E0,-1.192526579E0,-6.882721782E-1
1.113490720E1,-7.162184119E-1,-1.320804477E0,-5.001311898E-1
1.114462095E1,-1.921114624E-1,-1.142437100E0,-7.253811508E-2
1.115433397E1,4.712686539E-1,-7.368345261E-1,2.990097404E-1
1.116404782E1,1.151752472E0,-2.371614426E-1,4.724903405E-1
1.117376241E1,1.669903636E0,1.661504507E-1,4.822639227E-1
1.118347616E1,2.066954374E0,4.092676640E-1,4.101839364E-1
1.119318918E1,2.416358948E0,5.265503526E-1,3.136700690E-1
1.120290308E1,2.648480892E0,6.291726828E-1,2.206685692E-1
1.121261767E1,2.799971104E0,7.708892226E-1,1.363716573E-1
1.122233142E1,2.944131136E0,9.260444641E-1,5.940489471E-2
1.123204444E1,3.034536362E0,9.859074950E-1,-1.389677543E-2
1.124175829E1,3.022319555E0,8.747332692E-1,-1.140757278E-1
1.125147293E1,2.934357405E0,6.010736823E-1,-2.386885732E-1
1.126118668E1,2.784089088E0,2.467822880E-1,-3.559712470E-1
1.127089970E1,2.570292473E0,-5.146388337E-2,-4.475983381E-1
1.128061355E1,2.319845200E0,-2.310529798E-1,-5.135698318E-1
1.129032814E1,2.066954374E0,-3.177932799E-1,-5.587725043E-1
1.130004199E1,1.809176922E0,-3.764346242E-1,-6.137487888E-1
1.130975491E1,1.539182425E0,-4.631749392E-1,-6.980457306E-1
1.131946881E1,1.267966151E0,-5.902311802E-1,-8.189934492E-1
1.132918340E1,9.917105436E-1,-5.731274486E-1,-9.374978542E-1
1.133889715E1,7.852441669E-1,-3.202366829E-1,-9.570449591E-1
1.134861017E1,7.424848676E-1,6.948387623E-2,-9.313893318E-1
1.135832402E1,7.815790772E-1,5.680879354E-1,-8.275453448E-1
1.136803861E1,7.339329720E-1,9.101623893E-1,-6.528429985E-1
1.137775246E1,4.504998624E-1,7.073611021E-1,-4.256078303E-1
1.138746543E1,4.123219103E-2,2.064663768E-1,-1.519482583E-1
1.139717928E1,-2.825168669E-1,-1.406475753E-1,3.008422814E-2
1.140689387E1,-5.109737515E-1,-2.652604282E-1,1.889045089E-1
1.141660762E1,-6.270347238E-1,-2.933593988E-1,3.136700690E-1
1.142632064E1,-6.282563806E-1,-3.666610718E-1,3.723114133E-1
1.143603449E1,-5.916055441E-1,-4.876088202E-1,3.771981895E-1
1.144574913E1,-5.781669021E-1,-5.682406425E-1,3.478775024E-1
1.145546288E1,-5.818319917E-1,-5.462501645E-1,2.953446507E-1
1.146517590E1,-5.964923501E-1,-4.485146105E-1,2.218902707E-1
1.147488975E1,-6.197045445E-1,-3.361186981E-1,1.314848661E-1
1.148460434E1,-6.392516494E-1,-2.481566966E-1,4.352286831E-2
1.149431809E1,-6.649072170E-1,-1.944021434E-1,-2.977880463E-2
1.150403111E1,-7.113316059E-1,-1.834068894E-1,-8.231166750E-2
1.151374501E1,-7.748597264E-1,-2.090624720E-1,-1.336228400E-1
1.152345960E1,-8.664868474E-1,-2.408265322E-1,-1.947075576E-1
1.153317335E1,-9.898779988E-1,-2.884726226E-1,-2.423536479E-1
1.154288637E1,-1.156028390E0,-3.361186981E-1,-2.582356930E-1
1.155260022E1,-1.339282632E0,-3.642176688E-1,-2.521272004E-1
1.156231480E1,-1.461452127E0,-4.362976551E-1,-2.435753495E-1
1.157202866E1,-1.551857471E0,-6.183301210E-1,-2.191414535E-1
1.158174158E1,-1.721673012E0,-8.272398710E-1,-1.898207814E-1
1.159145548E1,-1.875606537E0,-7.734853625E-1,-9.452861547E-2
1.160117006E1,-2.020988226E0,-6.183301210E-1,9.727742523E-2
1.161088381E1,-2.016101360E0,-4.643966258E-1,2.622061968E-1
1.162059684E1,-1.816965222E0,-3.165715933E-1,4.700469673E-1
1.163031069E1,-1.705790997E0,9.147437662E-2,6.899519563E-1
1.164002527E1,-1.693574071E0,7.207997441E-1,7.999044657E-1
1.164973913E1,-1.598281860E0,6.279509664E-1,8.499939442E-1
1.165945210E1,-1.533532023E0,2.516690791E-1,8.145648241E-1
1.166916595E1,-1.484664321E0,2.516690791E-1,6.533011198E-1
1.167888053E1,-1.396702290E0,1.939439960E-2,4.895940721E-1
1.168859428E1,-1.404032469E0,-5.268557742E-2,3.307738006E-1
1.169830730E1,-1.192679286E0,1.856975704E-1,1.876828223E-1
1.170802116E1,-9.068027735E-1,1.905843467E-1,8.994726092E-2
1.171773579E1,-7.638645172E-1,4.382828996E-2,-6.154286116E-2
1.172744954E1,-6.881194115E-1,-2.151709497E-1,-2.484621257E-1
1.173716256E1,-4.535540938E-1,-5.523586273E-1,-2.790044844E-1
1.174687642E1,-8.704573661E-2,-7.466080785E-1,-1.592784226E-1
1.175659100E1,2.904578745E-1,-7.380561829E-1,-1.079672500E-1
1.176630475E1,6.447492838E-1,-6.549809575E-1,-1.763821393E-1
1.177601777E1,9.342908859E-1,-5.535803437E-1,-2.509055138E-1
1.178573163E1,1.150530815E0,-3.446705639E-1,-2.423536479E-1
1.179544626E1,1.305838704E0,3.512371797E-3,-1.128540337E-1
1.180516001E1,1.469545841E0,3.347443044E-1,6.551336497E-2
1.181487303E1,1.627144337E0,6.242858768E-1,2.096733153E-1
1.182458689E1,1.771304369E0,8.112051487E-1,2.965663373E-1
1.183430147E1,1.888586998E0,8.344173431E-1,3.356605768E-1
1.184401522E1,1.953336835E0,7.232431769E-1,3.222219348E-1
1.185372824E1,1.944784999E0,5.216635466E-1,2.463241518E-1
1.186344210E1,1.865374804E0,2.785463631E-1,1.131594554E-1
1.187315668E1,1.760309100E0,4.627167806E-2,-4.077405483E-2
1.188287053E1,1.649134874E0,-1.137702987E-1,-1.861557066E-1
1.189258350E1,1.504974961E0,-2.090624720E-1,-2.997733057E-1
1.190229736E1,1.329050899E0,-2.713688910E-1,-3.755183518E-1
1.191201194E1,1.148087382E0,-3.165715933E-1,-4.304946065E-1
1.192172569E1,9.941539168E-1,-3.177932799E-1,-4.793623984E-1
1.193143871E1,8.817580342E-1,-2.762556672E-1,-5.123481154E-1
1.194115256E1,7.901309133E-1,-2.249445021E-1,-5.196782947E-1
1.195086715E1,7.021689415E-1,-1.516428292E-1,-4.940227270E-1
1.196058090E1,6.361974478E-1,-1.847812906E-2,-4.329380095E-1
1.197029392E1,5.812211633E-1,1.734806150E-1,-3.290939629E-1
1.198000783E1,5.005893111E-1,3.176405728E-1,-1.727170646E-1
1.198972241E1,3.637595475E-1,3.127537966E-1,9.315420873E-3
1.199943616E1,1.951656938E-1,1.979145110E-1,1.571404636E-1
1.200914918E1,4.978405312E-2,5.971032009E-2,2.573194206E-1
1.201886303E1,-4.917320609E-2,-6.368082762E-2,3.368822634E-1
1.202857762E1,-1.114796251E-1,-1.357607991E-1,3.979669809E-1
1.203829137E1,-1.530172378E-1,-1.785201132E-1,4.395045936E-1
1.204800439E1,-1.921114624E-1,-2.383831441E-1,4.541649222E-1
1.205771824E1,-2.446443290E-1,-3.006895781E-1,4.480564594E-1
1.206743288E1,-3.252761662E-1,-3.507790267E-1,4.272876680E-1
1.207714663E1,-4.242334068E-1,-3.947600424E-1,3.881934285E-1
1.208685965E1,-5.060869455E-1,-4.301891923E-1,3.332171738E-1
1.209657350E1,-5.573981404E-1,-4.485146105E-1,2.709107697E-1
1.210628809E1,-5.916055441E-1,-4.033119082E-1,1.950129867E-1
1.211600184E1,-6.258130074E-1,-2.786990702E-1,1.070509851E-1
1.212571486E1,-6.771242023E-1,-1.430909634E-1,8.093725890E-3
1.213542871E1,-7.455390692E-1,-5.635065958E-2,-1.067455560E-1
1.214514329E1,-7.968502641E-1,-2.336490713E-2,-2.362451702E-1
1.215485704E1,-8.200624585E-1,-4.535540938E-2,-3.571929336E-1
1.216457006E1,-8.603783846E-1,-6.978929788E-2,-4.634803534E-1
1.217428392E1,-9.019159675E-1,9.758284688E-2,-5.196782947E-1
1.218399855E1,-1.057071209E0,3.555130959E-1,-4.671454430E-1
1.219371230E1,-1.435796499E0,3.408527672E-1,-2.838912606E-1
1.220342533E1,-1.882936716E0,1.122431830E-1,2.397575416E-2
1.221313918E1,-2.161483049E0,-1.076618284E-1,4.028537571E-1
1.222285376E1,-2.133383989E0,-3.067980409E-1,8.976400495E-1
1.223256751E1,-1.936691284E0,2.064663768E-1,1.383874416E0
1.224228053E1,-1.727781415E0,1.307213187E0,1.663642526E0
1.225199439E1,-1.434574842E0,1.661504507E0,1.515817523E0
1.226170902E1,-1.316070437E0,9.944593310E-1,9.709417224E-1
1.227142277E1,-1.411362648E0,-2.334963679E-1,3.552076817E-1
1.228113579E1,-1.434574842E0,-9.738432169E-1,-1.043021679E-1
1.229084965E1,-1.158471823E0,-8.968765140E-1,-2.484621257E-1
1.230056423E1,-6.661289334E-1,-4.692834020E-1,-1.678302884E-1
1.231027798E1,-1.163664013E-1,-1.638597846E-1,-1.299577504E-1
1.231999100E1,3.808632791E-1,-2.469350100E-1,-2.203631550E-1
1.232970486E1,6.948387623E-1,-4.228590131E-1,-2.753393948E-1
1.233941944E1,9.941539168E-1,-2.799207568E-1,-2.301367074E-1
1.234913319E1,1.360814929E0,1.024696305E-1,-1.287360638E-1
1.235884621E1,1.647913218E0,4.593571424E-1,-6.520794332E-2
1.236856006E1,1.855601311E0,6.743753552E-1,-7.253811508E-2
1.237827470E1,2.086501598E0,8.063184023E-1,-1.116323397E-1
1.238798845E1,2.345500708E0,9.541434050E-1,-1.495048702E-1
1.239770147E1,2.580066204E0,1.115407109E0,-2.069245130E-1
1.240741532E1,2.733999729E0,1.159388065E0,-3.119902313E-1
1.241712991E1,2.775537252E0,1.005454540E0,-4.598152637E-1
1.242684366E1,2.702235460E0,7.159129977E-1,-5.612159371E-1
1.243655668E1,2.509207726E0,3.775036037E-1,-5.648810267E-1
1.244627053E1,2.255095482E0,3.894151375E-2,-5.832064152E-1
1.245598512E1,1.998539567E0,-1.748550236E-1,-6.308525205E-1
1.246569897E1,1.763974190E0,-2.799207568E-1,-6.064186096E-1
1.247541189E1,1.536738992E0,-3.947600424E-1,-5.160132051E-1
1.248512574E1,1.333937645E0,-5.083776116E-1,-4.182776511E-1
1.249484038E1,1.172521353E0,-4.973823726E-1,-3.193204105E-1
1.250455413E1,1.005149126E0,-2.811424434E-1,-2.948864996E-1
1.251426715E1,8.267817497E-1,3.405473381E-2,-3.730749488E-1
1.252398100E1,6.985038519E-1,2.565558553E-1,-4.512633979E-1
1.253369558E1,6.264238358E-1,2.431172132E-1,-4.207210541E-1
1.254340934E1,5.555655956E-1,-4.291202128E-2,-2.985515893E-1
1.255312236E1,3.845283389E-1,-4.240806997E-1,-1.409530044E-1
1.256283621E1,9.254335612E-2,-6.916317940E-1,2.519745007E-2
1.257255079E1,-1.908897758E-1,-7.795938253E-1,1.424801201E-1
1.258226454E1,-3.301629424E-1,-6.708629727E-1,2.023431510E-1
1.259197756E1,-3.313846290E-1,-4.448495209E-1,1.950129867E-1
1.260169142E1,-2.947337925E-1,-2.017323077E-1,1.278197914E-1
1.261140605E1,-3.008422852E-1,1.068982761E-3,5.207473040E-2
1.262111980E1,-3.643703759E-1,1.293469071E-1,-9.009997360E-3
1.263083282E1,-4.694361091E-1,1.600419879E-1,-3.710897267E-2
1.264054668E1,-5.806103349E-1,8.780929446E-2,-4.321744293E-2
1.265026126E1,-6.710157394E-1,-8.704573847E-3,-6.642963737E-2
1.265997501E1,-7.223268747E-1,-2.580829710E-2,-9.819369763E-2
1.266968803E1,-7.394306064E-1,5.360184610E-2,-1.433963925E-1
1.267940189E1,-7.284353375E-1,1.490467340E-1,-1.861557066E-1
1.268911647E1,-7.162184119E-1,1.795890927E-1,-1.922641695E-1
1.269883022E1,-7.577560544E-1,1.490467340E-1,-1.470614821E-1
1.270854324E1,-8.518264890E-1,1.049130186E-1,-4.810422286E-2
1.271825710E1,-9.862129092E-1,5.360184610E-2,9.605573118E-2
1.272797168E1,-1.129151106E0,-2.825168520E-2,2.353289127E-1
1.273768553E1,-1.338060975E0,-2.738122940E-1,3.234436214E-1
1.274739845E1,-1.810856700E0,-5.902311802E-1,3.161134422E-1
1.275711236E1,-2.214015961E0,-5.584670901E-1,2.658712566E-1
1.276682694E1,-2.530434847E0,-3.471139669E-1,2.684673667E-1
1.277654069E1,-2.363062620E0,-3.055763543E-1,3.955236077E-1
1.278625371E1,-1.765653968E0,-4.815003574E-1,6.374191046E-1
1.279596756E1,-1.955016613E0,-1.565296054E-1,7.730271816E-1
1.280568215E1,-3.006895542E0,4.422534108E-1,8.768712282E-1
1.281539590E1,-3.534667730E0,-1.259872466E-1,1.254374862E0
1.282510892E1,-3.243904352E0,-5.572454333E-1,1.502378821E0
1.283482277E1,-2.493783951E0,1.206423342E-2,1.199398637E0
1.284453736E1,-1.819408536E0,-5.635065958E-2,6.068767309E-1
1.285425111E1,-1.451678514E0,-3.067980409E-1,-5.665608495E-2
1.286396413E1,-1.086391807E0,-6.476507783E-1,-4.622586668E-1
1.287367798E1,-8.420529366E-1,-8.028060198E-1,-5.477772951E-1
1.288339256E1,-4.950917065E-1,-6.623111367E-1,-4.390464723E-1
1.289310642E1,5.222744122E-2,-2.005106062E-1,-2.619007528E-1
1.290281934E1,6.972821355E-1,3.225273490E-1,-5.421269313E-2
1.291253324E1,1.211768270E0,6.499415040E-1,1.437018216E-1
1.292224783E1,1.537960649E0,7.317950130E-1,2.267770469E-1
1.293196158E1,1.660130143E0,6.548282504E-1,1.937913001E-1
1.294167460E1,1.751757264E0,5.497625470E-1,8.872556686E-2
1.295138845E1,1.902025700E0,4.801259339E-1,-4.810422286E-2
1.296110303E1,2.069397688E0,3.884988427E-1,-2.069245130E-1
1.297081678E1,2.214779377E0,2.076880634E-1,-3.620797098E-1
1.298052980E1,2.328397036E0,7.803573459E-2,-4.928010404E-1
1.299024366E1,2.417580843E0,6.215370819E-2,-5.538857579E-1
1.299995824E1,2.442014694E0,1.281252056E-1,-5.343386531E-1
1.300967199E1,2.366269588E0,2.052446753E-1,-4.512633979E-1
1.301938501E1,2.220887899E0,1.795890927E-1,-3.584146202E-1
1.302909887E1,2.063289404E0,9.880454093E-2,-2.692309320E-1
1.303881350E1,1.935011387E0,1.328592747E-2,-2.044811249E-1
1.304852725E1,1.834832430E0,-6.245913357E-2,-1.910424829E-1
1.305824022E1,1.733431816E0,-8.811471611E-2,-2.130329758E-1
1.306795408E1,1.605153918E0,1.206423342E-2,-2.667875290E-1
1.307766871E1,1.454885483E0,2.382304370E-1,-3.523061574E-1
1.308738246E1,1.333937645E0,5.265503526E-1,-4.402681589E-1
1.309709548E1,1.255749226E0,7.928797603E-1,-4.842491746E-1
1.310680934E1,1.181073189E0,9.468132257E-1,-4.818057716E-1
1.311652392E1,1.049130201E0,9.370396733E-1,-4.549284875E-1
1.312623767E1,8.536590338E-1,7.953231335E-1,-3.804051280E-1
1.313595069E1,6.349757314E-1,5.583143830E-1,-2.301367074E-1
1.314566454E1,4.309527278E-1,2.394521236E-1,-3.955236077E-2
1.315537913E1,2.305948436E-1,-9.788827598E-2,1.608055383E-1
1.316509288E1,1.191152167E-2,-3.984251320E-1,3.356605768E-1
1.317480590E1,-1.994416267E-1,-6.623111367E-1,4.553866386E-1
1.318451975E1,-3.509317636E-1,-8.455653191E-1,5.213581324E-1
1.319423434E1,-4.169032574E-1,-8.809944391E-1,5.164713860E-1
1.320394808E1,-4.242334068E-1,-7.673768401E-1,4.285093546E-1
1.321366111E1,-4.327852726E-1,-5.670189857E-1,2.965663373E-1
1.322337496E1,-4.718795121E-1,-3.458922505E-1,1.730224788E-1
1.323308954E1,-5.549547076E-1,-1.760767251E-1,8.139539510E-2
1.324280329E1,-6.820109487E-1,-1.345391124E-1,1.175880991E-2
1.325251631E1,-8.616000414E-1,-2.102841735E-1,-4.566083103E-2
1.326223017E1,-1.075396657E0,-3.715478480E-1,-8.964183182E-2
1.327194475E1,-1.273311138E0,-5.389199853E-1,-1.128540337E-1
1.328165850E1,-1.433353066E0,-6.403206587E-1,-1.165191159E-1
1.329137152E1,-1.573848009E0,-6.977402568E-1,-1.311794519E-1
1.330108538E1,-1.699682474E0,-7.502731681E-1,-1.556133330E-1
1.331079996E1,-1.791309595E0,-7.624900937E-1,-1.788255423E-1
1.332051381E1,-1.863389611E0,-6.745280623E-1,-2.215848416E-1
1.333022673E1,-1.963568568E0,-4.460712075E-1,-2.777827978E-1
1.333994058E1,-2.110171795E0,1.572931744E-2,-2.802261710E-1
1.334965522E1,-2.448581219E0,4.031592011E-1,-2.191414535E-1
1.335936897E1,-2.708802223E0,2.883199155E-1,-6.154286116E-2
1.336908199E1,-2.549981833E0,-1.481304597E-2,2.341072112E-1
1.337879584E1,-2.185916901E0,4.871506989E-2,5.616740584E-1
1.338851043E1,-1.797418118E0,1.820324808E-1,8.231166601E-1
1.339822418E1,-1.605612040E0,1.637070626E-1,9.636115432E-1
1.340793720E1,-1.821851969E0,8.414421231E-2,9.220739603E-1
1.341765105E1,-2.031983376E0,-2.078407854E-1,7.925743461E-1
1.342736564E1,-1.722894669E0,-5.499152541E-1,6.728482842E-1
1.343707939E1,-1.241547108E0,-4.485146105E-1,4.944808483E-1
1.344679241E1,-8.835905790E-1,-2.786990702E-1,2.524326444E-1
1.345650626E1,-7.492041588E-1,-3.287885487E-1,-6.032116711E-2
1.346622084E1,-5.671716928E-1,-5.022691488E-1,-4.158342779E-1
1.347593460E1,-2.727433145E-1,-3.898732662E-1,-6.210789680E-1
1.348564762E1,8.399149776E-2,7.070557028E-2,-6.247440577E-1
1.349536147E1,4.468347728E-1,4.422534108E-1,-5.392253995E-1
1.350507605E1,7.388197780E-1,4.886777997E-1,-4.659237564E-1
1.351478980E1,1.017366052E0,4.214846194E-1,-4.158342779E-1
1.352450282E1,1.291178346E0,3.933856487E-1,-3.571929336E-1
1.353421668E1,1.536738992E0,4.532486796E-1,-3.180987239E-1
1.354393126E1,1.756644011E0,5.815265775E-1,-2.863346636E-1
1.355364501E1,1.970440507E0,7.134696245E-1,-2.484621257E-1
1.356335803E1,2.132925987E0,7.379034758E-1,-2.069245130E-1
1.357307189E1,2.218444586E0,6.389462352E-1,-1.727170646E-1
1.358278652E1,2.231883287E0,4.911212027E-1,-1.324011385E-1
1.359250027E1,2.198897362E0,3.323009014E-1,-8.842013776E-2
1.360221329E1,2.128039122E0,1.220167428E-1,-5.054761097E-2
1.361192715E1,2.021751642E0,-1.430909634E-1,-2.000524849E-2
1.362164173E1,1.850714445E0,-3.996468186E-1,2.031067200E-2
1.363135548E1,1.614927411E0,-6.195518374E-1,5.085303262E-2
1.364106850E1,1.392579079E0,-8.419002295E-1,4.596625641E-2
1.365078236E1,1.234980464E0,-1.050809979E0,1.053711493E-2
1.366049694E1,1.112658262E0,-1.147323847E0,-4.566083103E-2
1.367021069E1,1.045465112E0,-1.120446563E0,-1.043021679E-1
1.367992371E1,1.030804753E0,-1.021489382E0,-1.385096163E-1
1.368963756E1,1.017366052E0,-8.162446618E-1,-1.421747059E-1
1.369935215E1,9.672766328E-1,-4.558447599E-1,-1.043021679E-1
1.370906590E1,8.939749599E-1,9.620844387E-3,-4.932591692E-2
1.371877892E1,7.876875401E-1,4.740174711E-1,4.428642802E-3
1.372849277E1,6.459710002E-1,7.708892226E-1,5.207473040E-2
1.373820736E1,4.871506989E-1,8.197570443E-1,6.306997687E-2
1.374792111E1,3.038965166E-1,6.621584296E-1,6.551336497E-2
1.375763413E1,1.035386100E-1,3.799470067E-1,8.017370105E-2
1.376734798E1,-6.872031838E-2,1.122431830E-1,1.046075895E-1
1.377706256E1,-2.104368806E-1,-3.924693540E-2,1.644706279E-1
1.378677631E1,-3.399364948E-1,-6.612421572E-2,2.609844804E-1
1.379648934E1,-4.657710493E-1,-5.512896553E-2,3.552076817E-1
1.380620319E1,-5.867187977E-1,-8.933641016E-2,4.052971601E-1
1.381591783E1,-6.942279339E-1,-1.626380831E-1,4.162923992E-1
1.382563158E1,-7.809682488E-1,-2.371614426E-1,3.967452943E-1
1.383534460E1,-8.554915786E-1,-2.530434728E-1,3.503209054E-1
1.384505845E1,-9.495620728E-1,-2.029540092E-1,2.696890533E-1
1.385477303E1,-1.081505060E0,-1.577513069E-1,1.510319859E-1
1.386448678E1,-1.229330063E0,-1.650814712E-1,1.420219894E-2
1.387419980E1,-1.363716483E0,-1.687465608E-1,-8.964183182E-2
1.388391366E1,-1.454121947E0,-1.333174109E-1,-1.446180940E-1
1.389362824E1,-1.488329291E0,-1.223221645E-1,-1.446180940E-1
1.390334199E1,-1.534753680E0,-2.017323077E-1,-1.006370857E-1
1.391305501E1,-1.643484592E0,-3.373403847E-1,-3.222219273E-2
1.392276887E1,-1.703347564E0,-3.446705639E-1,8.506047726E-2
1.393248345E1,-1.730224848E0,-1.785201132E-1,2.733541429E-1
1.394219720E1,-1.754658699E0,-9.300149232E-2,4.358395338E-1
1.395191022E1,-1.746106863E0,-1.650814712E-1,5.005893111E-1
1.396162408E1,-1.786422849E0,-2.298312783E-1,4.883723855E-1
1.397133866E1,-2.025874853E0,-1.467560530E-1,3.979669809E-1
1.398105241E1,-2.369171143E0,3.649812192E-2,3.820849657E-1
1.399076543E1,-2.203020573E0,1.893626451E-1,5.494571328E-1
1.400047928E1,-1.801083088E0,5.570927262E-1,6.337540150E-1
1.401019392E1,-1.581178188E0,6.817055345E-1,6.520794630E-1
1.401990767E1,-1.681357026E0,9.636115283E-2,6.178719997E-1
1.402962069E1,-1.893931985E0,-5.548020005E-1,4.651601911E-1
1.403933454E1,-1.724116445E0,-7.600467205E-1,3.356605768E-1
1.404904913E1,-1.224443316E0,-6.403206587E-1,1.962346882E-1
1.405876288E1,-7.882983685E-1,-4.521796703E-1,-5.543438718E-2
1.406847590E1,-4.303418994E-1,-3.923166394E-1,-3.229855001E-1
1.407818975E1,7.055285573E-2,-3.703261614E-1,-5.441122055E-1
1.408790434E1,6.740699410E-1,-1.650814712E-1,-6.442911625E-1
1.409761808E1,1.261857748E0,2.822114229E-1,-6.015318632E-1
1.410733111E1,1.770082593E0,7.098045349E-1,-4.598152637E-1
1.411704496E1,2.121930599E0,9.578084946E-1,-2.484621257E-1
1.412675954E1,2.333283901E0,1.145949483E0,-1.267508045E-2
1.413647329E1,2.498212576E0,1.325538516E0,1.644706279E-1
1.414618631E1,2.665584803E0,1.337755442E0,2.243336588E-1
1.415590017E1,2.796306133E0,1.171604991E0,1.375933439E-1
1.416561475E1,2.841508627E0,9.468132257E-1,-6.765133142E-2
1.417532861E1,2.836622000E0,8.038749695E-1,-3.009949923E-1
1.418504152E1,2.842730522E0,7.941014171E-1,-4.671454430E-1
1.419475538E1,2.832956791E0,7.806627750E-1,-5.050179958E-1
1.420446996E1,2.693683624E0,6.438329816E-1,-4.133908749E-1
1.421418381E1,2.373599768E0,3.603998721E-1,-2.533488870E-1
1.422389678E1,1.930124640E0,-4.657710344E-2,-9.819369763E-2
1.423361064E1,1.459772229E0,-4.949389994E-1,1.542389300E-2
1.424332522E1,1.067455530E0,-8.687775135E-1,8.506047726E-2
1.425303897E1,7.937960029E-1,-1.043479800E0,1.156028435E-1
1.426275199E1,6.508577466E-1,-9.848384857E-1,9.361234307E-2
1.427246585E1,6.044333577E-1,-7.356128097E-1,1.420219894E-2
1.428218043E1,5.641174316E-1,-3.776563108E-1,-1.006370857E-1
1.429189418E1,5.433486104E-1,-2.596100792E-3,-2.215848416E-1
1.430160720E1,5.983248949E-1,3.848337829E-1,-3.058817685E-1
1.431132105E1,6.581879258E-1,6.927008033E-1,-3.339807391E-1
1.432103564E1,5.616740584E-1,7.965448499E-1,-2.777827978E-1
1.433074939E1,2.293731421E-1,6.499415040E-1,-1.568350345E-1
1.434046241E1,-2.336490750E-1,3.579564989E-1,-7.498150319E-2
1.435017626E1,-6.245913506E-1,4.749337584E-2,-4.932591692E-2
1.435989084E1,-7.724163532E-1,-1.528645307E-1,-4.810422286E-2
1.436960460E1,-6.722373962E-1,-1.589729935E-1,-2.855710872E-2
1.437931762E1,-4.779879749E-1,-5.268557742E-2,1.175880991E-2
1.438903147E1,-3.411581814E-1,4.504998401E-2,6.429167092E-2
1.439874605E1,-3.484883606E-1,6.581879407E-2,1.070509851E-1
1.440845980E1,-5.012001991E-1,-2.214321308E-2,1.388150454E-1
1.441817283E1,-7.357655168E-1,-1.882936656E-1,1.705790907E-1
1.442788668E1,-9.739959836E-1,-3.617742956E-1,1.974563748E-1
1.443760131E1,-1.116934180E0,-4.937172830E-1,2.011214644E-1
1.444731501E1,-1.119377613E0,-5.291464329E-1,1.766875684E-1
1.445702803E1,-1.011868477E0,-3.947600424E-1,1.168245375E-1
1.446674189E1,-8.335011005E-1,-8.933641016E-2,-4.581354442E-4
1.447645652E1,-6.123743653E-1,2.980934680E-1,-1.605001241E-1
1.448617027E1,-4.437805414E-1,6.218425035E-1,-3.046600819E-1
1.449588329E1,-4.413371384E-1,7.244648337E-1,-4.048390090E-1
1.450559715E1,-6.612421870E-1,7.098045349E-1,-4.329380095E-1
1.451531173E1,-1.131594539E0,6.108472347E-1,-3.400892019E-1
1.452502548E1,-1.578734756E0,4.972296655E-1,-1.140757278E-1
1.453473850E1,-1.768097401E0,7.024743557E-1,1.852394342E-1
1.454445236E1,-1.791309595E0,1.286444306E0,5.213581324E-1
1.455416694E1,-1.466338873E0,1.815438032E0,9.000834227E-1
1.456388069E1,-7.321004272E-1,1.784895658E0,1.226275921E0
1.457359371E1,-4.010212123E-1,1.804442763E0,1.154195905E0
1.458330756E1,-4.755446017E-1,1.704263806E0,6.716265678E-1
1.459302215E1,-5.757235289E-1,6.988092661E-1,1.229330078E-1
1.460273590E1,-6.734591126E-1,-4.509579837E-1,-3.278722763E-1
1.461244892E1,-6.404733658E-1,-1.350125194E0,-5.514423847E-1
1.462216277E1,-5.793886185E-1,-2.028165579E0,-6.149705052E-1
1.463187736E1,-5.867187977E-1,-2.256622553E0,-6.613948941E-1
1.464159111E1,-4.230117202E-1,-1.991514802E0,-6.565080881E-1
1.465130413E1,1.072036922E-1,-1.253611326E0,-4.989095032E-1
1.466101798E1,8.218950033E-1,-1.931804419E-1,-2.423536479E-1
1.467073256E1,1.439003468E0,7.635591030E-1,-4.123218823E-3
1.468044631E1,1.745648742E0,1.297439575E0,2.182251811E-1
1.469015934E1,1.803068399E0,1.547886968E0,4.517215490E-1
1.469987319E1,1.817728758E0,1.615080118E0,6.899519563E-1
1.470958777E1,1.913020849E0,1.491688967E0,8.206732869E-1
1.471930152E1,2.032747030E0,1.275449038E0,7.571451664E-1
1.472901454E1,2.073062897E0,1.044548869E0,5.433486104E-1
1.473872840E1,2.068176031E0,8.368607163E-1,1.950129867E-1
1.474844303E1,2.058402538E0,5.387672782E-1,-2.399102598E-1
1.475815673E1,2.031525373E0,9.758284688E-2,-5.819846988E-1
1.476786975E1,1.930124640E0,-3.324536085E-1,-7.505785823E-1
1.477758361E1,1.713884711E0,-6.476507783E-1,-7.811209559E-1
1.478729819E1,1.387692213E0,-9.249754548E-1,-6.846070886E-1
1.479701194E1,1.001484036E0,-1.181531310E0,-4.818057716E-1
1.480672496E1,6.178719997E-1,-1.412431598E0,-2.570139766E-1
1.481643881E1,2.757975459E-1,-1.589577317E0,-6.765133142E-2
1.482615345E1,2.290677279E-2,-1.655548811E0,9.361234307E-2
1.483586720E1,-1.017060652E-1,-1.474738002E0,2.279987335E-1
1.484558017E1,-1.163664013E-1,-9.994988441E-1,3.478775024E-1
1.485529402E1,-8.338065445E-2,-4.595098495E-1,4.224008918E-1
1.486500866E1,-1.579040140E-1,-1.284306347E-1,4.077405334E-1
1.487472241E1,-3.863608837E-1,-5.146388337E-2,3.100049794E-1
1.488443538E1,-6.245913506E-1,-1.198787764E-1,1.864611208E-1
1.489414923E1,-7.614210844E-1,-1.956238300E-1,1.009425074E-1
1.490386387E1,-8.041804433E-1,-1.992889196E-1,8.017370105E-2
1.491357762E1,-8.347227573E-1,-1.626380831E-1,1.107160673E-1
1.492329058E1,-9.226847887E-1,-2.115058601E-1,1.437018216E-1
1.493300444E1,-1.069288135E0,-3.947600424E-1,1.571404636E-1
1.494271908E1,-1.245212078E0,-6.171084642E-1,1.400367320E-1
1.495243282E1,-1.402810693E0,-7.685985565E-1,9.972081333E-2
1.496214579E1,-1.490772724E0,-8.101361990E-1,6.306997687E-2
1.497185965E1,-1.478555799E0,-7.392778993E-1,2.031067200E-2
1.498157428E1,-1.389372110E0,-6.452074051E-1,-2.733541466E-2
1.499128803E1,-1.251320601E0,-5.987830162E-1,-1.055238619E-1
1.500100100E1,-1.125486016E0,-5.877877474E-1,-2.240282297E-1
1.501071486E1,-1.070509791E0,-5.621321797E-1,-3.229855001E-1
1.502042949E1,-1.064401388E0,-4.802786708E-1,-3.437542915E-1
1.503014324E1,-1.038745761E0,-4.326325655E-1,-2.777827978E-1
1.503985621E1,-1.010646820E0,-4.656183124E-1,-1.458397806E-1
1.504957006E1,-1.180462360E0,-5.621321797E-1,-1.511846948E-2
1.505928470E1,-1.556744218E0,-5.621321797E-1,8.139539510E-2
1.506899845E1,-1.955016613E0,-4.790569544E-1,1.791309565E-1
1.507871142E1,-2.042978764E0,-8.444963396E-2,2.463241518E-1
