"Time (s)","Gyroscope x (rad/s)","Gyroscope y (rad/s)","Gyroscope z (rad/s)"
1.729879830E-1,2.388260126E0,-2.298312783E-1,9.727742523E-2
1.827015250E-1,2.385816574E0,-3.373403847E-1,7.284353673E-2
1.924157950E-1,2.338170528E0,-5.108210444E-1,-2.367033064E-2
2.021292330E-1,2.306406498E0,-6.671979427E-1,-1.421747059E-1
2.118419410E-1,2.295411348E0,-7.710419297E-1,-2.472404242E-1
2.215554830E-1,2.302741528E0,-7.172874212E-1,-2.728960216E-1
2.312697540E-1,2.340614080E0,-5.169295073E-1,-2.215848416E-1
2.409831910E-1,2.421245813E0,-2.677038014E-1,-1.299577504E-1
2.506959000E-1,2.526311636E0,-6.612421572E-2,-9.086353332E-2
2.604094410E-1,2.627712250E0,5.848862603E-2,-1.812689304E-1
2.701237120E-1,2.719339371E0,7.437065244E-2,-3.596363366E-1
2.798371500E-1,2.802414417E0,-4.779879749E-2,-4.341596961E-1
2.895498580E-1,2.864720821E0,-1.467560530E-1,-3.376458287E-1
2.992634000E-1,2.874494553E0,-1.687465608E-1,-1.617218107E-1
3.089776700E-1,2.819518328E0,-1.675248593E-1,-1.511846948E-2
3.186911080E-1,2.731556177E0,-1.491994411E-1,3.130592033E-2
3.284038160E-1,2.637485743E0,-7.345438004E-2,-5.543438718E-2
3.381173580E-1,2.569070816E0,6.948387623E-2,-2.557922900E-1
3.478316290E-1,2.569070816E0,1.478250325E-1,-4.830274582E-1
3.575450660E-1,2.615495205E0,5.115845799E-2,-7.065975666E-1
3.672577750E-1,2.642372608E0,-1.944021434E-1,-8.507575393E-1
3.769713160E-1,2.665584803E0,-4.204156399E-1,-8.568660021E-1
3.866855870E-1,2.710787535E0,-4.851654470E-1,-7.908945084E-1
3.963990250E-1,2.741329670E0,-4.839437306E-1,-6.907155514E-1
4.061117330E-1,2.740108013E0,-4.277457893E-1,-5.905365944E-1
4.158252750E-1,2.730334520E0,-3.495573401E-1,-5.245651007E-1
4.255395450E-1,2.710787535E0,-3.239017725E-1,-5.147915483E-1
4.352529830E-1,2.701013803E0,-3.544441164E-1,-5.465555787E-1
4.449656390E-1,2.710787535E0,-4.619532526E-1,-5.917583108E-1
4.546792330E-1,2.682688475E0,-5.474718809E-1,-6.430694461E-1
4.643935040E-1,2.587396383E0,-5.401417017E-1,-6.760551929E-1
4.741069410E-1,2.457896709E0,-5.291464329E-1,-6.540647149E-1
4.838196500E-1,2.333283901E0,-5.743491650E-1,-5.795413256E-1
4.935331910E-1,2.216001034E0,-5.963396430E-1,-5.025745630E-1
5.032474620E-1,2.131704330E0,-4.790569544E-1,-4.622586668E-1
5.129609000E-1,2.123152256E0,-2.970244884E-1,-4.708105326E-1
5.226736080E-1,2.151251316E0,-7.467607409E-2,-4.940227270E-1
5.323871500E-1,2.154916525E0,4.749337584E-2,-4.818057716E-1
5.421014200E-1,2.107270241E0,-5.039489828E-3,-4.451549351E-1
5.518148580E-1,1.985100865E0,-1.174353883E-1,-3.694098890E-1
5.615275660E-1,1.771304369E0,-2.066190839E-1,-2.728960216E-1
5.712411080E-1,1.552621007E0,-2.408265322E-1,-1.763821393E-1
5.809553790E-1,1.408461094E0,-1.956238300E-1,-1.067455560E-1
5.906688160E-1,1.352263093E0,-1.186570823E-1,-6.398624927E-2
6.003815250E-1,1.375475287E0,-7.589777559E-2,-2.489202656E-2
6.100950660E-1,1.395022392E0,3.405473381E-2,2.031067200E-2
6.198093370E-1,1.403574347E0,1.637070626E-1,7.162184268E-2
6.295227750E-1,1.399909258E0,2.223484069E-1,1.156028435E-1
6.392354830E-1,1.344932914E0,2.541124523E-1,1.375933439E-1
6.489490250E-1,1.256971002E0,3.090887070E-1,1.400367320E-1
6.586632950E-1,1.161526084E0,4.019374847E-1,1.058292910E-1
6.683767330E-1,1.077229142E0,5.546492934E-1,1.542389300E-2
6.780894410E-1,1.023474574E0,7.403468490E-1,-1.214058921E-1
6.878029830E-1,9.782719016E-1,8.674030900E-1,-2.557922900E-1
6.975173060E-1,8.927532434E-1,8.490777016E-1,-3.437542915E-1
7.072307430E-1,7.388197780E-1,6.413896084E-1,-3.828485310E-1
7.169434520E-1,5.164713860E-1,3.054236174E-1,-3.828485310E-1
7.266569930E-1,2.489202619E-1,-4.535540938E-2,-3.229855001E-1
7.363712640E-1,-2.748812549E-3,-2.970244884E-1,-2.203631550E-1
7.460847020E-1,-1.823379099E-1,-3.923166394E-1,-1.226275861E-1
7.557974100E-1,-2.812951505E-1,-4.094203711E-1,-5.665608495E-2
7.655109520E-1,-3.228327632E-1,-4.057552814E-1,-1.634016447E-2
7.752252230E-1,-3.216110766E-1,-3.972034156E-1,-4.581354442E-4
7.849387640E-1,-3.130592108E-1,-3.874298632E-1,-1.023169141E-2
7.946513680E-1,-3.338280320E-1,-3.910949528E-1,-7.788302377E-3
8.043649620E-1,-3.704788685E-1,-3.495573401E-1,8.093725890E-3
8.140792330E-1,-3.997995257E-1,-2.518217862E-1,2.764083818E-2
8.237926700E-1,-3.997995257E-1,-1.357607991E-1,3.374931216E-2
8.335053790E-1,-3.704788685E-1,-3.558185324E-2,3.741439432E-2
8.432189200E-1,-3.167243004E-1,1.939439960E-2,4.840964451E-2
8.529331910E-1,-2.800734639E-1,1.695101149E-2,6.184828654E-2
8.626467330E-1,-3.020639718E-1,1.206423342E-2,8.628217876E-2
8.723593890E-1,-3.851391971E-1,5.955760833E-3,1.094943732E-1
8.820729310E-1,-4.950917065E-1,8.399149403E-3,1.437018216E-1
8.917872020E-1,-6.245913506E-1,-1.969982497E-2,1.998997629E-1
9.015006390E-1,-7.797465324E-1,-8.567132801E-2,2.622061968E-1
9.112134000E-1,-9.666658044E-1,-1.553079188E-1,2.929012477E-1
9.209269410E-1,-1.145033240E0,-2.261662036E-1,2.548760176E-1
9.306412120E-1,-1.291636586E0,-2.799207568E-1,1.656923145E-1
9.403546500E-1,-1.404032469E0,-2.567085624E-1,5.696150661E-2
9.500673580E-1,-1.465117097E0,-2.090624720E-1,-4.443913698E-2
9.597809520E-1,-1.513984919E0,-1.748550236E-1,-1.226275861E-1
9.694952230E-1,-1.594616771E0,-2.090624720E-1,-1.324011385E-1
9.792086600E-1,-1.732668281E0,-3.434488773E-1,-5.176930502E-2
9.889213680E-1,-1.936691284E0,-5.242596865E-1,8.872556686E-2
9.986349620E-1,-2.183473587E0,-6.696413159E-1,2.597627938E-1
1.008349233E0,-2.466906548E0,-7.747070193E-1,4.419479966E-1
1.018062670E0,-2.799207449E0,-8.846595287E-1,5.934380889E-1
1.027775379E0,-3.098522663E0,-9.823951125E-1,6.154286265E-1
1.037488973E0,-3.252456188E0,-9.408574700E-1,4.798205197E-1
1.047203243E0,-3.236574173E0,-7.771504521E-1,3.246653080E-1
1.056916785E0,-3.076532125E0,-5.596888065E-1,2.096733153E-1
1.066629441E0,-2.872509241E0,-3.874298632E-1,2.023431510E-1
1.076342983E0,-2.773551941E0,-3.556658030E-1,3.271087110E-1
1.086057306E0,-2.851740360E0,-4.228590131E-1,5.396835804E-1
1.095770743E0,-3.013004065E0,-4.619532526E-1,7.253811359E-1
1.105483452E0,-3.110739708E0,-3.935383558E-1,8.133431077E-1
1.115196993E0,-3.070423841E0,-1.394258887E-1,8.133431077E-1
1.124911316E0,-2.901829958E0,2.333436459E-1,7.742488980E-1
1.134624754E0,-2.696585178E0,7.195780873E-1,7.559235096E-1
1.144337462E0,-2.518217802E0,1.358524323E0,7.913526297E-1
1.154051056E0,-2.453468084E0,2.020682812E0,8.524373770E-1
1.163765327E0,-2.466906548E0,2.470266342E0,8.292251825E-1
1.173478868E0,-2.405822039E0,2.489813328E0,7.290462255E-1
1.183191525E0,-2.337407112E0,2.294342279E0,6.203153729E-1
1.192905066E0,-2.371614456E0,1.971814990E0,5.726693273E-1
1.202619389E0,-2.501114130E0,1.573542595E0,6.471926570E-1
1.212332827E0,-2.595184565E0,1.318208337E0,8.218950033E-1
1.222045587E0,-2.592741251E0,1.279114127E0,1.046686769E0
1.231759129E0,-2.447359562E0,1.451373100E0,1.240936160E0
1.241473452E0,-2.204242229E0,1.643179178E0,1.273921967E0
1.251186889E0,-2.022209883E0,1.607749939E0,1.076007485E0
1.260899598E0,-2.023431540E0,1.488023877E0,7.363763452E-1
1.270613191E0,-2.226232767E0,1.288887739E0,3.979669809E-1
1.280327462E0,-2.471793413E0,9.126058221E-1,1.473668963E-1
1.290041004E0,-2.579302549E0,4.654656053E-1,-2.901524538E-3
1.299753660E0,-2.525547981E0,1.478250325E-1,-7.620319724E-2
1.309467254E0,-2.365505934E0,-2.214321308E-2,-7.498150319E-2
1.319181525E0,-2.203020573E0,-1.015533581E-1,-4.199574888E-2
1.328895066E0,-2.085737944E0,-1.821851879E-1,-1.679830020E-3
1.338607723E0,-2.033205032E0,-2.188360244E-1,6.551336497E-2
1.348321264E0,-2.009992838E0,-2.506000996E-1,1.534753740E-1
1.358035587E0,-1.983115673E0,-2.835858464E-1,2.292204350E-1
1.367749129E0,-1.909814000E0,-2.444916219E-1,2.929012477E-1
1.377461785E0,-1.823073626E0,-1.284306347E-1,3.454341292E-1
1.387175327E0,-1.759545565E0,1.206423342E-2,3.735330999E-1
1.396889650E0,-1.764432311E0,1.256818175E-1,3.002314270E-1
1.406603191E0,-1.824295282E0,-2.825168520E-2,3.038965166E-1
1.416315848E0,-1.923252583E0,-3.629959822E-1,2.843494117E-1
1.426029441E0,-1.909814000E0,-3.984251320E-1,9.116895497E-2
1.435743712E0,-1.879271626E0,-3.080197275E-1,-1.389677543E-2
1.445457254E0,-1.878049850E0,-1.748550236E-1,4.963133857E-2
1.455169910E0,-1.812078357E0,-2.214321308E-2,2.243336588E-1
1.464883504E0,-1.794974685E0,5.848862603E-2,3.833066523E-1
1.474597775E0,-1.823073626E0,-3.313846514E-2,5.238015056E-1
1.484311316E0,-1.825517058E0,-1.198787764E-1,5.225798488E-1
1.494023973E0,-1.758323789E0,-1.162136942E-1,3.381039500E-1
1.503737566E0,-1.729003191E0,-3.067980409E-1,1.375933439E-1
1.513451889E0,-1.725338101E0,-6.610894203E-1,2.641914412E-2
1.523165327E0,-1.639819503E0,-7.478297353E-1,-6.276455522E-2
1.532878087E0,-1.551857471E0,-6.390989423E-1,-1.116323397E-1
1.542591629E0,-1.452900171E0,-5.010474920E-1,-1.519482583E-1
1.552305952E0,-1.346612811E0,-5.010474920E-1,-2.020377368E-1
1.562019389E0,-1.257429123E0,-5.230379701E-1,-2.472404242E-1
1.571732150E0,-1.192679286E0,-6.012263894E-1,-3.009949923E-1
1.581445691E0,-1.112047434E0,-6.244385839E-1,-3.254288733E-1
1.591160014E0,-9.617789984E-1,-5.694623590E-1,-2.753393948E-1
1.600873556E0,-8.054021001E-1,-3.910949528E-1,-1.702736765E-1
1.610586212E0,-6.539120078E-1,-2.115058601E-1,-1.079672500E-1
1.620299806E0,-5.158604980E-1,-8.444963396E-2,-1.140757278E-1
1.630014077E0,-3.949127495E-1,-1.114796288E-2,-1.446180940E-1
1.639727618E0,-2.935121059E-1,-8.704573847E-3,-1.531699449E-1
1.649440327E0,-1.994416267E-1,-4.046862945E-2,-1.275143623E-1
1.659153868E0,-8.215895295E-2,-7.223268598E-2,-7.620319724E-2
1.668868191E0,5.100574717E-2,-7.345438004E-2,1.420219894E-2
1.678581733E0,1.963873953E-1,-5.039489828E-3,7.040014863E-2
1.688294389E0,3.393256664E-1,9.391776472E-2,5.451811850E-2
1.698007983E0,4.639385045E-1,2.052446753E-1,-1.267508045E-2
1.707722306E0,5.836645365E-1,2.895416021E-1,-7.864658535E-2
1.717435743E0,6.862868667E-1,3.298575282E-1,-1.116323397E-1
1.727148504E0,7.632536292E-1,3.396310806E-1,-1.177408099E-1
1.736862045E0,8.304468393E-1,3.029802442E-1,-1.336228400E-1
1.746576368E0,9.257390499E-1,2.846548259E-1,-1.837123185E-1
1.756289910E0,1.032026410E0,2.944283783E-1,-2.484621257E-1
1.766002566E0,1.135870457E0,3.494046330E-1,-3.278722763E-1
1.775716160E0,1.242310643E0,4.434750974E-1,-3.999522328E-1
1.785430483E0,1.335159421E0,5.534276366E-1,-4.366030693E-1
1.795143920E0,1.432894945E0,6.316160560E-1,-4.500417113E-1
1.804856681E0,1.515970230E0,6.743753552E-1,-4.378247857E-1
1.814570223E0,1.611262321E0,5.644228458E-1,-4.182776511E-1
1.824284545E0,1.652799964E0,4.483618736E-1,-4.231644273E-1
1.833998087E0,1.688229084E0,3.775036037E-1,-4.146125913E-1
1.843710743E0,1.729766726E0,2.968717813E-1,-4.109475017E-1
1.853424337E0,1.776191115E0,1.918060333E-1,-4.268295169E-1
1.863138660E0,1.810398579E0,1.343863904E-1,-4.549284875E-1
1.872852098E0,1.828724027E0,-2.336490713E-2,-4.598152637E-1
1.882564858E0,1.838497519E0,-1.931804419E-1,-4.121691883E-1
1.892278452E0,1.891030431E0,-2.542651594E-1,-2.790044844E-1
1.901992723E0,2.004647970E0,-1.565296054E-1,-1.055238619E-1
1.911706264E0,2.134147644E0,5.726693198E-2,2.886253223E-2
1.921418973E0,2.194010735E0,2.089097649E-1,8.017370105E-2
1.931132514E0,2.247765303E0,1.183516532E-1,2.886253223E-2
1.940846837E0,2.289302826E0,-3.313846514E-2,-2.367033064E-2
1.950560379E0,2.328397036E0,-1.027750522E-1,-3.100049868E-2
1.960273035E0,2.369934559E0,-1.272089481E-1,1.908897609E-2
1.969986629E0,2.418802500E0,-1.308740228E-1,1.559187621E-1
1.979700952E0,2.504321098E0,-1.663031727E-1,2.880144715E-1
1.989414389E0,2.613051891E0,-3.080197275E-1,3.820849657E-1
1.999127150E0,2.719339371E0,-4.949389994E-1,4.187358022E-1
2.008840691E0,2.806079626E0,-6.073349118E-1,3.625378609E-1
2.018555014E0,2.864720821E0,-5.486935377E-1,1.766875684E-1
2.028268556E0,2.864720821E0,-4.912739098E-1,-4.810422286E-2
2.037981264E0,2.795084238E0,-5.731274486E-1,-2.997733057E-1
2.047694806E0,2.743773222E0,-6.769714952E-1,-5.942016840E-1
2.057409129E0,2.742551565E0,-6.916317940E-1,-7.652388811E-1
2.067122670E0,2.759655237E0,-5.523586273E-1,-7.750124335E-1
2.076835327E0,2.798749447E0,-2.811424434E-1,-6.638382673E-1
2.086548920E0,2.817074776E0,1.206423342E-2,-4.488200247E-1
2.096263243E0,2.819518328E0,2.028012872E-1,-2.289150059E-1
2.105976681E0,2.770650387E0,2.406738251E-1,-9.575030953E-2
2.115689441E0,2.698570490E0,1.612636745E-1,-8.842013776E-2
2.125403035E0,2.654589415E0,3.038965166E-2,-1.507265568E-1
2.135117306E0,2.661919594E0,-5.879404768E-2,-2.496838123E-1
2.144830848E0,2.724225998E0,-3.313846514E-2,-3.620797098E-1
2.154543556E0,2.807301283E0,1.281252056E-1,-4.622586668E-1
2.164257098E0,2.869607687E0,2.687727809E-1,-5.477772951E-1
2.173971420E0,2.925805569E0,3.310792148E-1,-6.418477297E-1
2.183684962E0,2.942909479E0,3.494046330E-1,-7.078192830E-1
2.193397618E0,2.905036926E0,2.932066917E-1,-6.821636558E-1
2.203111212E0,2.834178686E0,1.539335102E-1,-5.709894896E-1
2.212825535E0,2.803636312E0,-5.879404768E-2,-4.207210541E-1
2.222539077E0,2.831735134E0,-2.273878902E-1,-3.009949923E-1
2.232251733E0,2.854947329E0,-3.031329513E-1,-2.643441558E-1
2.241965327E0,2.864720821E0,-3.410054743E-1,-2.826695740E-1
2.251679650E0,2.846395493E0,-3.397837877E-1,-3.571929336E-1
2.261393087E0,2.814631462E0,-3.104631305E-1,-5.013529062E-1
2.271105848E0,2.742551565E0,-2.921377122E-1,-5.990884304E-1
2.280819441E0,2.637485743E0,-2.102841735E-1,-6.723901033E-1
2.290533764E0,2.511651278E0,-1.125486046E-1,-6.613948941E-1
2.300247202E0,2.355274200E0,-4.779879749E-2,-5.563291311E-1
2.309959962E0,2.156138182E0,1.068982761E-3,-3.413109183E-1
2.319673556E0,1.922794461E0,-6.856760383E-2,-7.009471953E-2
2.329387879E0,1.635696292E0,-1.931804419E-1,1.644706279E-1
2.339101316E0,1.327829242E0,-3.312319219E-1,3.674246371E-1
2.348814077E0,1.079672575E0,-5.401417017E-1,5.360184908E-1
2.358527670E0,9.379559755E-1,-7.942541242E-1,6.215370893E-1
2.368241941E0,9.660549164E-1,-8.247964978E-1,5.873296261E-1
2.377955483E0,1.115101695E0,-5.401417017E-1,4.761554301E-1
2.387668191E0,1.260635972E0,-9.788827598E-2,3.368822634E-1
2.397381733E0,1.343711257E0,2.895416021E-1,1.925695986E-1
2.407096056E0,1.293621778E0,5.057815313E-1,5.696150661E-2
2.416809598E0,1.069898963E0,5.070032477E-1,-5.665608495E-2
2.426522306E0,7.473716140E-1,3.775036037E-1,-1.275143623E-1
2.436235848E0,4.724903405E-1,2.541124523E-1,-1.556133330E-1
2.445950170E0,3.063398898E-1,1.710372269E-1,-1.727170646E-1
2.455663712E0,2.086043358E-1,1.024696305E-1,-2.093679011E-1
2.465376368E0,1.145338640E-1,1.450762246E-2,-2.606790662E-1
2.475089962E0,5.803049076E-3,-1.308740228E-1,-3.168770075E-1
2.484804285E0,-1.078145429E-1,-3.043546379E-1,-3.461976945E-1
2.494517827E0,-2.055501044E-1,-4.375193417E-1,-3.352024257E-1
2.504230483E0,-2.935121059E-1,-5.157077909E-1,-2.802261710E-1
2.513944077E0,-3.668137789E-1,-5.413633585E-1,-2.081461996E-1
2.523658400E0,-4.169032574E-1,-5.413633585E-1,-1.262926757E-1
2.533371941E0,-4.401154518E-1,-5.108210444E-1,-6.032116711E-2
2.543084598E0,-4.376720488E-1,-4.265241027E-1,-1.511846948E-2
2.552798191E0,-4.132381678E-1,-3.006895781E-1,-4.581354442E-4
2.562512514E0,-3.582619131E-1,-1.699682474E-1,4.428642802E-3
2.572225952E0,-2.825168669E-1,-1.969982497E-2,9.315420873E-3
2.581938712E0,-2.153236568E-1,1.159082651E-1,1.175880991E-2
2.591652306E0,-1.774511337E-1,2.052446753E-1,1.298050396E-2
2.601366629E0,-2.055501044E-1,2.394521236E-1,2.031067200E-2
2.611080066E0,-2.739650011E-1,2.761029601E-1,4.596625641E-2
2.620792827E0,-3.374931216E-1,2.968717813E-1,6.917845458E-2
2.630506420E0,-3.888042867E-1,2.956500649E-1,8.139539510E-2
2.640220743E0,-4.535540938E-1,2.870981991E-1,7.162184268E-2
2.649934181E0,-5.280774832E-1,2.504473627E-1,3.619270027E-2
2.659646941E0,-6.233696342E-1,2.113531530E-1,-1.511846948E-2
2.669360535E0,-7.577560544E-1,1.893626451E-1,-6.642963737E-2
2.679074806E0,-9.068027735E-1,1.466033459E-1,-1.067455560E-1
2.688788348E0,-1.044854283E0,9.391776472E-2,-1.287360638E-1
2.698501056E0,-1.167023659E0,4.260659590E-2,-1.409530044E-1
2.708214650E0,-1.308740258E0,-6.612421572E-2,-9.941539168E-2
2.717928920E0,-1.462673783E0,-1.919587553E-1,-2.733541466E-2
2.727642462E0,-1.632489324E0,-2.628170252E-1,4.840964451E-2
2.737355170E0,-1.801083088E0,-2.750339806E-1,1.204896197E-1
2.747068712E0,-1.980672240E0,-2.237228155E-1,1.791309565E-1
2.756783035E0,-2.238449812E0,-1.418692768E-1,2.279987335E-1
2.766496577E0,-2.581745863E0,-7.589777559E-2,2.414373755E-1
2.776209285E0,-2.863957405E0,-1.821851879E-1,1.742441803E-1
2.785922827E0,-2.932372332E0,-4.729484916E-1,7.162184268E-2
2.795637150E0,-2.788212299E0,-6.830799580E-1,-3.100049868E-2
2.805350691E0,-2.523104668E0,-7.014053464E-1,-1.287360638E-1
2.815063400E0,-2.281208992E0,-5.877877474E-1,-1.861557066E-1
2.824776941E0,-2.204242229E0,-3.434488773E-1,-1.678302884E-1
2.834491264E0,-2.336185455E0,-5.757235363E-2,-3.588727489E-2
2.844204806E0,-2.569529057E0,8.780929446E-2,2.096733153E-1
2.853917514E0,-2.773551941E0,4.734066315E-3,5.005893111E-1
2.863631056E0,-2.808981180E0,-3.654393852E-1,7.400414348E-1
2.873345379E0,-2.692920208E0,-7.820371985E-1,8.573241234E-1
2.883058920E0,-2.534099817E0,-9.335273504E-1,8.389987350E-1
2.892771577E0,-2.374057770E0,-7.075138092E-1,7.119424939E-1
2.902485170E0,-2.237228155E0,-2.029540092E-1,5.665608048E-1
2.912199493E0,-2.181030035E0,4.508052766E-1,4.627167881E-1
2.921913035E0,-2.242114782E0,1.087308168E0,4.077405334E-1
2.931625691E0,-2.347180605E0,1.447708011E0,3.979669809E-1
2.941339285E0,-2.425369024E0,1.470920205E0,4.199574888E-1
2.951053608E0,-2.474236727E0,1.407392025E0,4.590517282E-1
2.960767150E0,-2.441251040E0,1.353637576E0,5.066977739E-1
2.970479806E0,-2.322746754E0,1.248571754E0,5.897729993E-1
2.980193400E0,-2.207907438E0,1.033553600E0,6.936170459E-1
2.989907723E0,-2.193247080E0,9.541434050E-1,7.363763452E-1
2.999621160E0,-2.221346140E0,1.208255887E0,6.386408210E-1
3.009333920E0,-2.212794304E0,1.495354056E0,4.834856093E-1
3.019047514E0,-2.151709557E0,1.514901161E0,3.943018913E-1
3.028761837E0,-2.008771181E0,1.428160906E0,3.894151151E-1
3.038475275E0,-1.851172566E0,1.411057115E0,4.138490260E-1
3.048188035E0,-1.752215385E0,1.538113356E0,3.771981895E-1
3.057901629E0,-1.681357026E0,1.600419760E0,2.451024652E-1
3.067615900E0,-1.677692056E0,1.458703279E0,9.483403713E-2
3.077329441E0,-1.786422849E0,1.288887739E0,-9.330692142E-2
3.087042150E0,-1.920809150E0,1.125180602E0,-2.961082160E-1
3.096755691E0,-2.002662659E0,8.845068216E-1,-5.441122055E-1
3.106470014E0,-2.045422077E0,6.316160560E-1,-7.603521347E-1
3.116183556E0,-2.049087048E0,3.958290219E-1,-8.910734653E-1
3.125896264E0,-2.000219345E0,1.563768983E-1,-9.448279738E-1
3.135609806E0,-2.012436390E0,-1.614163816E-1,-8.751913905E-1
3.145324129E0,-2.078407764E0,-4.277457893E-1,-6.821636558E-1
3.155037670E0,-2.044200420E0,-5.376983285E-1,-4.280512035E-1
3.164750327E0,-1.975785494E0,-5.706840754E-1,-1.776038408E-1
3.174463920E0,-1.961125135E0,-6.904101372E-1,7.040014863E-2
3.184178243E0,-1.974563718E0,-8.565605879E-1,2.977880239E-1
3.193891785E0,-1.917144179E0,-8.602256775E-1,4.553866386E-1
3.203604441E0,-1.821851969E0,-7.392778993E-1,5.897729993E-1
3.213318035E0,-1.816965222E0,-6.403206587E-1,6.814001203E-1
3.223032358E0,-1.953794956E0,-7.551599145E-1,6.777350307E-1
3.232745795E0,-2.035648584E0,-8.883246183E-1,6.044333577E-1
3.242458556E0,-1.994110823E0,-7.954758406E-1,5.311316848E-1
3.252172150E0,-1.881714940E0,-6.989619732E-1,4.700469673E-1
3.261886420E0,-1.805969954E0,-8.113578558E-1,4.553866386E-1
3.271599962E0,-1.807191610E0,-9.542961121E-1,4.407263100E-1
3.281312670E0,-1.732668281E0,-1.019045949E0,4.553866386E-1
3.291026212E0,-1.637376070E0,-9.481876493E-1,4.712686539E-1
3.300740535E0,-1.603168607E0,-9.152019024E-1,5.066977739E-1
3.310454077E0,-1.518871665E0,-8.394568563E-1,4.883723855E-1
3.320166785E0,-1.415027618E0,-7.331694365E-1,4.847072959E-1
3.329880327E0,-1.335617542E0,-5.596888065E-1,4.761554301E-1
3.339594650E0,-1.275754452E0,-4.277457893E-1,4.004103839E-1
3.349308191E0,-1.213448048E0,-4.130854607E-1,2.243336588E-1
3.359020848E0,-1.178018928E0,-3.996468186E-1,2.397575416E-2
3.368734441E0,-1.103495598E0,-3.666610718E-1,-1.079672500E-1
3.378448764E0,-1.043632507E0,-2.750339806E-1,-1.971509457E-1
3.388162306E0,-9.752176404E-1,-2.567085624E-1,-2.179197669E-1
3.397874962E0,-9.153546095E-1,-1.834068894E-1,-2.264716178E-1
3.407588556E0,-8.628217578E-1,-1.052184403E-1,-2.851129472E-1
3.417302879E0,-7.528692484E-1,-1.114796288E-2,-3.962871730E-1
3.427016316E0,-6.343649030E-1,6.581879407E-2,-5.086830258E-1
3.436729077E0,-5.451811552E-1,6.704048812E-2,-6.027535200E-1
3.446442618E0,-4.303418994E-1,1.429382563E-1,-7.017107606E-1
3.456156941E0,-3.191677034E-1,1.085781008E-1,-7.188144922E-1
3.465870483E0,-1.872246861E-1,1.649287641E-1,-6.540647149E-1
3.475583139E0,-4.550812021E-2,2.614426315E-1,-5.282301903E-1
3.485296733E0,7.299624383E-2,2.944283783E-1,-4.109475017E-1
3.495011056E0,1.829487532E-1,3.310792148E-1,-3.498627543E-1
3.504724598E0,2.880144715E-1,3.494046330E-1,-3.278722763E-1
3.514437254E0,4.016320705E-1,3.347443044E-1,-3.217637837E-1
3.524150848E0,5.409052372E-1,3.090887070E-1,-3.242071867E-1
3.533865170E0,6.923953891E-1,2.736595869E-1,-3.339807391E-1
3.543578608E0,8.267817497E-1,2.382304370E-1,-3.205420971E-1
3.553291368E0,9.550597072E-1,2.431172132E-1,-2.814478874E-1
3.563004910E0,1.069898963E0,3.029802442E-1,-2.435753495E-1
3.572719233E0,1.199398637E0,3.982724249E-1,-2.228065431E-1
3.582432775E0,1.326607585E0,5.204418898E-1,-2.081461996E-1
3.592145431E0,1.434116602E0,6.291726828E-1,-1.837123185E-1
3.601859025E0,1.531852245E0,7.036960125E-1,-1.507265568E-1
3.611573348E0,1.605153918E0,7.598940134E-1,-9.208522737E-2
3.621286785E0,1.663795233E0,7.061394453E-1,1.786728203E-2
3.630999545E0,1.685785770E0,6.242858768E-1,1.143811494E-1
3.640713139E0,1.700446010E0,5.131117105E-1,1.827960461E-1
3.650427462E0,1.724879980E0,3.151971996E-1,2.231119573E-1
3.660140900E0,1.712663054E0,9.880454093E-2,2.072299272E-1
3.669853660E0,1.663795233E0,-1.308740228E-1,1.204896197E-1
3.679567202E0,1.621035933E0,-3.153499067E-1,3.374931216E-2
3.689281525E0,1.646691442E0,-3.959817290E-1,-7.788302377E-3
3.698995066E0,1.741983652E0,-3.691044450E-1,4.428642802E-3
3.708707723E0,1.829945683E0,-3.067980409E-1,6.551336497E-2
3.718421316E0,1.917907715E0,-2.286095917E-1,1.461452097E-1
3.728135639E0,1.976549029E0,-1.247655526E-1,2.292204350E-1
3.737849077E0,2.007091284E0,-4.169032723E-2,3.527642787E-1
3.747561837E0,2.030303478E0,2.550287358E-2,4.932591617E-1
3.757275379E0,2.079171419E0,2.916795574E-2,6.264238358E-1
3.766989702E0,2.148808002E0,-6.245913357E-2,7.302678823E-1
3.776703243E0,2.214779377E0,-1.663031727E-1,7.278245091E-1
3.786415900E0,2.255095482E0,-1.418692768E-1,6.093201637E-1
3.796129493E0,2.273420811E0,-4.413371533E-2,4.028537571E-1
3.805843816E0,2.263647318E0,1.084253844E-2,2.047865391E-1
3.815557254E0,2.255095482E0,2.305948362E-2,1.131594554E-1
3.825270014E0,2.322288513E0,-6.612421572E-2,1.388150454E-1
3.834983556E0,2.416358948E0,-2.677038014E-1,2.597627938E-1
3.844697879E0,2.511651278E0,-3.678827584E-1,4.199574888E-1
3.854411420E0,2.633820772E0,-2.713688910E-1,5.286883116E-1
3.864124077E0,2.747438192E0,-1.553079188E-1,5.470137000E-1
3.873837670E0,2.858612537E0,-1.357607991E-1,4.517215490E-1
3.883551993E0,2.957569599E0,-1.699682474E-1,2.206685692E-1
3.893265431E0,3.001550674E0,-1.516428292E-1,-1.275143623E-1
3.902978191E0,3.006437540E0,-6.856760383E-2,-4.414898455E-1
3.912691785E0,2.951461315E0,-4.169032723E-2,-5.966450572E-1
3.922406056E0,2.873272896E0,-1.333174109E-1,-5.392253995E-1
3.932119598E0,2.831735134E0,-1.821851879E-1,-3.779617548E-1
3.941832254E0,2.836622000E0,-1.174353883E-1,-2.105895877E-1
3.951545848E0,2.898928404E0,-8.689302206E-2,-8.719844371E-2
3.961260170E0,2.967343330E0,-2.102841735E-1,-2.733541466E-2
3.970973608E0,2.977116823E0,-3.617742956E-1,-7.009471953E-2
3.980686368E0,2.955126286E0,-4.717268050E-1,-2.411319613E-1
3.990399910E0,2.963678122E0,-6.048914790E-1,-4.268295169E-1
4.000114233E0,2.922140598E0,-7.478297353E-1,-6.186355352E-1
4.009827775E0,2.865942717E0,-8.871029615E-1,-7.713474035E-1
4.019540431E0,2.790197611E0,-9.579612017E-1,-8.666395545E-1
4.029254025E0,2.708343983E0,-9.726215601E-1,-8.312104344E-1
4.038968348E0,2.677801609E0,-8.871029615E-1,-7.493568659E-1
4.048681785E0,2.690018654E0,-7.759287357E-1,-6.442911625E-1
4.058394545E0,2.729112864E0,-7.148439884E-1,-5.380037427E-1
4.068108087E0,2.758433580E0,-6.354338527E-1,-4.756973088E-1
4.077822410E0,2.740108013E0,-5.523586273E-1,-4.818057716E-1
4.087535952E0,2.661919594E0,-4.888305068E-1,-5.526640415E-1
4.097248608E0,2.575179338E0,-4.448495209E-1,-6.540647149E-1
4.106962202E0,2.520203114E0,-3.691044450E-1,-7.566870451E-1
4.116676473E0,2.416358948E0,-2.677038014E-1,-7.811209559E-1
4.126390014E0,2.228218079E0,-2.334963679E-1,-7.029324770E-1
4.136102670E0,2.004647970E0,-2.701472044E-1,-5.599942207E-1
4.145816264E0,1.783521295E0,-2.396048307E-1,-3.767400384E-1
4.155530587E0,1.597823739E0,-1.162136942E-1,-1.983726472E-1
4.165244025E0,1.484206080E0,1.000262350E-1,-6.520794332E-2
4.174956785E0,1.474432588E0,2.247917950E-1,5.451811850E-2
4.184670327E0,1.469545841E0,1.195733473E-1,1.766875684E-1
4.194384650E0,1.435338378E0,-4.657710344E-2,2.194468826E-1
4.204098191E0,1.392579079E0,-1.748550236E-1,1.583621502E-1
4.213810848E0,1.338824511E0,-2.237228155E-1,8.628217876E-2
4.223524441E0,1.297286868E0,-1.467560530E-1,3.252761811E-2
4.233238712E0,1.263079405E0,4.871506989E-2,-1.145338640E-2
4.242952254E0,1.183516622E0,2.712161839E-1,-9.208522737E-2
4.252664910E0,1.003927469E0,3.921639323E-1,-2.057028115E-1
4.262378504E0,7.168292403E-1,3.188622594E-1,-3.132119179E-1
4.272092827E0,4.040754735E-1,1.600419879E-1,-3.742966652E-1
4.281806264E0,1.365243644E-1,-5.039489828E-3,-3.571929336E-1
4.291519025E0,-7.482878864E-2,-1.601946950E-1,-3.058817685E-1
4.301232566E0,-2.324273884E-1,-3.275668323E-1,-2.582356930E-1
4.310946889E0,-3.362714052E-1,-4.998257756E-1,-2.338017821E-1
4.320660431E0,-3.888042867E-1,-6.757497787E-1,-2.191414535E-1
4.330373087E0,-4.278984964E-1,-8.223531246E-1,-1.727170646E-1
4.340086629E0,-4.559974670E-1,-8.919897079E-1,-9.941539168E-2
4.349800952E0,-4.682144225E-1,-8.736643195E-1,-1.634016447E-2
4.359514493E0,-4.755446017E-1,-7.710419297E-1,7.040014863E-2
4.369227150E0,-4.657710493E-1,-5.865660906E-1,1.327065676E-1
4.378940743E0,-4.120164812E-1,-3.544441164E-1,1.681357026E-1
4.388655014E0,-3.216110766E-1,-9.910997003E-2,2.072299272E-1
4.398368556E0,-2.177670449E-1,1.183516532E-1,2.377723008E-1
4.408081212E0,-1.224748790E-1,3.408527672E-1,2.414373755E-1
4.417794806E0,-4.550812021E-2,5.839699507E-1,2.194468826E-1
4.427509129E0,1.435491070E-2,7.989882231E-1,1.766875684E-1
4.437222566E0,3.756710514E-2,9.834640622E-1,1.192679256E-1
4.446935275E0,1.068982668E-2,1.100746751E0,4.474456236E-2
4.456648868E0,-7.116370648E-2,1.131289124E0,-2.733541466E-2
4.466363191E0,-1.823379099E-1,1.066539288E0,-8.231166750E-2
4.476076629E0,-3.069507480E-1,9.174925685E-1,-1.201841980E-1
4.485789389E0,-4.340069890E-1,7.452336550E-1,-1.421747059E-1
4.495502931E0,-5.512896776E-1,5.803049207E-1,-1.531699449E-1
4.505217254E0,-6.429167390E-1,3.811686933E-1,-1.433963925E-1
4.514930691E0,-7.149966955E-1,1.942494214E-1,-1.189625040E-1
4.524643452E0,-7.821899056E-1,3.038965166E-2,-9.086353332E-2
4.534356993E0,-8.554915786E-1,-1.345391124E-1,-7.009471953E-2
4.544071316E0,-9.397885203E-1,-2.689255178E-1,-7.620319724E-2
4.553784754E0,-1.028972149E0,-2.884726226E-1,-9.819369763E-2
4.563497514E0,-1.112047434E0,-1.772984117E-1,-1.030804738E-1
4.573211056E0,-1.211004734E0,-4.535540938E-2,-2.489202656E-2
4.582925379E0,-1.371046662E0,3.283303976E-2,1.192679256E-1
4.592638920E0,-1.587286592E0,2.290677279E-3,2.721324563E-1
4.602351577E0,-1.786422849E0,-3.019112647E-1,3.674246371E-1
4.612065170E0,-1.924474239E0,-7.295043468E-1,3.613161445E-1
4.621779441E0,-2.024653196E0,-9.518527389E-1,2.831276953E-1
4.631492983E0,-2.115058661E0,-9.591829181E-1,1.876828223E-1
4.641205639E0,-2.221346140E0,-8.675557971E-1,1.290414780E-1
4.650919233E0,-2.375279665E0,-7.307260633E-1,1.583621502E-1
4.660633504E0,-2.585411072E0,-6.219952106E-1,2.721324563E-1
4.670347045E0,-2.824863195E0,-5.596888065E-1,4.480564594E-1
4.680059702E0,-3.069201946E0,-5.975613594E-1,6.264238358E-1
4.689773295E0,-3.265894890E0,-7.673768401E-1,7.192726731E-1
4.699487566E0,-3.281776905E0,-9.494093657E-1,7.204943299E-1
4.709201108E0,-3.100966215E0,-7.844805717E-1,6.215370893E-1
4.718913764E0,-2.795542479E0,-2.542651594E-1,4.969242513E-1
4.728627358E0,-2.501114130E0,3.420744538E-1,4.712686539E-1
4.738341629E0,-2.322746754E0,7.574505806E-1,5.922164321E-1
4.748055170E0,-2.265326977E0,9.077190161E-1,8.353336453E-1
4.757767827E0,-2.325190067E0,9.199360013E-1,1.094332814E0
4.767481420E0,-2.482788801E0,8.502993584E-1,1.221389055E0
4.777195691E0,-2.646495819E0,7.635591030E-1,1.178629756E0
4.786909233E0,-2.699028730E0,9.394831061E-1,1.005149126E0
4.796621889E0,-2.591519594E0,1.450151443E0,7.327113152E-1
4.806335483E0,-2.435142517E0,2.078102350E0,4.871506989E-1
4.816049754E0,-2.255553484E0,2.500808716E0,4.028537571E-1
4.825763295E0,-2.040535212E0,2.466601133E0,5.555655956E-1
4.835475952E0,-1.853615999E0,2.157512426E0,8.426637650E-1
4.845189545E0,-1.823073626E0,1.948602796E0,1.071120620E0
4.854903868E0,-1.915922403E0,2.029234648E0,1.198176861E0
4.864617306E0,-1.998997688E0,2.168507814E0,1.249488115E0
4.874330014E0,-1.981893897E0,2.046338320E0,1.168856263E0
4.884043608E0,-1.951351523E0,1.709150672E0,9.061918855E-1
4.893757931E0,-2.008771181E0,1.276670814E0,5.238015056E-1
4.903471368E0,-2.155374527E0,7.586722970E-1,1.229330078E-1
4.913184077E0,-2.376501322E0,2.431172132E-1,-2.032594234E-1
4.922897670E0,-2.582967520E0,-2.371614426E-1,-3.865135908E-1
4.932611993E0,-2.732014418E0,-5.205945969E-1,-4.158342779E-1
4.942325431E0,-2.761335135E0,-5.352548957E-1,-3.657447994E-1
4.952038191E0,-2.664821148E0,-4.118637741E-1,-3.009949923E-1
4.961751733E0,-2.516996145E0,-3.373403847E-1,-2.130329758E-1
4.971466056E0,-2.372836113E0,-2.408265322E-1,-1.018587798E-1
4.981179493E0,-2.264105320E0,-2.249445021E-1,-5.344913341E-3
4.990892202E0,-2.270213842E0,-3.605526090E-1,3.374931216E-2
5.000605795E0,-2.348402262E0,-4.399627447E-1,3.497100621E-2
5.010320118E0,-2.245779991E0,-3.617742956E-1,3.741439432E-2
5.020033556E0,-1.985558987E0,-2.383831441E-1,1.168245375E-1
5.029746316E0,-1.831625462E0,-1.015533581E-1,3.002314270E-1
5.039459858E0,-1.794974685E0,9.269607067E-2,5.091412067E-1
5.049174181E0,-1.775427580E0,3.213056624E-1,6.752916574E-1
5.058887618E0,-1.743663549E0,5.179984570E-1,7.547017932E-1
5.068600379E0,-1.715564489E0,6.303943992E-1,7.180509567E-1
5.078313920E0,-1.779092669E0,5.473191738E-1,5.787777901E-1
5.088028243E0,-1.878049850E0,2.150182426E-1,3.869717419E-1
5.097741681E0,-1.858502746E0,-1.797417998E-1,1.815743446E-1
5.107454441E0,-1.812078357E0,-5.438067913E-1,7.895200700E-2
5.117167983E0,-1.769319057E0,-7.942541242E-1,6.429167092E-2
5.126882306E0,-1.716786265E0,-9.750649333E-1,8.261708915E-2
5.136595848E0,-1.715564489E0,-1.174201131E0,1.412584335E-1
5.146308504E0,-1.714342833E0,-1.172979474E0,1.241547018E-1
5.156022098E0,-1.655701518E0,-1.036149621E0,1.664558798E-2
5.165736368E0,-1.575069666E0,-9.445225596E-1,-2.367033064E-2
5.175449910E0,-1.460230350E0,-8.443436027E-1,-4.077405483E-2
5.185162566E0,-1.346612811E0,-7.722636461E-1,9.315420873E-3
5.194876160E0,-1.258650780E0,-6.671979427E-1,8.093725890E-3
5.204590431E0,-1.185349107E0,-6.109999418E-1,1.420219894E-2
5.214303973E0,-1.101052165E0,-5.596888065E-1,1.175880991E-2
5.224016629E0,-9.959864616E-1,-4.705050886E-1,-1.878355257E-2
5.233730223E0,-9.336800575E-1,-3.385621011E-1,-6.642963737E-2
5.243444545E0,-8.774821162E-1,-2.481566966E-1,-1.275143623E-1
5.253157983E0,-7.956285477E-1,-1.711899489E-1,-1.714953631E-1
5.262870743E0,-7.040014863E-1,-1.724116355E-1,-2.044811249E-1
5.272584285E0,-6.197045445E-1,-1.724116355E-1,-2.179197669E-1
5.282298608E0,-5.366293192E-1,-1.516428292E-1,-2.240282297E-1
5.292012045E0,-4.498890042E-1,-1.186570823E-1,-2.325800955E-1
5.301724806E0,-3.472666740E-1,-3.313846514E-2,-2.130329758E-1
5.311438348E0,-2.580829561E-1,4.260659590E-2,-1.849340051E-1
5.321152670E0,-1.615691036E-1,1.000262350E-1,-1.690519750E-1
5.330866212E0,-6.505523622E-2,1.441599578E-1,-1.788255423E-1
5.340578868E0,1.068982668E-2,1.624853760E-1,-2.350234836E-1
5.350292462E0,1.194206402E-1,1.330119967E-1,-3.229855001E-1
5.360006733E0,2.281514555E-1,1.061347127E-1,-4.072824121E-1
5.369720275E0,3.405473530E-1,1.490467340E-1,-4.708105326E-1
5.379432931E0,4.602734149E-1,2.321219593E-1,-5.196782947E-1
5.389146525E0,5.665608048E-1,3.225273490E-1,-5.489989519E-1
5.398860848E0,6.704048514E-1,4.263713956E-1,-5.502206683E-1
5.408574285E0,7.766922712E-1,4.984513521E-1,-5.331169367E-1
5.418287045E0,8.854231238E-1,5.204418898E-1,-5.037962794E-1
5.428000587E0,9.819369912E-1,5.412106514E-1,-4.793623984E-1
5.437714910E0,1.076007485E0,5.094466209E-1,-4.781406820E-1
5.447428452E0,1.144422293E0,4.935645759E-1,-4.964661002E-1
5.457141108E0,1.231315374E0,4.740174711E-1,-5.099047422E-1
5.466854702E0,1.311947227E0,4.471401870E-1,-4.781406820E-1
5.476568973E0,1.363258362E0,4.569137394E-1,-3.999522328E-1
5.486282514E0,1.409682751E0,4.801259339E-1,-3.058817685E-1
5.495995170E0,1.434116602E0,5.167768002E-1,-2.154763639E-1
5.505708764E0,1.468324065E0,5.314370990E-1,-1.324011385E-1
5.515423087E0,1.482984424E0,4.544703662E-1,-5.543438718E-2
5.525136525E0,1.502531528E0,3.457395434E-1,4.352286831E-2
5.534849285E0,1.528187156E0,3.151971996E-1,1.473668963E-1
5.544562827E0,1.575833201E0,3.151971996E-1,2.353289127E-1
5.554277150E0,1.597823739E0,3.249707520E-1,2.965663373E-1
5.563990691E0,1.656465054E0,3.066453338E-1,3.112266660E-1
5.573703348E0,1.750535488E0,2.186833173E-1,2.696890533E-1
5.583416889E0,1.821393847E0,2.064663768E-1,1.913478971E-1
5.593131212E0,1.887365341E0,1.954711229E-1,8.139539510E-2
5.602844754E0,1.906912446E0,2.162399292E-1,-2.489202656E-2
5.612557410E0,1.943563223E0,2.260134816E-1,-8.475505561E-2
5.622271004E0,2.014421463E0,1.722589284E-1,-9.575030953E-2
5.631985327E0,2.117043972E0,1.380514801E-1,-7.498150319E-2
5.641698764E0,2.252651930E0,1.514901221E-1,-3.833066672E-2
5.651411525E0,2.376043081E0,5.726693198E-2,-6.032116711E-2
5.661125066E0,2.427354336E0,-1.394258887E-1,-1.812689304E-1
5.670839389E0,2.374821424E0,-3.336753249E-1,-3.840702176E-1
5.680552931E0,2.356496096E0,-5.645755529E-1,-5.868715048E-1
5.690265587E0,2.385816574E0,-6.671979427E-1,-7.139277458E-1
5.699979181E0,2.421245813E0,-6.158867478E-1,-7.175928354E-1
5.709693452E0,2.431019306E0,-4.912739098E-1,-5.893148780E-1
5.719406993E0,2.465226889E0,-3.568875194E-1,-3.816268146E-1
5.729119650E0,2.560518980E0,-2.921377122E-1,-2.044811249E-1
5.738833243E0,2.691240311E0,-2.408265322E-1,-6.887302548E-2
5.748547566E0,2.817074776E0,-1.675248593E-1,1.175880991E-2
5.758261004E0,2.883046389E0,-1.797417998E-1,1.664558798E-2
5.767973764E0,2.875716209E0,-2.322746664E-1,-7.864658535E-2
5.777687306E0,2.846395493E0,-2.628170252E-1,-2.313583940E-1
5.787401629E0,2.809744596E0,-3.336753249E-1,-3.852919042E-1
5.797115170E0,2.747438192E0,-4.130854607E-1,-5.209000111E-1
5.806827827E0,2.688796997E0,-5.108210444E-1,-6.284091473E-1
5.816541420E0,2.682688475E0,-6.171084642E-1,-6.760551929E-1
5.826255691E0,2.743773222E0,-6.537593007E-1,-6.186355352E-1
5.835969233E0,2.874494553E0,-5.609105229E-1,-5.025745630E-1
5.845681889E0,3.018654346E0,-4.472928941E-1,-3.950654566E-1
5.855395483E0,3.099286318E0,-3.739912212E-1,-3.657447994E-1
5.865109806E0,3.099286318E0,-3.568875194E-1,-4.207210541E-1
5.874823243E0,3.051640272E0,-4.607315361E-1,-4.842491746E-1
5.884536004E0,3.027206421E0,-6.122216582E-1,-5.013529062E-1
5.894249545E0,3.030871391E0,-7.563816309E-1,-4.585935771E-1
5.903963868E0,3.029649734E0,-8.895463347E-1,-4.451549351E-1
5.913677410E0,2.985668659E0,-1.028819442E0,-5.331169367E-1
5.923390066E0,2.874494553E0,-1.180309653E0,-6.772769094E-1
5.933103660E0,2.698570490E0,-1.352568507E0,-8.299887180E-1
5.942817931E0,2.489660740E0,-1.467407823E0,-9.289459586E-1
5.952531473E0,2.295411348E0,-1.428313613E0,-9.179506898E-1
5.962244129E0,2.156138182E0,-1.271936655E0,-8.263236284E-1
5.971957723E0,2.087723255E0,-1.075243831E0,-7.175928354E-1
5.981672045E0,2.042520523E0,-8.712208867E-1,-6.296308041E-1
5.991385483E0,1.981435776E0,-6.940752268E-1,-5.209000111E-1
6.001098243E0,1.864153147E0,-6.305471063E-1,-3.413109183E-1
6.010811785E0,1.702889442E0,-6.562026739E-1,-1.116323397E-1
6.020526108E0,1.531852245E0,-6.452074051E-1,1.168245375E-1
6.030239650E0,1.381583810E0,-5.511369109E-1,2.819060087E-1
6.039952306E0,1.305838704E0,-4.729484916E-1,3.332171738E-1
6.049665900E0,1.283848286E0,-4.521796703E-1,3.014531136E-1
6.059380170E0,1.250862479E0,-4.228590131E-1,2.709107697E-1
6.069093712E0,1.210546613E0,-3.275668323E-1,2.560977042E-1
6.078806368E0,1.154195905E0,-1.174353883E-1,2.475458533E-1
6.088519962E0,1.060125470E0,1.563768983E-1,2.341072112E-1
6.098234285E0,9.452861547E-1,3.860554695E-1,1.950129867E-1
6.107947723E0,8.243383765E-1,5.314370990E-1,1.339282542E-1
6.117660483E0,7.217160463E-1,6.145123243E-1,3.863608837E-2
6.127374025E0,6.374191046E-1,6.487197876E-1,-7.742489129E-2
6.137088348E0,5.457920432E-1,6.450546980E-1,-1.873773932E-1
6.146801785E0,4.395045936E-1,5.974085927E-1,-2.936648130E-1
6.156514545E0,3.271087110E-1,4.654656053E-1,-3.681881726E-1
6.166228087E0,1.743968874E-1,2.834331393E-1,-3.681881726E-1
6.175942410E0,-1.985253580E-2,1.441599578E-1,-3.083251417E-1
6.185655952E0,-1.982199401E-1,7.437065244E-2,-2.252499312E-1
6.195368608E0,-3.240544796E-1,2.794626169E-2,-1.262926757E-1
6.205082202E0,-3.875826001E-1,-2.458660305E-2,-3.588727489E-2
6.214796473E0,-3.826957941E-1,-7.223268598E-2,3.863608837E-2
6.224510014E0,-3.374931216E-1,-6.123743951E-2,1.070509851E-1
6.234222670E0,-2.727433145E-1,2.672456764E-2,1.314848661E-1
6.243936264E0,-1.884463727E-1,1.269035190E-1,1.082726792E-1
6.253650587E0,-9.926267713E-2,2.382304370E-1,7.040014863E-2
6.263364025E0,-3.817795217E-2,3.530697227E-1,1.786728203E-2
6.273076785E0,-5.192201585E-3,4.349232614E-1,-3.100049868E-2
6.282790327E0,8.246437646E-3,4.862344265E-1,-6.520794332E-2
6.292504650E0,-6.413896102E-3,5.155550838E-1,-7.375980914E-2
6.302218191E0,-3.939964995E-2,4.911212027E-1,-5.543438718E-2
6.311930848E0,-6.994201243E-2,4.104893506E-1,-2.244863659E-2
6.321644441E0,-9.193251282E-2,3.237490356E-1,6.872031838E-3
6.331358712E0,-1.273616552E-1,2.528907657E-1,2.641914412E-2
6.341072254E0,-1.872246861E-1,1.612636745E-1,4.963133857E-2
6.350784910E0,-2.568612695E-1,8.536590636E-2,6.795676053E-2
6.360498504E0,-3.020639718E-1,2.550287358E-2,7.528692484E-2
6.370212827E0,-3.362714052E-1,-2.092151903E-2,8.261708915E-2
6.379926264E0,-3.753656447E-1,-2.947338112E-2,7.895200700E-2
6.389639025E0,-4.230117202E-1,-5.039489828E-3,6.917845458E-2
6.399352566E0,-4.804313779E-1,2.428117767E-2,6.917845458E-2
6.409066889E0,-5.402944088E-1,1.939439960E-2,8.017370105E-2
6.418780431E0,-5.989357233E-1,-9.926267900E-3,1.033858955E-1
6.428493087E0,-6.795675755E-1,-1.603474095E-2,1.583621502E-1
6.438206629E0,-8.054021001E-1,-3.817795310E-3,2.646495700E-1
6.447920952E0,-9.972081780E-1,-1.236965694E-2,4.016320705E-1
6.457634493E0,-1.281862974E0,-3.069507517E-2,5.299099684E-1
6.467347150E0,-1.604390383E0,-8.567132801E-2,6.068767309E-1
6.477060743E0,-1.837733984E0,-1.272089481E-1,6.129852533E-1
6.486775014E0,-1.934247851E0,-1.516428292E-1,6.105418205E-1
6.496488556E0,-1.926917672E0,-2.554868758E-1,5.812211633E-1
6.506201212E0,-1.889045119E0,-4.020902216E-1,4.663818777E-1
6.515914806E0,-1.891488552E0,-5.523586273E-1,3.148917556E-1
6.525629077E0,-1.974563718E0,-7.441646457E-1,2.231119573E-1
6.535342618E0,-2.133383989E0,-9.433009028E-1,2.341072112E-1
6.545055275E0,-2.350845575E0,-1.069135427E0,3.576510847E-1
6.554768868E0,-2.586632729E0,-1.119224906E0,5.470137000E-1
6.564483191E0,-2.772330284E0,-1.120446563E0,7.363763452E-1
6.574196629E0,-2.890834570E0,-1.033706307E0,8.463288546E-1
6.583909389E0,-2.943367481E0,-9.090934396E-1,8.597674966E-1
6.593622931E0,-2.865179062E0,-8.076927662E-1,7.925743461E-1
6.603337254E0,-2.674594641E0,-7.209524512E-1,6.997255087E-1
6.613050691E0,-2.453468084E0,-5.804576278E-1,6.288672686E-1
6.622763452E0,-2.260440350E0,-3.336753249E-1,6.007682681E-1
6.632476993E0,-2.115058661E0,-1.725643501E-2,6.423059106E-1
6.642191316E0,-2.062525749E0,3.176405728E-1,7.363763452E-1
6.651904858E0,-2.095511436E0,6.438329816E-1,8.353336453E-1
6.661617514E0,-2.188360214E0,8.661814332E-1,9.513946176E-1
6.671331108E0,-2.314194918E0,9.284878373E-1,1.083337665E0
6.681045379E0,-2.377722979E0,9.944593310E-1,1.159082651E0
6.690758920E0,-2.321525097E0,1.200925708E0,1.138313890E0
6.700471577E0,-2.218902588E0,1.411057115E0,1.056460381E0
6.710185170E0,-2.199355602E0,1.489245653E0,1.001484036E0
6.719899441E0,-2.264105320E0,1.532004952E0,1.029583097E0
6.729612983E0,-2.286095858E0,1.693268657E0,1.111436605E0
6.739325639E0,-2.133383989E0,1.937607527E0,1.179851532E0
6.749039233E0,-1.886601806E0,2.042673349E0,1.157860994E0
6.758753556E0,-1.714342833E0,1.937607527E0,1.002705812E0
6.768466993E0,-1.703347564E0,1.798334360E0,6.960604787E-1
6.778179702E0,-1.823073626E0,1.567434072E0,3.148917556E-1
6.787893295E0,-1.997775912E0,1.288887739E0,-4.199574888E-2
6.797607618E0,-2.126053810E0,1.028666735E0,-2.765611112E-1
6.807321056E0,-2.102841616E0,8.209787011E-1,-3.461976945E-1
6.817033816E0,-1.998997688E0,6.548282504E-1,-3.022166789E-1
6.826747358E0,-1.955016613E0,4.825693369E-1,-1.739387512E-1
6.836461681E0,-2.027096510E0,3.103103936E-1,5.329642445E-2
6.846175118E0,-2.144379377E0,1.417165697E-1,3.564293683E-1
6.855887879E0,-2.300756216E0,-6.245913357E-2,6.313106418E-1
6.865601420E0,-2.444916248E0,-2.188360244E-1,8.377770185E-1
6.875315743E0,-2.398491859E0,-3.067980409E-1,9.843803644E-1
6.885029181E0,-2.204242229E0,-2.628170252E-1,1.087002754E0
6.894741941E0,-2.001441002E0,-8.704573847E-3,1.141978979E0
6.904455483E0,-1.843842506E0,3.555130959E-1,1.138313890E0
6.914169806E0,-1.746106863E0,6.120689511E-1,1.073564053E0
6.923883348E0,-1.735111594E0,7.488987446E-1,9.758284688E-1
6.933596004E0,-1.803526521E0,8.283088803E-1,8.756495714E-1
6.943309545E0,-1.821851969E0,9.297095537E-1,8.377770185E-1
6.953023868E0,-1.627602577E0,1.050657272E0,8.194515705E-1
6.962737410E0,-1.374711752E0,1.001789451E0,7.327113152E-1
6.972450066E0,-1.295301557E0,7.391251922E-1,6.019899845E-1
6.982163608E0,-1.333174109E0,4.337015450E-1,4.957025647E-1
6.991877931E0,-1.339282632E0,1.795890927E-1,4.199574888E-1
7.001591473E0,-1.336839199E0,-6.490252167E-2,3.674246371E-1
7.011304129E0,-1.385707021E0,-1.565296054E-1,3.796415627E-1
7.021017723E0,-1.415027618E0,-1.211004704E-1,4.089622498E-1
7.030731993E0,-1.383263588E0,-1.259872466E-1,3.698680103E-1
7.040445535E0,-1.389372110E0,-8.689302206E-2,3.674246371E-1
7.050158191E0,-1.379598498E0,-1.149920002E-1,3.527642787E-1
7.059871785E0,-1.367381573E0,-2.579302490E-1,3.210002482E-1
7.069586056E0,-1.309961915E0,-3.055763543E-1,2.806843221E-1
7.079299598E0,-1.224443316E0,-3.129065037E-1,2.622061968E-1
7.089012254E0,-1.181684017E0,-3.080197275E-1,2.341072112E-1
7.098725848E0,-1.190235853E0,-4.106420577E-1,1.950129867E-1
7.108440118E0,-1.207339644E0,-5.645755529E-1,1.534753740E-1
7.118153660E0,-1.196344376E0,-6.586460471E-1,1.033858955E-1
7.127866316E0,-1.169467092E0,-7.722636461E-1,6.795676053E-2
7.137579910E0,-1.113269091E0,-7.759287357E-1,4.230117425E-2
7.147294181E0,-9.910996556E-1,-6.671979427E-1,4.230117425E-2
7.157007723E0,-8.713735938E-1,-5.694623590E-1,3.741439432E-2
7.166720379E0,-7.931851745E-1,-3.715478480E-1,2.397575416E-2
7.176433973E0,-7.272136807E-1,-2.347180545E-1,1.985253533E-3
7.186148243E0,-6.661289334E-1,-2.420482337E-1,-4.443913698E-2
7.195861785E0,-6.123743653E-1,-2.811424434E-1,-8.597674966E-2
7.205574441E0,-5.451811552E-1,-3.177932799E-1,-9.941539168E-2
7.215288035E0,-4.327852726E-1,-2.347180545E-1,-8.842013776E-2
7.225002306E0,-2.812951505E-1,-1.186570823E-1,-7.375980914E-2
7.234715848E0,-1.627907902E-1,-1.969982497E-2,-8.964183182E-2
7.244428504E0,-4.062134400E-2,3.161134571E-2,-1.311794519E-1
7.254142098E0,3.634541109E-2,7.559234649E-2,-1.678302884E-1
7.263856368E0,1.035386100E-1,1.207950488E-1,-1.995943487E-1
7.273569910E0,1.829487532E-1,1.624853760E-1,-2.264716178E-1
7.283282566E0,2.562504113E-1,2.089097649E-1,-2.631224692E-1
7.292996160E0,3.319954872E-1,2.834331393E-1,-3.058817685E-1
7.302710431E0,4.114056230E-1,3.506263196E-1,-3.461976945E-1
7.312423973E0,5.189147592E-1,3.726168275E-1,-3.816268146E-1
7.322136629E0,6.447492838E-1,3.884988427E-1,-4.146125913E-1
7.331850223E0,7.632536292E-1,4.031592011E-1,-4.561502039E-1
7.341564493E0,8.707627654E-1,4.373666346E-1,-5.123481154E-1
7.351278035E0,9.917105436E-1,4.495835900E-1,-5.783196688E-1
7.360990691E0,1.121210098E0,4.544703662E-1,-6.198572516E-1
7.370704285E0,1.230093718E0,4.666872919E-1,-6.381826997E-1
7.380418556E0,1.326607585E0,4.947862923E-1,-6.381826997E-1
7.390132098E0,1.409682751E0,4.789042473E-1,-6.064186096E-1
7.399844754E0,1.484206080E0,4.337015450E-1,-5.587725043E-1
7.409558348E0,1.562394619E0,3.506263196E-1,-5.209000111E-1
7.419272618E0,1.567281365E0,3.225273490E-1,-5.111264586E-1
7.428986160E0,1.579498291E0,1.759240031E-1,-4.805840850E-1
7.438698816E0,1.634474516E0,-1.626380831E-1,-4.659237564E-1
7.448412410E0,1.640583038E0,-5.218162537E-1,-5.050179958E-1
7.458126681E0,1.612484097E0,-7.295043468E-1,-5.661026835E-1
7.467840223E0,1.660130143E0,-7.942541242E-1,-6.210789680E-1
7.477552879E0,1.766417503E0,-7.881456614E-1,-6.357392669E-1
7.487266420E0,1.856822968E0,-7.417212725E-1,-5.905365944E-1
7.496980743E0,1.936233044E0,-6.757497787E-1,-5.196782947E-1
7.506694285E0,2.018086672E0,-5.719057322E-1,-4.475983381E-1
7.516406941E0,2.046185493E0,-5.279247165E-1,-3.608580232E-1
7.526120483E0,1.957001925E0,-5.438067913E-1,-2.899997234E-1
7.535834806E0,1.854379535E0,-4.448495209E-1,-2.838912606E-1
7.545548348E0,1.856822968E0,-4.338542521E-1,-3.168770075E-1
7.555261004E0,1.834832430E0,-4.411844313E-1,-3.449759781E-1
7.564974545E0,1.809176922E0,-3.862081766E-1,-3.767400384E-1
7.574688868E0,1.836054206E0,-3.520007432E-1,-3.877353072E-1
7.584402410E0,1.899582267E0,-3.617742956E-1,-3.584146202E-1
7.594115066E0,1.966775417E0,-4.179722369E-1,-3.547495604E-1
7.603828608E0,2.044963837E0,-5.328115225E-1,-4.219427407E-1
7.613542931E0,2.121930599E0,-6.562026739E-1,-5.563291311E-1
7.623256368E0,2.165911674E0,-7.404996157E-1,-7.078192830E-1
7.632969129E0,2.195232391E0,-7.966975570E-1,-8.348754644E-1
7.642682670E0,2.207449198E0,-9.042066336E-1,-9.399412274E-1
7.652396993E0,2.186680555E0,-1.016602516E0,-9.888089895E-1
7.662110431E0,2.130482435E0,-1.010494113E0,-9.631534219E-1
7.671823191E0,2.124374151E0,-8.980981708E-1,-8.788564801E-1
7.681536733E0,2.165911674E0,-6.769714952E-1,-7.835643291E-1
7.691251056E0,2.218444586E0,-4.289674759E-1,-7.224795818E-1
7.700964493E0,2.281972647E0,-2.628170252E-1,-7.249229550E-1
7.710677202E0,2.343057394E0,-2.261662036E-1,-7.908945084E-1
7.720390795E0,2.371156454E0,-2.603736520E-1,-8.580876589E-1
7.730105066E0,2.387038469E0,-2.738122940E-1,-9.008470178E-1
7.739818608E0,2.373599768E0,-2.139492482E-1,-8.971819282E-1
7.749531264E0,2.330840349E0,-1.186570823E-1,-8.336538076E-1
7.759244858E0,2.332062006E0,-3.558185324E-2,-7.395833135E-1
7.768959129E0,2.361382723E0,-1.114796288E-2,-6.589514613E-1
7.778672670E0,2.378486633E0,-2.458660305E-2,-6.125270724E-1
7.788385327E0,2.383373260E0,2.305948362E-2,-6.076403260E-1
7.798098868E0,2.417580843E0,5.360184610E-2,-6.137487888E-1
7.807813191E0,2.515316248E0,1.206423342E-2,-6.381826997E-1
7.817526733E0,2.606943369E0,-2.458660305E-2,-7.102626562E-1
7.827239389E0,2.635042429E0,-8.689302206E-2,-8.006680608E-1
7.836952931E0,2.609386683E0,-2.151709497E-1,-8.568660021E-1
7.846667254E0,2.561740637E0,-3.202366829E-1,-8.397622705E-1
7.856380691E0,2.526311636E0,-3.837648034E-1,-7.591304183E-1
7.866093452E0,2.484773874E0,-3.727695346E-1,-6.577298045E-1
7.875806993E0,2.464005232E0,-2.334963679E-1,-5.783196688E-1
7.885521316E0,2.520203114E0,-4.902049154E-2,-5.795413256E-1
7.895234754E0,2.584952831E0,-1.527118147E-4,-6.601731777E-1
7.904947462E0,2.586174488E0,-6.123743951E-2,-7.725690603E-1
7.914661056E0,2.549523830E0,-5.039489828E-3,-8.898517489E-1
7.924375327E0,2.451788187E0,1.514901221E-1,-9.533798695E-1
7.934088868E0,2.284415960E0,2.773246467E-1,-9.472714067E-1
7.943801525E0,2.136590958E0,3.335226178E-1,-8.800781965E-1
7.953515118E0,2.042520523E0,3.445178568E-1,-7.823426127E-1
7.963229389E0,1.958223581E0,3.628432751E-1,-6.540647149E-1
7.972942931E0,1.861709714E0,4.031592011E-1,-4.708105326E-1
7.982655587E0,1.749313831E0,4.153761268E-1,-2.496838123E-1
7.992369129E0,1.607597232E0,3.823903799E-1,-1.878355257E-2
8.002083452E0,1.388913989E0,2.382304370E-1,2.292204350E-1
8.011796889E0,1.106549859E0,8.399149403E-3,4.566083252E-1
8.021509650E0,8.817580342E-1,-1.724116355E-1,5.799994469E-1
8.031223191E0,7.925743461E-1,-2.163926363E-1,5.848862529E-1
8.040937514E0,8.170081973E-1,-1.247655526E-1,4.847072959E-1
8.050650952E0,8.854231238E-1,6.337540597E-2,3.197785318E-1
8.060363660E0,9.281824231E-1,2.895416021E-1,1.253764033E-1
8.070077254E0,9.391776323E-1,5.021164417E-1,-6.887302548E-2
8.079791525E0,9.452861547E-1,6.560499668E-1,-2.606790662E-1
8.089505066E0,9.135220647E-1,6.755970716E-1,-4.207210541E-1
8.099217723E0,8.023478985E-1,5.265503526E-1,-5.331169367E-1
8.108931264E0,5.971031785E-1,2.626643181E-1,-5.880932212E-1
8.118645587E0,3.222219348E-1,-4.169032723E-2,-5.343386531E-1
8.128359025E0,4.489727318E-2,-3.385621011E-1,-3.791834414E-1
8.138071785E0,-1.688992679E-1,-5.865660906E-1,-1.873773932E-1
8.147785327E0,-3.020639718E-1,-7.563816309E-1,8.093725890E-3
8.157499650E0,-3.790307343E-1,-8.345700502E-1,1.779092699E-1
8.167213087E0,-3.936910629E-1,-8.455653191E-1,2.782409191E-1
8.176925795E0,-3.338280320E-1,-7.795938253E-1,2.941229641E-1
8.186639389E0,-2.397575527E-1,-6.061131954E-1,2.499892414E-1
8.196353660E0,-1.481304616E-1,-3.532224298E-1,1.705790907E-1
8.206067202E0,-6.139015034E-2,-8.444963396E-2,6.429167092E-2
8.215779858E0,-3.970507067E-3,1.305686086E-1,-4.199574888E-2
8.225493452E0,-3.054236295E-4,2.822114229E-1,-9.941539168E-2
8.235207723E0,-3.206948191E-2,3.799470067E-1,-1.165191159E-1
8.244921264E0,-7.605048269E-2,4.251496792E-1,-1.006370857E-1
8.254633920E0,-1.212531775E-1,4.630222321E-1,-5.787777901E-2
8.264347462E0,-1.579040140E-1,5.265503526E-1,-1.267508045E-2
8.274061785E0,-1.933331639E-1,5.961869359E-1,1.420219894E-2
8.283775223E0,-2.226538211E-1,6.267293096E-1,1.298050396E-2
8.293487983E0,-2.458660156E-1,5.913001299E-1,-2.000524849E-2
8.303201525E0,-2.531961799E-1,5.094466209E-1,-6.398624927E-2
8.312915795E0,-2.605263591E-1,4.373666346E-1,-9.819369763E-2
8.322629337E0,-2.739650011E-1,3.713951409E-1,-9.697200358E-2
8.332341993E0,-2.996205688E-1,2.980934680E-1,-5.787777901E-2
8.342055587E0,-3.472666740E-1,2.101314515E-1,1.985253533E-3
8.351769858E0,-4.120164812E-1,9.147437662E-2,6.917845458E-2
8.361483400E0,-4.804313779E-1,-3.802524135E-2,1.217113137E-1
8.371196056E0,-5.476245880E-1,-1.540862173E-1,1.522536725E-1
8.380909598E0,-6.087092757E-1,-2.225011140E-1,1.681357026E-1
8.390623920E0,-6.624638438E-1,-2.127275616E-1,1.705790907E-1
8.400337358E0,-7.308787704E-1,-1.418692768E-1,1.681357026E-1
8.410050118E0,-8.127322793E-1,-5.268557742E-2,1.730224788E-1
8.419763660E0,-9.104678631E-1,1.695101149E-2,2.157817930E-1
8.429477983E0,-1.037524104E0,2.794626169E-2,3.197785318E-1
8.439191420E0,-1.246433854E0,4.138490185E-2,4.346178174E-1
8.448904129E0,-1.550635815E0,1.024696305E-1,4.981459379E-1
8.458617723E0,-1.802304864E0,-2.336490713E-2,5.140279531E-1
8.468331993E0,-1.934247851E0,-3.520007432E-1,4.480564594E-1
8.478045431E0,-2.017323017E0,-5.193728805E-1,3.075616062E-1
8.487758191E0,-2.093068123E0,-4.595098495E-1,1.889045089E-1
8.497471733E0,-2.107728481E0,-2.371614426E-1,1.473668963E-1
8.507186056E0,-2.067412615E0,9.636115283E-2,1.925695986E-1
8.516899493E0,-2.035648584E0,4.361449480E-1,3.234436214E-1
8.526612202E0,-2.053973913E0,6.707102656E-1,5.311316848E-1
8.536325795E0,-2.160261393E0,7.965448499E-1,7.779139876E-1
8.546040066E0,-2.354510784E0,8.502993584E-1,9.697200060E-1
8.555753608E0,-2.545095205E0,6.548282504E-1,1.025918007E0
8.565466264E0,-2.604958057E0,3.042019308E-1,9.220739603E-1
8.575179806E0,-2.460798264E0,1.649287641E-1,6.936170459E-1
8.584894129E0,-2.170034885E0,2.309002578E-1,4.248442650E-1
8.594607566E0,-1.865832925E0,3.225273490E-1,2.365505993E-1
8.604320327E0,-1.683800459E0,4.312581718E-1,1.644706279E-1
8.614033868E0,-1.705790997E0,5.082249045E-1,1.852394342E-1
8.623748139E0,-1.936691284E0,4.337015450E-1,2.646495700E-1
8.633461681E0,-2.273878813E0,1.918060333E-1,3.784198761E-1
8.643174337E0,-2.514552832E0,-1.235438585E-1,4.859289825E-1
8.652887931E0,-2.604958057E0,-3.520007432E-1,5.751127005E-1
8.662602202E0,-2.581745863E0,-3.862081766E-1,6.007682681E-1
8.672315639E0,-2.507222652E0,-2.713688910E-1,5.519005060E-1
8.682028400E0,-2.441251040E0,-8.078455180E-2,4.504998624E-1
8.691741941E0,-2.397269964E0,1.478250325E-1,2.953446507E-1
8.701456090E0,-2.427812338E0,2.724378705E-1,9.361234307E-2
8.711169528E0,-2.552425385E0,2.052446753E-1,-8.108997345E-2
8.720882236E0,-2.629391909E0,-1.114796288E-2,-2.069245130E-1
8.730595830E0,-2.563420534E0,-2.603736520E-1,-2.948864996E-1
8.740310101E0,-2.421704054E0,-4.986040890E-1,-2.619007528E-1
8.750023642E0,-2.305643082E0,-7.429429889E-1,-6.154286116E-2
8.759736299E0,-2.259218693E0,-7.160657048E-1,1.925695986E-1
8.769449840E0,-2.278765678E0,-3.141281903E-1,3.979669809E-1
8.779164163E0,-2.300756216E0,3.103103936E-1,5.042544007E-1
8.788877601E0,-2.267770529E0,8.955020905E-1,4.944808483E-1
8.798590309E0,-2.156596184E0,1.209477544E0,3.967452943E-1
8.808303903E0,-2.056417227E0,1.170383334E0,2.622061968E-1
8.818018174E0,-2.083294630E0,8.735115528E-1,1.314848661E-1
8.827731715E0,-2.284874201E0,4.569137394E-1,3.985778242E-2
8.837444371E0,-2.556090355E0,1.024696305E-1,-6.566607859E-3
8.847157913E0,-2.637943983E0,2.183778957E-2,-9.009997360E-3
8.856872236E0,-2.464463234E0,3.029802442E-1,3.252761811E-2
8.866585674E0,-2.206685781E0,6.951441765E-1,1.351499557E-1
8.876298434E0,-2.047865391E0,9.834640622E-1,2.965663373E-1
8.886011976E0,-1.917144179E0,1.084864736E0,4.773771465E-1
8.895726246E0,-1.813300133E0,1.004232883E0,6.227588058E-1
8.905439788E0,-1.785201073E0,8.808417320E-1,7.046123147E-1
8.915152444E0,-1.801083088E0,7.953231335E-1,7.412631512E-1
8.924865986E0,-1.849950910E0,7.611156702E-1,7.510367036E-1
8.934580309E0,-1.889045119E0,7.244648337E-1,7.388197780E-1
8.944293746E0,-1.913479090E0,6.743753552E-1,7.094991207E-1
8.954006455E0,-2.033205032E0,3.726168275E-1,6.911736727E-1
8.963720049E0,-2.066190958E0,-3.558185324E-2,6.594096422E-1
8.973434319E0,-1.880493283E0,-2.336490713E-2,6.080984473E-1
8.983147861E0,-1.664253354E0,9.269607067E-2,5.018110275E-1
8.992860517E0,-1.582399845E0,-1.308740228E-1,3.564293683E-1
9.002574059E0,-1.625159144E0,-5.267030597E-1,2.267770469E-1
9.012288382E0,-1.656923175E0,-9.005415440E-1,1.534753740E-1
9.022001819E0,-1.612942219E0,-1.054475069E0,8.383878320E-2
9.031714528E0,-1.556744218E0,-9.408574700E-1,6.184828654E-2
9.041428121E0,-1.549414039E0,-6.403206587E-1,9.361234307E-2
9.051142392E0,-1.521315098E0,-5.816792846E-1,8.750387281E-2
9.060855934E0,-1.511541486E0,-6.012263894E-1,5.650337320E-3
9.070568590E0,-1.479777455E0,-5.743491650E-1,-5.054761097E-2
9.080282132E0,-1.437018156E0,-6.415423155E-1,1.156028435E-1
9.089996455E0,-1.377155185E0,-7.747070193E-1,2.328855246E-1
9.099709892E0,-1.333174109E0,-8.260182142E-1,2.157817930E-1
9.109422601E0,-1.272089362E0,-7.979192138E-1,8.872556686E-2
9.119136194E0,-1.231773496E0,-7.099572420E-1,-7.864658535E-2
9.128850465E0,-1.186570764E0,-7.014053464E-1,-1.971509457E-1
9.138564007E0,-1.173132181E0,-6.843016148E-1,-2.447970361E-1
9.148276663E0,-1.136481285E0,-6.464291215E-1,-2.399102598E-1
9.157990257E0,-1.057071209E0,-5.267030597E-1,-1.983726472E-1
9.167704528E0,-8.860339522E-1,-3.568875194E-1,-7.864658535E-2
9.177417965E0,-7.492041588E-1,-1.663031727E-1,4.352286831E-2
9.187130726E0,-6.722373962E-1,-1.725643501E-2,7.895200700E-2
9.196844267E0,-5.341859460E-1,9.758284688E-2,3.497100621E-2
9.206558590E0,-3.692571819E-1,1.417165697E-1,-3.833066672E-2
9.216272028E0,-2.116585821E-1,8.292251825E-2,-1.116323397E-1
9.225984736E0,-7.360709459E-2,7.177455351E-3,-1.885990947E-1
9.235698278E0,3.023693897E-2,4.734066315E-3,-2.509055138E-1
9.245412601E0,1.243074164E-1,9.636115283E-2,-2.790044844E-1
9.255126038E0,2.269297540E-1,1.979145110E-1,-3.034383655E-1
9.264838799E0,3.173351586E-1,3.042019308E-1,-3.290939629E-1
9.274552340E0,3.930802047E-1,3.958290219E-1,-3.364241421E-1
9.284266663E0,4.676035643E-1,4.654656053E-1,-3.400892019E-1
9.293980101E0,5.763344169E-1,4.385883212E-1,-3.486410677E-1
9.303692809E0,6.887302995E-1,3.310792148E-1,-3.694098890E-1
9.313406351E0,7.901309133E-1,2.565558553E-1,-3.840702176E-1
9.323120674E0,8.780929446E-1,2.932066917E-1,-3.926220834E-1
9.332834111E0,9.501729012E-1,4.324798584E-1,-4.256078303E-1
9.342546871E0,1.035691500E0,6.242858768E-1,-4.622586668E-1
9.352260413E0,1.157860994E0,7.843278646E-1,-4.695888162E-1
9.361974684E0,1.252084136E0,8.661814332E-1,-4.072824121E-1
9.371688226E0,1.359593272E0,9.028322697E-1,-3.388675153E-1
9.381400882E0,1.474432588E0,8.527427912E-1,-3.229855001E-1
9.391114424E0,1.514748454E0,7.916580439E-1,-3.364241421E-1
9.400828746E0,1.562394619E0,6.951441765E-1,-3.633013964E-1
9.410542184E0,1.583163381E0,6.084038615E-1,-3.926220834E-1
9.420254892E0,1.597823739E0,6.206207871E-1,-4.219427407E-1
9.429968486E0,1.634474516E0,5.509842038E-1,-4.133908749E-1
9.439682757E0,1.613705754E0,4.019374847E-1,-3.547495604E-1
9.449396299E0,1.605153918E0,2.150182426E-1,-2.814478874E-1
9.459108955E0,1.641804695E0,3.038965166E-2,-2.228065431E-1
9.468822496E0,1.668681979E0,-8.567132801E-2,-2.093679011E-1
9.478536819E0,1.684563994E0,-1.382041872E-1,-2.570139766E-1
9.488250257E0,1.688229084E0,-1.039967462E-1,-3.352024257E-1
9.497962965E0,1.712663054E0,-2.596100792E-3,-4.280512035E-1
9.507676559E0,1.773747683E0,3.527642787E-2,-5.209000111E-1
9.517390830E0,1.898360610E0,-1.359135192E-2,-5.893148780E-1
9.527104371E0,2.108492136E0,-1.369825006E-1,-6.161921620E-1
9.536817028E0,2.327175379E0,-2.493783981E-1,-6.076403260E-1
9.546530569E0,2.484773874E0,-3.654393852E-1,-6.345176101E-1
9.556244840E0,2.476222038E0,-5.169295073E-1,-7.273663878E-1
9.565958382E0,2.341835737E0,-6.684195995E-1,-8.935168386E-1
9.575671038E0,2.190345526E0,-7.319477201E-1,-1.066997409E0
9.585384632E0,2.135369301E0,-6.195518374E-1,-1.145185947E0
9.595098903E0,2.181793690E0,-4.741701782E-1,-1.048672080E0
9.604812340E0,2.244100094E0,-3.972034156E-1,-8.214368224E-1
9.614525049E0,2.301519871E0,-4.045335948E-1,-5.661026835E-1
9.624238642E0,2.371156454E0,-4.595098495E-1,-3.254288733E-1
9.633952913E0,2.426132679E0,-4.643966258E-1,-1.030804738E-1
9.643666455E0,2.490882397E0,-4.130854607E-1,4.718795046E-2
9.653379111E0,2.566627502E0,-3.691044450E-1,8.017370105E-2
9.663092653E0,2.598391533E0,-3.837648034E-1,7.635590737E-4
9.672806976E0,2.548301935E0,-4.436278343E-1,-1.470614821E-1
9.682520413E0,2.489660740E0,-4.888305068E-1,-2.912214398E-1
9.692233121E0,2.435906172E0,-4.253024161E-1,-3.559712470E-1
9.701946715E0,2.388260126E0,-2.628170252E-1,-3.303156495E-1
9.711660986E0,2.384594917E0,-5.757235363E-2,-2.753393948E-1
9.721374528E0,2.411472321E0,2.052446753E-1,-2.228065431E-1
9.731087184E0,2.446901321E0,4.214846194E-1,-1.788255423E-1
9.740800726E0,2.501877546E0,4.239279926E-1,-1.543916464E-1
9.750515049E0,2.599613190E0,2.834331393E-1,-1.666085869E-1
9.760228486E0,2.680245161E0,1.404948682E-1,-2.325800955E-1
9.769941194E0,2.698570490E0,7.925742865E-2,-3.657447994E-1
9.779654736E0,2.647259235E0,2.916795574E-2,-5.331169367E-1
9.789369059E0,2.551967144E0,-4.779879749E-2,-6.320741773E-1
9.799082496E0,2.477443695E0,-8.567132801E-2,-6.540647149E-1
9.808795205E0,2.466448545E0,-5.879404768E-2,-6.149705052E-1
9.818508799E0,2.510429621E0,6.337540597E-2,-5.697677732E-1
9.828223069E0,2.559297323E0,2.467822880E-1,-5.661026835E-1
9.837936611E0,2.540971994E0,4.092676640E-1,-6.003101468E-1
9.847649267E0,2.481108904E0,4.361449480E-1,-6.210789680E-1
9.857362809E0,2.413915634E0,3.115321100E-1,-5.734328628E-1
9.867077132E0,2.341835737E0,1.514901221E-1,-4.585935771E-1
9.876790569E0,2.285637617E0,-7.101099193E-2,-3.205420971E-1
9.886503278E0,2.211114407E0,-3.434488773E-1,-1.910424829E-1
9.896216819E0,2.108492136E0,-4.863871336E-1,-1.275143623E-1
9.905931142E0,2.024195194E0,-4.240806997E-1,-1.702736765E-1
9.915644580E0,1.978992462E0,-2.310529798E-1,-2.765611112E-1
9.925357340E0,1.906912446E0,-2.825168520E-2,-3.779617548E-1
9.935070882E0,1.811620235E0,1.183516532E-1,-4.146125913E-1
9.944785153E0,1.733431816E0,1.808107942E-1,-3.938437700E-1
9.954498694E0,1.647913218E0,2.150182426E-1,-3.058817685E-1
9.964211351E0,1.596602082E0,2.028012872E-1,-1.690519750E-1
9.973924892E0,1.583163381E0,1.195733473E-1,-5.299099907E-2
9.983639215E0,1.547734261E0,8.903098851E-2,2.275406010E-2
9.993352653E0,1.493979692E0,1.220167428E-1,6.062658876E-2
1.000306536E1,1.442668557E0,2.003578991E-1,6.062658876E-2
1.001277890E1,1.386470556E0,3.151971996E-1,3.619270027E-2
1.002249323E1,1.329050899E0,4.312581718E-1,4.428642802E-3
1.003220666E1,1.281404853E0,5.815265775E-1,-2.855710872E-2
1.004191937E1,1.230093718E0,7.818844914E-1,-6.642963737E-2
1.005163297E1,1.168856263E0,9.773555994E-1,-9.330692142E-2
1.006134724E1,1.104106426E0,1.056765795E0,-1.067455560E-1
1.007106078E1,1.024696231E0,1.004232883E0,-1.030804738E-1
1.008077343E1,9.013051391E-1,8.930587173E-1,-9.697200358E-2
1.009048698E1,7.559235096E-1,7.537854910E-1,-9.330692142E-2
1.010020130E1,6.154286265E-1,6.352811456E-1,-1.128540337E-1
1.010991474E1,4.981459379E-1,5.607577562E-1,-1.543916464E-1
1.011962744E1,3.991886973E-1,4.569137394E-1,-1.849340051E-1
1.012934104E1,2.648022771E-1,2.467822880E-1,-1.763821393E-1
1.013905531E1,8.887827396E-2,-4.046862945E-2,-1.360662282E-1
1.014876875E1,-7.238540053E-2,-2.958027720E-1,-9.086353332E-2
1.015848151E1,-1.896680743E-1,-4.472928941E-1,-3.710897267E-2
1.016819505E1,-2.531961799E-1,-5.743491650E-1,3.008422814E-2
1.017790932E1,-3.032856584E-1,-6.965186000E-1,1.021642014E-1
1.018762286E1,-3.497100472E-1,-7.319477201E-1,1.559187621E-1
1.019733552E1,-3.729222417E-1,-6.488724947E-1,1.656923145E-1
1.020704906E1,-3.643703759E-1,-4.448495209E-1,1.241547018E-1
1.021676338E1,-3.228327632E-1,-1.540862173E-1,6.184828654E-2
1.022647682E1,-2.580829561E-1,1.195733473E-1,-1.679830020E-3
1.023618953E1,-1.921114624E-1,3.066453338E-1,-4.810422286E-2
1.024590307E1,-1.505738497E-1,4.434750974E-1,-6.032116711E-2
1.025561739E1,-1.224748790E-1,5.082249045E-1,-4.321744293E-2
1.026533083E1,-9.926267713E-2,5.118899941E-1,-1.267508045E-2
1.027504354E1,-9.193251282E-2,5.021164417E-1,1.664558798E-2
1.028475713E1,-1.175880954E-1,4.813476503E-1,4.230117425E-2
1.029447140E1,-1.530172378E-1,4.666872919E-1,5.573981255E-2
1.030418494E1,-1.896680743E-1,4.508052766E-1,7.773031294E-2
1.031389760E1,-2.153236568E-1,4.410317242E-1,8.628217876E-2
1.032361114E1,-2.605263591E-1,4.263713956E-1,8.017370105E-2
1.033332547E1,-3.228327632E-1,3.628432751E-1,7.773031294E-2
1.034303890E1,-3.888042867E-1,2.492256761E-1,6.551336497E-2
1.035275161E1,-4.682144225E-1,1.122431830E-1,3.985778242E-2
1.036246515E1,-5.854970813E-1,-3.558185324E-2,1.908897609E-2
1.037217948E1,-7.186617851E-1,-1.907370538E-1,1.542389300E-2
1.038189291E1,-8.310576677E-1,-4.033119082E-1,2.153236605E-2
1.039160562E1,-8.994725943E-1,-6.439857483E-1,2.641914412E-2
1.040131922E1,-9.202414155E-1,-8.028060198E-1,2.153236605E-2
1.041103349E1,-9.410101771E-1,-8.785510659E-1,1.664558798E-2
1.042074692E1,-1.010646820E0,-9.054283500E-1,2.764083818E-2
1.043045968E1,-1.145033240E0,-9.127585292E-1,7.284353673E-2
1.044017323E1,-1.362494826E0,-9.090934396E-1,1.791309565E-1
1.044988750E1,-1.649592996E0,-8.895463347E-1,3.417690396E-1
1.045960104E1,-1.962346792E0,-9.029849768E-1,5.274665952E-1
1.046931369E1,-2.270213842E0,-9.261971712E-1,6.667397618E-1
1.047902724E1,-2.530434847E0,-9.323056340E-1,7.082774043E-1
1.048874156E1,-2.733236074E0,-9.506310225E-1,6.642963886E-1
1.049845500E1,-2.916490316E0,-9.885035753E-1,5.983248949E-1
1.050816770E1,-3.110739708E0,-1.032484531E0,5.482354164E-1
1.051788130E1,-3.259786367E0,-1.098456025E0,5.164713860E-1
1.052759557E1,-3.319649458E0,-1.099677801E0,5.213581324E-1
1.053730901E1,-3.258564711E0,-9.384140968E-1,5.690042377E-1
1.054702177E1,-3.125400066E0,-6.378772259E-1,6.606312990E-1
1.055673531E1,-2.950697660E0,-3.080197275E-1,7.730271816E-1
1.056644958E1,-2.711245537E0,2.672456764E-2,8.744278550E-1
1.057616312E1,-2.507222652E0,3.982724249E-1,1.021031141E0
1.058587578E1,-2.426590681E0,8.075400591E-1,1.231162667E0
1.059558932E1,-2.485232115E0,1.130067468E0,1.419303656E0
1.060530364E1,-2.542651653E0,1.316986680E0,1.480388284E0
1.061501708E1,-2.484010458E0,1.500240922E0,1.284917235E0
1.062472979E1,-2.295869350E0,1.547886968E0,8.426637650E-1
1.063444333E1,-2.055195570E0,1.347529054E0,3.051182032E-1
1.064415765E1,-1.868276358E0,1.095860004E0,-1.189625040E-1
1.065387109E1,-1.825517058E0,9.260444641E-1,-3.009949923E-1
1.066358380E1,-1.922030926E0,8.002098799E-1,-2.301367074E-1
1.067329739E1,-2.086959600E0,7.415685654E-1,2.153236605E-2
1.068301166E1,-2.196912050E0,6.963658929E-1,3.161134422E-1
1.069272510E1,-2.199355602E0,6.829272509E-1,5.873296261E-1
1.070243786E1,-2.207907438E0,7.562289238E-1,7.803573608E-1
1.071215140E1,-2.210350752E0,8.002098799E-1,8.512156606E-1
1.072186567E1,-2.174921751E0,7.672241330E-1,8.157865405E-1
1.073157922E1,-2.074742794E0,7.464553714E-1,6.691831946E-1
1.074129187E1,-1.984337330E0,6.340594292E-1,4.517215490E-1
1.075100541E1,-2.020988226E0,3.823903799E-1,2.721324563E-1
1.076071974E1,-2.166369915E0,1.893626451E-1,2.231119573E-1
1.077043317E1,-2.282430887E0,1.305686086E-1,3.026748300E-1
1.078014588E1,-2.300756216E0,1.649287641E-1,4.248442650E-1
1.078985942E1,-2.234784603E0,2.467822880E-1,5.030327439E-1
1.079957375E1,-2.091846466E0,4.043808877E-1,5.531222224E-1
1.080928718E1,-1.890266895E0,6.755970716E-1,6.276455522E-1
1.081899989E1,-1.736333370E0,9.541434050E-1,7.009472251E-1
1.082871349E1,-1.699682474E0,1.188708782E0,7.375980616E-1
1.083842776E1,-1.683800459E0,1.304769754E0,7.461498976E-1
1.084814119E1,-1.685022116E0,1.391510010E0,7.302678823E-1
1.085785396E1,-1.693574071E0,1.464811683E0,6.875085831E-1
1.086756750E1,-1.742441773E0,1.265675545E0,5.958815217E-1
1.087728177E1,-1.889045119E0,5.815265775E-1,3.857500553E-1
1.088699531E1,-2.074742794E0,-4.204156399E-1,1.082726792E-1
1.089670797E1,-2.127275467E0,-1.131441832E0,-8.597674966E-2
1.090642151E1,-1.964790225E0,-1.152210593E0,-1.385096163E-1
1.091613583E1,-1.720451355E0,-8.419002295E-1,-6.642963737E-2
1.092584927E1,-1.555522561E0,-6.549809575E-1,8.017370105E-2
1.093556198E1,-1.612942219E0,-7.514948249E-1,2.709107697E-1
1.094527552E1,-1.802304864E0,-9.261971712E-1,4.517215490E-1
1.095498984E1,-1.882936716E0,-6.989619732E-1,5.677825212E-1
1.096470328E1,-1.835290551E0,-1.785201132E-1,6.276455522E-1
1.097441599E1,-1.718007922E0,1.588202864E-1,6.410841942E-1
1.098412958E1,-1.648371339E0,1.808107942E-1,6.032116413E-1
1.099384385E1,-1.692352295E0,4.734066315E-3,5.201364160E-1
1.100355729E1,-1.732668281E0,-3.116848171E-1,4.004103839E-1
1.101327005E1,-1.759545565E0,-6.549809575E-1,2.499892414E-1
1.102298359E1,-1.742441773E0,-8.003626466E-1,1.070509851E-1
1.103269786E1,-1.720451355E0,-9.054283500E-1,2.153236605E-2
1.104241140E1,-1.664253354E0,-1.044701576E0,-3.466558084E-2
1.105212406E1,-1.622715712E0,-1.074022174E0,-4.810422286E-2
1.106183760E1,-1.529866934E0,-1.100899458E0,-3.466558084E-2
1.107155187E1,-1.422357798E0,-9.909469485E-1,2.886253223E-2
1.108126541E1,-1.278197885E0,-7.453863621E-1,6.551336497E-2
1.109097807E1,-1.160915256E0,-5.340332389E-1,9.483403713E-2
1.110069161E1,-1.011868477E0,-4.106420577E-1,9.361234307E-2
1.111040593E1,-9.006943107E-1,-3.410054743E-1,6.306997687E-2
1.112011937E1,-8.347227573E-1,-3.116848171E-1,2.275406010E-2
1.112983208E1,-7.528692484E-1,-3.397837877E-1,3.206948051E-3
1.113954562E1,-7.015580535E-1,-3.520007432E-1,1.053711493E-2
1.114925994E1,-6.392516494E-1,-3.837648034E-1,5.451811850E-2
1.115897338E1,-5.635066032E-1,-3.984251320E-1,8.994726092E-2
1.116868614E1,-5.085303187E-1,-3.300102353E-1,1.143811494E-1
1.117839968E1,-4.181249440E-1,-2.286095917E-1,9.972081333E-2
1.118811396E1,-3.436015844E-1,-1.406475753E-1,4.352286831E-2
1.119782750E1,-2.983988822E-1,-6.734590977E-2,-7.788302377E-3
1.120754015E1,-2.397575527E-1,-4.535540938E-2,-4.321744293E-2
1.121725369E1,-1.676775664E-1,-9.926267900E-3,-8.719844371E-2
1.122696802E1,-9.681928903E-2,6.826218218E-2,-1.433963925E-1
1.123668146E1,-1.985253580E-2,1.404948682E-1,-2.130329758E-1
1.124639416E1,7.177454978E-2,1.918060333E-1,-2.814478874E-1
1.125610771E1,1.670667231E-1,2.785463631E-1,-3.327590525E-1
1.126582203E1,2.660239935E-1,3.689517379E-1,-3.608580232E-1
1.127553546E1,3.600944579E-1,4.679090083E-1,-3.742966652E-1
1.128524817E1,4.639385045E-1,5.778614879E-1,-3.962871730E-1
1.129496177E1,5.360184908E-1,6.633801460E-1,-4.109475017E-1
1.130467604E1,5.873296261E-1,7.403468490E-1,-4.085040987E-1
1.131438948E1,6.533011198E-1,8.417475224E-1,-3.987305462E-1
1.132410224E1,7.571451664E-1,9.663603902E-1,-3.926220834E-1
1.133381578E1,8.695410490E-1,1.040883780E0,-3.975088596E-1
1.134353005E1,9.501729012E-1,1.026223421E0,-4.023956358E-1
1.135324359E1,1.027139664E0,9.199360013E-1,-4.121691883E-1
1.136295625E1,1.087002754E0,7.440119386E-1,-4.146125913E-1
1.137266979E1,1.119988441E0,6.047387719E-1,-4.158342779E-1
1.138238411E1,1.183516622E0,4.837910235E-1,-4.353813827E-1
1.139209755E1,1.212989926E0,3.823903799E-1,-4.708105326E-1
1.140181026E1,1.238645554E0,4.043808877E-1,-5.037962794E-1
1.141152380E1,1.283848286E0,4.373666346E-1,-5.099047422E-1
1.142123812E1,1.322942495E0,4.618005157E-1,-4.891359508E-1
1.143095156E1,1.347376347E0,5.265503526E-1,-4.463766217E-1
1.144066427E1,1.368145108E0,4.104893506E-1,-3.804051280E-1
1.145037786E1,1.386470556E0,2.822114229E-1,-3.303156495E-1
1.146009213E1,1.410904408E0,1.441599578E-1,-3.144336343E-1
1.146980557E1,1.420678020E0,-1.236965694E-2,-3.510844707E-1
1.147951828E1,1.412126184E0,-1.369825006E-1,-4.280512035E-1
1.148923187E1,1.409682751E0,-1.528645307E-1,-5.221216679E-1
1.149894614E1,1.430451512E0,-2.078407854E-1,-6.137487888E-1
1.150865958E1,1.381583810E0,-3.776563108E-1,-6.320741773E-1
1.151837234E1,1.404796004E0,-4.802786708E-1,-5.624375939E-1
1.152808588E1,1.522078633E0,-5.132644176E-1,-4.427115619E-1
1.153780015E1,1.616149187E0,-5.095993280E-1,-3.205420971E-1
1.154751369E1,1.682120681E0,-4.497362971E-1,-2.533488870E-1
1.155722635E1,1.735875249E0,-3.605526090E-1,-2.289150059E-1
1.156693989E1,1.766417503E0,-2.554868758E-1,-2.191414535E-1
1.157665422E1,1.832389116E0,-2.176143378E-1,-2.130329758E-1
1.158636765E1,1.924016118E0,-2.408265322E-1,-1.849340051E-1
1.159608036E1,2.033968687E0,-2.982461751E-1,-1.458397806E-1
1.160579390E1,2.124374151E0,-3.385621011E-1,-1.140757278E-1
1.161550823E1,2.168354988E0,-3.300102353E-1,-9.575030953E-2
1.162522166E1,2.167133331E0,-2.628170252E-1,-9.330692142E-2
1.163493437E1,2.174463511E0,-1.760767251E-1,-9.452861547E-2
1.164464791E1,2.194010735E0,-8.567132801E-2,-8.719844371E-2
1.165436224E1,2.253873587E0,-1.847812906E-2,-9.575030953E-2
1.166407567E1,2.352830887E0,1.450762246E-2,-1.165191159E-1
1.167378838E1,2.442014694E0,2.916795574E-2,-1.043021679E-1
1.168350198E1,2.488439083E0,2.428117767E-2,-4.932591692E-2
1.169321625E1,2.489660740E0,2.183778957E-2,9.315420873E-3
1.170292968E1,2.478665352E0,2.916795574E-2,5.940489471E-2
1.171264244E1,2.488439083E0,6.337540597E-2,4.963133857E-2
1.172235599E1,2.553188801E0,1.612636745E-1,-1.389677543E-2
1.173207026E1,2.657032967E0,2.993151546E-1,-1.201841980E-1
1.174178369E1,2.737664700E0,3.823903799E-1,-2.301367074E-1
1.175149646E1,2.740108013E0,3.457395434E-1,-2.973299026E-1
1.176121000E1,2.659476280E0,3.029802442E-1,-3.193204105E-1
1.177092427E1,2.569070816E0,2.919849753E-1,-2.838912606E-1
1.178063781E1,2.493325710E0,2.870981991E-1,-2.166980654E-1
1.179035047E1,2.429797649E0,2.651077211E-1,-1.605001241E-1
1.180006401E1,2.411472321E0,2.052446753E-1,-1.482831687E-1
1.180977833E1,2.466448545E0,1.820324808E-1,-2.032594234E-1
1.181949177E1,2.542193651E0,2.577775419E-1,-3.009949923E-1
1.182920448E1,2.610608578E0,3.384093940E-1,-4.402681589E-1
1.183891802E1,2.587396383E0,2.394521236E-1,-5.942016840E-1
1.184863234E1,2.473778725E0,8.170082420E-2,-7.359182239E-1
1.185834578E1,2.346722364E0,-6.978929788E-2,-7.823426127E-1
1.186805849E1,2.274642467E0,-2.163926363E-1,-7.029324770E-1
1.187777203E1,2.286859512E0,-2.310529798E-1,-5.489989519E-1
1.188748635E1,2.378486633E0,-9.788827598E-2,-4.023956358E-1
1.189719979E1,2.459118366E0,-3.191677108E-2,-3.046600819E-1
1.190691250E1,2.465226889E0,-8.933641016E-2,-2.619007528E-1
1.191662609E1,2.423689127E0,-2.053973973E-1,-3.022166789E-1
1.192634036E1,2.396811962E0,-3.385621011E-1,-3.926220834E-1
1.193605380E1,2.420024157E0,-4.057552814E-1,-4.830274582E-1
1.194576656E1,2.477443695E0,-3.239017725E-1,-5.905365944E-1
1.195548010E1,2.475000381E0,-2.701472044E-1,-6.760551929E-1
1.196519437E1,2.358939409E0,-3.177932799E-1,-7.017107606E-1
1.197490791E1,2.163468361E0,-3.862081766E-1,-6.638382673E-1
1.198462057E1,1.965553761E0,-4.326325655E-1,-5.575508475E-1
1.199433411E1,1.800624967E0,-4.558447599E-1,-4.292729199E-1
1.200404843E1,1.674790502E0,-4.130854607E-1,-3.229855001E-1
1.201376187E1,1.586828470E0,-2.664821148E-1,-2.472404242E-1
1.202347458E1,1.524522066E0,-1.211004704E-1,-1.959292591E-1
1.203318812E1,1.458550572E0,-9.926267900E-3,-1.727170646E-1
1.204290244E1,1.386470556E0,7.314895838E-2,-1.507265568E-1
1.205261588E1,1.289956689E0,1.110214889E-1,-9.697200358E-2
1.206232859E1,1.144422293E0,1.269035190E-1,1.985253533E-3
1.207204218E1,9.684983492E-1,1.171299592E-1,1.180462316E-1
1.208175646E1,8.280034661E-1,1.159082651E-1,2.304421216E-1
1.209146989E1,7.534800768E-1,2.394521236E-1,3.038965166E-1
1.210118265E1,7.608102560E-1,4.874561131E-1,3.185568452E-1
1.211089619E1,8.108997345E-1,7.794411182E-1,2.609844804E-1
1.212061046E1,8.524373770E-1,1.046992183E0,1.449235082E-1
1.213032401E1,8.695410490E-1,1.203369141E0,-5.344913341E-3
1.214003666E1,8.341119289E-1,1.204590797E0,-1.776038408E-1
1.214975020E1,7.339329720E-1,1.082421303E0,-3.278722763E-1
1.215946453E1,5.677825212E-1,8.967237473E-1,-3.987305462E-1
1.216917797E1,3.674246371E-1,6.670452356E-1,-3.742966652E-1
1.217889067E1,1.817270666E-1,4.104893506E-1,-2.802261710E-1
1.218860422E1,4.123219103E-2,1.281252056E-1,-1.433963925E-1
1.219831854E1,-4.795150831E-2,-1.772984117E-1,-1.023169141E-2
1.220803198E1,-7.849387079E-2,-4.717268050E-1,7.284353673E-2
1.221774474E1,-8.215895295E-2,-6.794148684E-1,1.046075895E-1
1.222745828E1,-8.093725890E-2,-7.661551833E-1,9.605573118E-2
1.223717255E1,-8.460234851E-2,-7.747070193E-1,6.917845458E-2
1.224688609E1,-1.127013192E-1,-6.940752268E-1,3.863608837E-2
1.225659875E1,-1.530172378E-1,-5.413633585E-1,2.519745007E-2
1.226631229E1,-1.921114624E-1,-3.788780272E-1,3.741439432E-2
1.227602661E1,-2.165453583E-1,-2.542651594E-1,5.940489471E-2
1.228574005E1,-2.275405973E-1,-1.724116355E-1,7.284353673E-2
1.229545276E1,-2.141019702E-1,-1.272089481E-1,6.917845458E-2
1.230516630E1,-1.652341783E-1,-9.666658193E-2,4.230117425E-2
1.231488062E1,-1.102579311E-1,-8.811471611E-2,-4.123218823E-3
1.232459406E1,-8.460234851E-2,-4.291202128E-2,-4.566083103E-2
1.233430682E1,-8.460234851E-2,4.993676394E-2,-7.009471953E-2
1.234402036E1,-1.004843712E-1,1.368297935E-1,-7.375980914E-2
1.235373463E1,-1.444653720E-1,2.064663768E-1,-6.032116711E-2
1.236344817E1,-2.055501044E-1,2.577775419E-1,-2.733541466E-2
1.237316083E1,-2.617480457E-1,2.846548259E-1,1.420219894E-2
1.238287437E1,-3.008422852E-1,2.846548259E-1,5.696150661E-2
1.239258869E1,-3.277195692E-1,2.565558553E-1,9.605573118E-2
1.240230213E1,-3.558185399E-1,1.966928244E-1,1.265980899E-1
1.241201484E1,-3.936910629E-1,1.024696305E-1,1.339282542E-1
1.242172843E1,-4.498890042E-1,1.068982761E-3,1.217113137E-1
1.243144270E1,-5.195255876E-1,-8.567132801E-2,9.361234307E-2
1.244115614E1,-5.854970813E-1,-1.601946950E-1,5.085303262E-2
1.245086890E1,-6.539120078E-1,-2.163926363E-1,6.872031838E-3
1.246058244E1,-7.467607856E-1,-2.506000996E-1,-2.489202656E-2
1.247029677E1,-8.506048322E-1,-2.432699203E-1,-3.466558084E-2
1.248001021E1,-9.471186996E-1,-7.467607409E-2,-4.321744293E-2
1.248972291E1,-1.005759954E0,1.466033459E-1,-3.466558084E-2
1.249943646E1,-1.043632507E0,2.932066917E-1,-1.145338640E-2
1.250915078E1,-1.076618314E0,3.665083647E-1,-1.878355257E-2
1.251886422E1,-1.118155956E0,4.043808877E-1,-7.498150319E-2
1.252857698E1,-1.223221660E0,3.176405728E-1,-1.360662282E-1
1.253829052E1,-1.493216157E0,7.559234649E-2,-1.678302884E-1
1.254800479E1,-1.952573299E0,-2.481566966E-1,-1.299577504E-1
1.255771833E1,-2.471793413E0,-5.975613594E-1,-4.123218823E-3
1.256743099E1,-2.887169600E0,-7.698202729E-1,1.937913001E-1
1.257714453E1,-3.107074499E0,-6.329904795E-1,3.747547865E-1
1.258685885E1,-3.180376291E0,-3.972034156E-1,4.920374751E-1
1.259657229E1,-3.165715933E0,-1.345391124E-1,5.519005060E-1
1.260628500E1,-3.016669273E0,1.490467340E-1,5.335750580E-1
1.261599859E1,-2.690476656E0,4.508052766E-1,4.822639227E-1
1.262571286E1,-2.211572409E0,7.550072074E-1,4.321744442E-1
1.263542640E1,-1.739998460E0,7.855495811E-1,4.089622498E-1
1.264513906E1,-1.555522561E0,3.921639323E-1,4.211791754E-1
1.265485260E1,-1.791309595E0,-1.944021434E-1,4.504998624E-1
1.266456692E1,-2.299534559E0,-6.378772259E-1,4.834856093E-1
1.267428036E1,-2.728349209E0,-6.427640319E-1,5.005893111E-1
1.268399307E1,-2.765000105E0,-1.064401343E-1,4.810422063E-1
1.269370666E1,-2.492562294E0,6.804838181E-1,4.443913698E-1
1.270342093E1,-2.321525097E0,1.181378603E0,3.881934285E-1
1.271313448E1,-2.365505934E0,9.724688530E-1,3.185568452E-1
1.272284713E1,-2.277544022E0,7.000309825E-1,2.806843221E-1
1.273256067E1,-2.227454424E0,6.426113248E-1,2.475458533E-1
1.274227500E1,-2.509665966E0,4.776825607E-1,2.696890533E-1
1.275198843E1,-2.866400719E0,2.589992285E-1,3.723114133E-1
1.276170114E1,-2.955584526E0,2.516690791E-1,5.604523420E-1
1.277141474E1,-2.716132402E0,5.106683373E-1,7.400414348E-1
1.278112901E1,-2.333741903E0,9.455915689E-1,7.730271816E-1
1.279084255E1,-2.068634272E0,1.144727707E0,6.374191046E-1
1.280055520E1,-2.067412615E0,1.050657272E0,4.785988331E-1
1.281026875E1,-2.129719019E0,7.892146707E-1,3.417690396E-1
1.281998307E1,-2.126053810E0,3.176405728E-1,2.426590770E-1
1.282969651E1,-2.173699856E0,-2.249445021E-1,2.035648525E-1
1.283940927E1,-2.261662006E0,-6.378772259E-1,2.157817930E-1
1.284912281E1,-2.297091007E0,-8.932114244E-1,2.377723008E-1
1.285883713E1,-2.330076933E0,-1.031262875E0,2.365505993E-1
1.286855057E1,-2.365505934E0,-1.023932695E0,2.609844804E-1
1.287826328E1,-2.355732441E0,-8.785510659E-1,3.515425920E-1
1.288797687E1,-2.323968410E0,-5.780141950E-1,5.030327439E-1
1.289769114E1,-2.275100708E0,-1.980672181E-1,6.838434935E-1
1.290740458E1,-2.189582109E0,4.138490185E-2,8.255600929E-1
1.291711734E1,-2.128497362E0,2.428117767E-2,8.499939442E-1
1.292683088E1,-2.132162333E0,-2.334963679E-1,7.754706144E-1
1.293654521E1,-2.146822691E0,-4.705050886E-1,6.533011198E-1
1.294625864E1,-2.094289780E0,-5.670189857E-1,5.201364160E-1
1.295597135E1,-2.020988226E0,-5.376983285E-1,4.321744442E-1
1.296568494E1,-1.859724522E0,-1.772984117E-1,4.602734149E-1
1.297539922E1,-1.667918444E0,1.673721522E-1,5.787777901E-1
1.298511276E1,-1.592173338E0,3.603998721E-1,7.229377031E-1
1.299482541E1,-1.590951681E0,3.726168275E-1,8.047912717E-1
1.300453896E1,-1.655701518E0,1.478250325E-1,7.791357040E-1
1.301425328E1,-1.685022116E0,-1.027750522E-1,6.655181050E-1
1.302396672E1,-1.603168607E0,-2.334963679E-1,5.262449384E-1
1.303367942E1,-1.546970725E0,-3.165715933E-1,4.077405334E-1
1.304339302E1,-1.500546336E0,-3.959817290E-1,3.332171738E-1
1.305310729E1,-1.429687977E0,-4.204156399E-1,2.941229641E-1
1.306282083E1,-1.363716483E0,-3.654393852E-1,2.721324563E-1
1.307253349E1,-1.300188422E0,-2.713688910E-1,2.451024652E-1
1.308224703E1,-1.256207347E0,-2.273878902E-1,2.194468826E-1
1.309196135E1,-1.241547108E0,-2.176143378E-1,1.705790907E-1
1.310167479E1,-1.217113137E0,-2.933593988E-1,7.284353673E-2
1.311138755E1,-1.223221660E0,-3.691044450E-1,-3.466558084E-2
1.312110109E1,-1.224443316E0,-5.132644176E-1,-1.507265568E-1
1.313081541E1,-1.204896212E0,-5.914528370E-1,-2.570139766E-1
1.314052885E1,-1.163358569E0,-6.623111367E-1,-3.364241421E-1
1.315024156E1,-1.110825777E0,-6.818582416E-1,-3.755183518E-1
1.315995515E1,-1.065623045E0,-5.963396430E-1,-3.914003670E-1
1.316966942E1,-1.003316641E0,-5.230379701E-1,-3.071034551E-1
1.317938296E1,-9.202414155E-1,-4.069769979E-1,-2.423536479E-1
1.318909562E1,-8.542698622E-1,-3.678827584E-1,-1.226275861E-1
1.319880916E1,-7.809682488E-1,-3.434488773E-1,-2.733541466E-2
1.320852349E1,-7.076665759E-1,-3.239017725E-1,5.940489471E-2
1.321823692E1,-6.429167390E-1,-2.811424434E-1,9.483403713E-2
1.322794968E1,-5.549547076E-1,-2.640387416E-1,1.033858955E-1
1.323766323E1,-4.645493329E-1,-2.506000996E-1,1.046075895E-1
1.324737750E1,-3.704788685E-1,-2.212794125E-1,9.849911928E-2
1.325709104E1,-2.641914487E-1,-1.614163816E-1,8.261708915E-2
1.326680369E1,-1.872246861E-1,-9.544488788E-2,5.696150661E-2
1.327651729E1,-1.249182671E-1,-5.879404768E-2,1.542389300E-2
1.328623156E1,-6.383354217E-2,-2.458660305E-2,-2.855710872E-2
1.329594510E1,-7.635590620E-3,1.817270555E-2,-6.642963737E-2
1.330565776E1,5.344913527E-2,6.337540597E-2,-8.842013776E-2
1.331537130E1,1.169772521E-1,9.636115283E-2,-1.067455560E-1
1.332508562E1,1.829487532E-1,1.502684206E-1,-1.360662282E-1
1.333479906E1,2.538070381E-1,2.028012872E-1,-1.727170646E-1
1.334451177E1,3.222219348E-1,2.687727809E-1,-2.142546773E-1
1.335422536E1,4.187358022E-1,3.115321100E-1,-2.631224692E-1
1.336393963E1,5.030327439E-1,3.518480062E-1,-3.083251417E-1
1.337365317E1,6.093201637E-1,3.897205591E-1,-3.437542915E-1
1.338336583E1,7.156075835E-1,4.508052766E-1,-3.633013964E-1
1.339307937E1,8.121214509E-1,5.289937258E-1,-3.791834414E-1
1.340279369E1,9.196305275E-1,5.974085927E-1,-3.779617548E-1
1.341250724E1,1.027139664E0,6.597150564E-1,-3.364241421E-1
1.342221989E1,1.165191174E0,6.792621613E-1,-2.643441558E-1
1.343193343E1,1.283848286E0,7.049177289E-1,-1.873773932E-1
1.344164776E1,1.373031974E0,7.330167294E-1,-1.262926757E-1
1.345136119E1,1.473210931E0,7.757760286E-1,-7.742489129E-2
1.346107390E1,1.570946455E0,7.904363275E-1,-4.443913698E-2
1.347078750E1,1.669903636E0,7.684458494E-1,-1.878355257E-2
1.348050177E1,1.748092175E0,7.171346545E-1,-2.901524538E-3
1.349021531E1,1.783521295E0,7.305732965E-1,3.206948051E-3
1.349992797E1,1.746870399E0,8.393041492E-1,-1.023169141E-2
1.350964151E1,1.718771458E0,7.415685654E-1,-3.466558084E-2
1.351935583E1,1.633252859E0,5.864133835E-1,-4.443913698E-2
1.352906927E1,1.621035933E0,5.143333673E-1,-3.710897267E-2
1.353878203E1,1.679677248E0,4.898995161E-1,-1.023169141E-2
1.354849557E1,1.777412772E0,5.216635466E-1,4.840964451E-2
1.355820989E1,1.905690789E0,5.937435627E-1,1.204896197E-1
1.356792333E1,2.019308329E0,6.450546980E-1,1.742441803E-1
1.357763604E1,2.065732718E0,5.974085927E-1,1.889045089E-1
1.358734963E1,2.007091284E0,4.508052766E-1,1.449235082E-1
1.359706390E1,1.944784999E0,3.176405728E-1,-2.000524849E-2
1.360677744E1,1.910577536E0,7.681404054E-2,-1.727170646E-1
1.361649010E1,1.826280594E0,-3.680354729E-2,-1.995943487E-1
1.362620364E1,1.866596460E0,8.780929446E-2,-1.543916464E-1
1.363591796E1,1.963110328E0,1.380514801E-1,-1.079672500E-1
1.364563140E1,2.041298866E0,5.971032009E-2,-8.964183182E-2
1.365534416E1,2.112157106E0,1.206423342E-2,-2.252499312E-1
1.366505770E1,2.153694630E0,-8.078455180E-2,-4.549284875E-1
1.367477198E1,2.114600420E0,-3.385621011E-1,-6.051968932E-1
1.368448552E1,2.046185493E0,-5.682406425E-1,-5.661026835E-1
1.369419817E1,2.054737568E0,-6.513158679E-1,-4.109475017E-1
1.370391177E1,2.131704330E0,-5.963396430E-1,-2.044811249E-1
1.371362604E1,2.220887899E0,-4.863871336E-1,1.908897609E-2
1.372333958E1,2.306406498E0,-4.130854607E-1,2.011214644E-1
1.373305224E1,2.345500708E0,-2.884726226E-1,2.622061968E-1
1.374276578E1,2.339392185E0,-1.211004704E-1,1.766875684E-1
1.375248010E1,2.334505558E0,-5.757235363E-2,-7.131642103E-2
1.376219354E1,2.335727215E0,-1.870719790E-1,-4.280512035E-1
1.377190625E1,2.329618692E0,-4.497362971E-1,-6.723901033E-1
1.378161984E1,2.333283901E0,-6.781931520E-1,-6.161921620E-1
1.379133411E1,2.402920485E0,-7.014053464E-1,-3.950654566E-1
1.380104765E1,2.496990919E0,-5.694623590E-1,-2.142546773E-1
1.381076031E1,2.537306786E0,-4.753918648E-1,-1.678302884E-1
1.382047385E1,2.503099442E0,-4.851654470E-1,-2.716743052E-1
1.383018817E1,2.468891859E0,-5.132644176E-1,-4.976878166E-1
1.383990161E1,2.466448545E0,-5.169295073E-1,-7.554653287E-1
1.384961437E1,2.466448545E0,-4.949389994E-1,-9.448279738E-1
1.385932791E1,2.487217426E0,-5.034908652E-1,-9.546015263E-1
1.386904224E1,2.520203114E0,-5.523586273E-1,-7.835643291E-1
1.387875567E1,2.487217426E0,-5.486935377E-1,-6.223006248E-1
1.388846838E1,2.426132679E0,-5.389199853E-1,-5.465555787E-1
1.389818198E1,2.416358948E0,-5.205945969E-1,-5.270084739E-1
1.390789625E1,2.440793037E0,-4.521796703E-1,-5.722111464E-1
1.391760979E1,2.402920485E0,-4.485146105E-1,-6.516213417E-1
1.392732244E1,2.285637617E0,-4.900522232E-1,-6.907155514E-1
1.393703599E1,2.176906824E0,-5.462501645E-1,-6.882721782E-1
1.394675031E1,2.097496748E0,-5.242596865E-1,-6.968240142E-1
1.395646375E1,2.085279942E0,-3.947600424E-1,-6.992673874E-1
1.396617651E1,2.113378763E0,-2.237228155E-1,-6.308525205E-1
1.397589005E1,2.099940062E0,-1.259872466E-1,-4.879142344E-1
1.398560437E1,2.020529985E0,-4.902049154E-2,-3.315373361E-1
1.399531781E1,1.961888671E0,6.093201414E-2,-2.166980654E-1
1.400503052E1,1.980214119E0,1.979145110E-1,-1.556133330E-1
1.401474411E1,2.025416851E0,2.944283783E-1,-1.568350345E-1
1.402445838E1,2.042520523E0,2.834331393E-1,-1.971509457E-1
1.403417192E1,2.008313179E0,1.722589284E-1,-2.301367074E-1
1.404388458E1,1.950893402E0,4.871506989E-2,-2.301367074E-1
1.405359812E1,1.860488057E0,-3.817795310E-3,-2.044811249E-1
1.406331244E1,1.727323294E0,1.084253844E-2,-1.360662282E-1
1.407302588E1,1.589271903E0,5.360184610E-2,-1.756185852E-2
1.408273864E1,1.457328796E0,1.220167428E-1,1.388150454E-1
1.409245218E1,1.298508525E0,2.003578991E-1,2.953446507E-1
1.410216646E1,1.106549859E0,2.785463631E-1,3.943018913E-1
1.411188000E1,9.086353183E-1,2.883199155E-1,4.346178174E-1
1.412159265E1,7.388197780E-1,2.186833173E-1,4.443913698E-1
1.413130625E1,6.117635369E-1,1.771457046E-1,4.089622498E-1
1.414102052E1,5.457920432E-1,2.883199155E-1,3.148917556E-1
1.415073406E1,5.824428797E-1,4.691306949E-1,1.876828223E-1
1.416044672E1,7.363763452E-1,5.803049207E-1,6.917845458E-2
1.417016026E1,9.379559755E-1,6.584933400E-1,-4.321744293E-2
1.417987458E1,1.095554590E0,7.073611021E-1,-1.458397806E-1
1.418958802E1,1.067455530E0,5.302154422E-1,-2.154763639E-1
1.419930073E1,7.656970620E-1,9.513945878E-2,-2.338017821E-1
1.420901432E1,3.246653080E-1,-3.568875194E-1,-2.008160353E-1
1.421872859E1,-8.826743066E-2,-6.036698222E-1,-1.287360638E-1
1.422844213E1,-3.704788685E-1,-7.124006152E-1,-2.855710872E-2
1.423815479E1,-5.427377820E-1,-7.685985565E-1,5.451811850E-2
1.424786838E1,-6.197045445E-1,-7.942541242E-1,1.131594554E-1
1.425758265E1,-6.087092757E-1,-7.514948249E-1,1.461452097E-1
1.426729609E1,-5.341859460E-1,-6.073349118E-1,1.449235082E-1
1.427700885E1,-4.303418994E-1,-4.081986845E-1,1.119377613E-1
1.428672239E1,-3.277195692E-1,-2.188360244E-1,5.696150661E-2
1.429643672E1,-2.348707765E-1,-3.436015919E-2,-5.344913341E-3
1.430615015E1,-1.579040140E-1,1.502684206E-1,-5.543438718E-2
1.431586286E1,-1.029277667E-1,2.956500649E-1,-8.108997345E-2
1.432557646E1,-7.727217674E-2,4.031592011E-1,-8.108997345E-2
1.433529073E1,-6.627693027E-2,4.972296655E-1,-5.909947306E-2
1.434500427E1,-6.016845629E-2,5.693096519E-1,-2.000524849E-2
1.435471692E1,-5.161659420E-2,6.157340407E-1,2.275406010E-2
1.436443047E1,-4.550812021E-2,6.316160560E-1,5.818320066E-2
1.437414479E1,-3.084778599E-2,6.218425035E-1,7.040014863E-2
1.438385823E1,-2.229592577E-2,5.851916671E-1,6.795676053E-2
1.439357099E1,-3.573456407E-2,5.277720094E-1,6.551336497E-2
1.440328453E1,-6.994201243E-2,4.495835900E-1,5.207473040E-2
1.441299885E1,-1.224748790E-1,3.823903799E-1,2.886253223E-2
1.442271229E1,-1.884463727E-1,3.164188862E-1,6.872031838E-3
1.443242500E1,-2.715215981E-1,2.223484069E-1,-7.788302377E-3
1.444213859E1,-3.631486893E-1,1.146865711E-1,-1.389677543E-2
1.445185286E1,-4.559974670E-1,-1.603474095E-2,-1.023169141E-2
1.446156640E1,-5.512896776E-1,-1.736333370E-1,-5.344913341E-3
1.447127906E1,-6.502469182E-1,-3.202366829E-1,6.872031838E-3
1.448099260E1,-7.540909648E-1,-4.729484916E-1,4.107947648E-2
1.449070692E1,-8.689302206E-1,-7.014053464E-1,7.650861889E-2
1.450042036E1,-9.801044464E-1,-9.616262913E-1,1.107160673E-1
1.451013312E1,-1.036302328E0,-1.227955699E0,1.253764033E-1
1.451984666E1,-1.037524104E0,-1.434422135E0,1.241547018E-1
1.452956099E1,-1.003316641E0,-1.519940734E0,7.773031294E-2
1.453927526E1,-9.654440880E-1,-1.496728539E0,-6.566607859E-3
1.454898796E1,-9.630007148E-1,-1.337908268E0,-7.620319724E-2
1.455870156E1,-9.947647452E-1,-1.089904189E0,-9.330692142E-2
1.456841583E1,-1.016755223E0,-8.687775135E-1,-6.276455522E-2
1.457812937E1,-1.039967418E0,-7.331694365E-1,1.786728203E-2
1.458784203E1,-1.131594539E0,-6.928535104E-1,1.375933439E-1
1.459755557E1,-1.316070437E0,-7.588250041E-1,2.672456801E-1
1.460726989E1,-1.543305635E0,-9.628480077E-1,3.662029207E-1
1.461698333E1,-1.786422849E0,-1.253611326E0,4.004103839E-1
1.462669609E1,-2.112615347E0,-1.529714227E0,3.649812341E-1
1.463640963E1,-2.501114130E0,-1.648218632E0,3.246653080E-1
1.464612395E1,-2.750339746E0,-1.532157660E0,3.124483824E-1
1.465583739E1,-2.702693701E0,-1.252389550E0,3.075616062E-1
1.466555010E1,-2.476680279E0,-9.836167693E-1,3.539859951E-1
1.467526369E1,-2.238449812E0,-8.040276766E-1,4.480564594E-1
1.468497796E1,-2.093068123E0,-6.195518374E-1,5.519005060E-1
1.469469151E1,-2.029540062E0,-4.020902216E-1,6.520794630E-1
1.470440416E1,-1.972120404E0,-1.516428292E-1,7.290462255E-1
1.471411770E1,-1.941578031E0,4.871506989E-2,8.108997345E-1
1.472383203E1,-2.024653196E0,1.685938388E-1,9.159654379E-1
1.473354546E1,-2.135827541E0,1.783674061E-1,9.807152748E-1
1.474325822E1,-2.123610497E0,8.658760041E-2,9.367342591E-1
1.475297177E1,-2.017323017E0,7.314895838E-2,8.133431077E-1
1.476268609E1,-1.860946178E0,2.382304370E-1,6.960604787E-1
1.477239953E1,-1.730224848E0,4.666872919E-1,6.361974478E-1
1.478211224E1,-1.714342833E0,6.927008033E-1,6.875085831E-1
1.479182583E1,-1.805969954E0,8.502993584E-1,8.157865405E-1
1.480154010E1,-1.994110823E0,9.443698525E-1,9.440644383E-1
1.481125364E1,-2.162704706E0,9.480349422E-1,9.782719016E-1
1.482096630E1,-2.265326977E0,8.649597168E-1,9.562813640E-1
1.483067984E1,-2.348402262E0,8.050966859E-1,9.746068120E-1
1.484039416E1,-2.400935173E0,8.832851648E-1,1.093111157E0
1.485010760E1,-2.431477547E0,1.090973258E0,1.311794519E0
1.485982031E1,-2.442472696E0,1.382958174E0,1.504822254E0
1.486953390E1,-2.382609844E0,1.654174328E0,1.579345584E0
1.487924817E1,-2.262883663E0,1.793447495E0,1.490161896E0
1.488896171E1,-2.099176645E0,1.626075387E0,1.242157936E0
1.489867437E1,-1.936691284E0,1.275449038E0,8.988617659E-1
1.490838796E1,-1.840177417E0,1.084864736E0,5.751127005E-1
1.491810224E1,-1.837733984E0,1.216807723E0,3.283303976E-1
1.492781567E1,-1.814521790E0,1.456259847E0,2.096733153E-1
1.493752843E1,-1.675248623E0,1.568655729E0,1.840177327E-1
1.494724197E1,-1.521315098E0,1.617523551E0,1.827960461E-1
1.495695630E1,-1.430909753E0,1.661504507E0,2.096733153E-1
1.496666974E1,-1.441904902E0,1.688381791E0,2.267770469E-1
1.497638244E1,-1.510319829E0,1.646844268E0,2.121167034E-1
1.498609604E1,-1.582399845E0,1.455038190E0,1.718007922E-1
1.499581031E1,-1.683800459E0,1.084864736E0,1.241547018E-1
1.500552385E1,-1.843842506E0,5.497625470E-1,1.021642014E-1
1.501523651E1,-2.042978764E0,2.550287358E-2,1.021642014E-1
1.502495005E1,-2.143157721E0,-3.434488773E-1,7.284353673E-2
1.503466437E1,-2.095511436E0,-4.582881629E-1,-3.833066672E-2
1.504437781E1,-2.005106211E0,-2.921377122E-1,-1.360662282E-1
1.505409057E1,-1.928139329E0,-9.055810422E-2,7.635590737E-4
1.506380411E1,-1.852394342E0,2.550287358E-2,2.487675399E-1
