"Time (s)","Acceleration x (m/s^2)","Acceleration y (m/s^2)","Acceleration z (m/s^2)"
5.890500000E-2,-2.004287958E0,-1.069890857E0,-9.671489716E0
6.861833400E-2,-1.987538338E0,-1.077069283E0,-9.657133102E0
7.833083400E-2,-1.982752681E0,-1.081854939E0,-9.649954796E0
8.804260500E-2,-1.989931107E0,-1.079462171E0,-9.645169258E0
9.775510500E-2,-1.989931107E0,-1.057926655E0,-9.642776489E0
1.074684900E-1,-2.016252279E0,-1.048355460E0,-9.652347565E0
1.171809900E-1,-2.013859272E0,-1.043569803E0,-9.657133102E0
1.268927610E-1,-2.028216362E0,-1.050748229E0,-9.637990952E0
1.366052610E-1,-2.028216362E0,-1.072283626E0,-9.621240616E0
1.463186460E-1,-2.033001900E0,-1.079462171E0,-9.645169258E0
1.560311460E-1,-1.997109652E0,-1.100997567E0,-9.661918640E0
1.657429170E-1,-1.992323995E0,-1.100997567E0,-9.669096947E0
1.754554170E-1,-1.999502420E0,-1.093819022E0,-9.630811691E0
1.851688550E-1,-2.016252279E0,-1.077069283E0,-9.695418358E0
1.948813020E-1,-2.006680965E0,-1.057926655E0,-9.637990952E0
2.045930730E-1,-2.025823355E0,-1.057926655E0,-9.590133667E0
2.143056770E-1,-2.018645048E0,-1.077069283E0,-9.707382202E0
2.240190110E-1,-1.997109652E0,-1.093819022E0,-9.728918076E0
2.337314590E-1,-2.001895189E0,-1.093819022E0,-9.616455078E0
2.434432300E-1,-2.016252279E0,-1.086640596E0,-9.618847847E0
2.531558340E-1,-2.028216362E0,-1.079462171E0,-9.693025589E0
2.628691670E-1,-2.037787676E0,-1.062712312E0,-9.633204460E0
2.725816150E-1,-2.037787676E0,-1.053141117E0,-9.566205978E0
2.822933860E-1,-2.033001900E0,-1.053141117E0,-9.659525871E0
2.920059900E-1,-2.021037817E0,-1.062712312E0,-9.683454514E0
3.017193230E-1,-2.016252279E0,-1.067497969E0,-9.602098465E0
3.114317710E-1,-2.028216362E0,-1.041176915E0,-9.623633385E0
3.211435420E-1,-2.040180445E0,-1.036391258E0,-9.709774971E0
3.308561460E-1,-2.037787676E0,-1.043569803E0,-9.640383720E0
3.405694800E-1,-2.021037817E0,-1.029212832E0,-9.566205978E0
3.502819270E-1,-2.023430586E0,-1.045962572E0,-9.657133102E0
3.599936980E-1,-1.987538338E0,-1.043569803E0,-9.681061745E0
3.697063020E-1,-2.009073734E0,-1.038784146E0,-9.578169823E0
3.794196360E-1,-2.018645048E0,-1.010070205E0,-9.618847847E0
3.891320840E-1,-2.035394669E0,-9.933205247E-1,-9.707382202E0
3.988438550E-1,-2.028216362E0,-9.933205247E-1,-9.666704178E0
4.085564590E-1,-2.021037817E0,-1.002891779E0,-9.611669540E0
4.182697920E-1,-2.028216362E0,-1.026820064E0,-9.704989433E0
4.279822400E-1,-2.009073734E0,-1.065105200E0,-9.697811127E0
4.376940110E-1,-2.013859272E0,-1.069890857E0,-9.590133667E0
4.474066150E-1,-2.018645048E0,-1.069890857E0,-9.597312927E0
4.571199480E-1,-1.997109652E0,-1.067497969E0,-9.664311409E0
4.668323960E-1,-2.004287958E0,-1.050748229E0,-9.594920158E0
4.765441670E-1,-2.009073734E0,-1.038784146E0,-9.561420441E0
4.862567710E-1,-2.028216362E0,-1.041176915E0,-9.673882484E0
4.959701050E-1,-2.023430586E0,-1.050748229E0,-9.702596664E0
5.056825520E-1,-2.028216362E0,-1.057926655E0,-9.618847847E0
5.153943230E-1,-2.028216362E0,-1.074676514E0,-9.659525871E0
5.251069270E-1,-2.028216362E0,-1.074676514E0,-9.736096382E0
5.348202090E-1,-1.997109652E0,-1.103390336E0,-9.635597229E0
5.445327090E-1,-1.987538338E0,-1.098604679E0,-9.582955360E0
5.542444800E-1,-2.009073734E0,-1.110568762E0,-9.683454514E0
5.639570840E-1,-1.994716763E0,-1.103390336E0,-9.673882484E0
5.736703650E-1,-1.999502420E0,-1.084247708E0,-9.563813210E0
5.833828650E-1,-2.021037817E0,-1.077069283E0,-9.616455078E0
5.930946360E-1,-2.056930065E0,-1.062712312E0,-9.683454514E0
6.028071360E-1,-2.059323072E0,-1.048355460E0,-9.609276772E0
6.125205210E-1,-2.064108610E0,-1.017248750E0,-9.570991516E0
6.222330210E-1,-2.066501379E0,-1.022034407E0,-9.688240051E0
6.319447920E-1,-2.028216362E0,-1.014855862E0,-9.681061745E0
6.416572920E-1,-2.001895189E0,-1.019641519E0,-9.597312927E0
6.513706770E-1,-2.001895189E0,-1.036391258E0,-9.640383720E0
6.610831770E-1,-2.001895189E0,-1.048355460E0,-9.712167740E0
6.707948960E-1,-2.018645048E0,-1.060319543E0,-9.633204460E0
6.805075000E-1,-2.009073734E0,-1.096211910E0,-9.671489716E0
6.902208340E-1,-1.977967024E0,-1.122532964E0,-9.671489716E0
6.999333340E-1,-1.992323995E0,-1.122532964E0,-9.637990952E0
7.096450520E-1,-1.992323995E0,-1.103390336E0,-9.592526436E0
7.193576570E-1,-2.011466503E0,-1.062712312E0,-9.594920158E0
7.290709900E-1,-2.028216362E0,-1.038784146E0,-9.635597229E0
7.387834900E-1,-2.042573214E0,-1.014855862E0,-9.664311409E0
7.484952090E-1,-2.052144527E0,-1.007677436E0,-9.678668022E0
7.582078130E-1,-2.037787676E0,-1.036391258E0,-9.652347565E0
7.679210940E-1,-2.037787676E0,-1.050748229E0,-9.649954796E0
7.776335940E-1,-2.042573214E0,-1.072283626E0,-9.642776489E0
7.873453650E-1,-2.018645048E0,-1.081854939E0,-9.633204460E0
7.970578650E-1,-2.016252279E0,-1.091426253E0,-9.614062309E0
8.067712500E-1,-2.016252279E0,-1.077069283E0,-9.609276772E0
8.164837500E-1,-2.025823355E0,-1.065105200E0,-9.590133667E0
8.261955210E-1,-2.035394669E0,-1.043569803E0,-9.606884003E0
8.359080210E-1,-2.042573214E0,-1.019641519E0,-9.628418922E0
8.456214070E-1,-2.061715841E0,-1.000499010E0,-9.657133102E0
8.553339070E-1,-2.049751759E0,-9.813563824E-1,-9.666704178E0
8.650456250E-1,-2.056930065E0,-9.981061220E-1,-9.666704178E0
8.747582300E-1,-2.021037817E0,-1.017248750E0,-9.649954796E0
8.844715630E-1,-1.987538338E0,-1.041176915E0,-9.657133102E0
8.941840110E-1,-1.977967024E0,-1.045962572E0,-9.649954796E0
9.038957820E-1,-1.961217284E0,-1.053141117E0,-9.649954796E0
9.136083860E-1,-1.961217284E0,-1.060319543E0,-9.626026154E0
9.233216670E-1,-1.963610053E0,-1.072283626E0,-9.611669540E0
9.330341670E-1,-1.958824396E0,-1.067497969E0,-9.618847847E0
9.427459380E-1,-1.975574136E0,-1.057926655E0,-9.637990952E0
9.524585420E-1,-2.009073734E0,-1.041176915E0,-9.681061745E0
9.621718230E-1,-2.042573214E0,-1.033998489E0,-9.683454514E0
9.718843230E-1,-2.047358990E0,-1.031605721E0,-9.700203896E0
9.815960940E-1,-2.056930065E0,-1.045962572E0,-9.671489716E0
9.913085940E-1,-2.037787676E0,-1.055533886E0,-9.652347565E0
1.001021980E0,-2.037787676E0,-1.045962572E0,-9.604491234E0
1.010734480E0,-2.025823355E0,-1.055533886E0,-9.597312927E0
1.020446198E0,-1.997109652E0,-1.057926655E0,-9.602098465E0
1.030158802E0,-1.994716763E0,-1.069890857E0,-9.628418922E0
1.039872136E0,-1.994716763E0,-1.072283626E0,-9.642776489E0
1.049584584E0,-2.016252279E0,-1.069890857E0,-9.642776489E0
1.059296355E0,-2.021037817E0,-1.065105200E0,-9.652347565E0
1.069008959E0,-2.037787676E0,-1.067497969E0,-9.661918640E0
1.078722240E0,-2.030609131E0,-1.055533886E0,-9.666704178E0
1.088434740E0,-2.037787676E0,-1.053141117E0,-9.649954796E0
1.098146459E0,-2.040180445E0,-1.045962572E0,-9.637990952E0
1.107859063E0,-2.018645048E0,-1.041176915E0,-9.628418922E0
1.117572396E0,-1.999502420E0,-1.062712312E0,-9.635597229E0
1.127284896E0,-1.999502420E0,-1.065105200E0,-9.616455078E0
1.136996615E0,-1.989931107E0,-1.072283626E0,-9.621240616E0
1.146709219E0,-2.004287958E0,-1.060319543E0,-9.633204460E0
1.156422552E0,-2.006680965E0,-1.057926655E0,-9.657133102E0
1.166135000E0,-1.997109652E0,-1.050748229E0,-9.666704178E0
1.175846771E0,-2.006680965E0,-1.045962572E0,-9.681061745E0
1.185559271E0,-2.006680965E0,-1.038784146E0,-9.664311409E0
1.195272657E0,-2.025823355E0,-1.048355460E0,-9.654740334E0
1.204985157E0,-2.021037817E0,-1.055533886E0,-9.669096947E0
1.214696875E0,-1.997109652E0,-1.081854939E0,-9.661918640E0
1.224409480E0,-1.997109652E0,-1.093819022E0,-9.654740334E0
1.234122813E0,-1.987538338E0,-1.065105200E0,-9.609276772E0
1.243835261E0,-1.989931107E0,-1.050748229E0,-9.582955360E0
1.253547032E0,-1.985145450E0,-1.038784146E0,-9.611669540E0
1.263259636E0,-2.011466503E0,-1.031605721E0,-9.640383720E0
1.272972917E0,-2.011466503E0,-1.036391258E0,-9.673882484E0
1.282685417E0,-2.021037817E0,-1.036391258E0,-9.664311409E0
1.292397136E0,-2.040180445E0,-1.041176915E0,-9.652347565E0
1.302109740E0,-2.035394669E0,-1.031605721E0,-9.635597229E0
1.311823073E0,-2.044965982E0,-1.017248750E0,-9.635597229E0
1.321535573E0,-2.052144527E0,-1.007677436E0,-9.621240616E0
1.331247292E0,-2.040180445E0,-1.026820064E0,-9.630811691E0
1.340959896E0,-2.052144527E0,-1.033998489E0,-9.626026154E0
1.350673177E0,-2.025823355E0,-1.045962572E0,-9.626026154E0
1.360385677E0,-2.025823355E0,-1.057926655E0,-9.616455078E0
1.370097448E0,-2.013859272E0,-1.069890857E0,-9.645169258E0
1.379809948E0,-2.013859272E0,-1.074676514E0,-9.654740334E0
1.389523334E0,-2.025823355E0,-1.091426253E0,-9.645169258E0
1.399235782E0,-2.004287958E0,-1.089033365E0,-9.642776489E0
1.408947552E0,-2.004287958E0,-1.079462171E0,-9.645169258E0
1.418660157E0,-2.004287958E0,-1.069890857E0,-9.652347565E0
1.428373438E0,-2.023430586E0,-1.067497969E0,-9.647562027E0
1.438085938E0,-2.018645048E0,-1.055533886E0,-9.647562027E0
1.447797657E0,-2.028216362E0,-1.048355460E0,-9.654740334E0
1.457510261E0,-2.028216362E0,-1.053141117E0,-9.649954796E0
1.467223594E0,-2.023430586E0,-1.057926655E0,-9.637990952E0
1.476936094E0,-2.009073734E0,-1.055533886E0,-9.640383720E0
1.486647813E0,-1.997109652E0,-1.048355460E0,-9.649954796E0
1.496360417E0,-1.994716763E0,-1.055533886E0,-9.647562027E0
1.506073698E0,-1.999502420E0,-1.038784146E0,-9.647562027E0
1.515786198E0,-1.997109652E0,-1.036391258E0,-9.661918640E0
1.525497917E0,-2.004287958E0,-1.033998489E0,-9.661918640E0
1.535210521E0,-2.011466503E0,-1.022034407E0,-9.652347565E0
1.544923855E0,-2.006680965E0,-1.017248750E0,-9.628418922E0
1.554636302E0,-1.987538338E0,-1.031605721E0,-9.630811691E0
1.564348073E0,-1.987538338E0,-1.041176915E0,-9.621240616E0
1.574060573E0,-1.975574136E0,-1.053141117E0,-9.630811691E0
1.583773959E0,-1.989931107E0,-1.055533886E0,-9.628418922E0
1.593486459E0,-2.030609131E0,-1.050748229E0,-9.649954796E0
1.603198177E0,-2.033001900E0,-1.038784146E0,-9.654740334E0
1.612910782E0,-2.044965982E0,-1.048355460E0,-9.673882484E0
1.622624115E0,-2.054537296E0,-1.045962572E0,-9.671489716E0
1.632336563E0,-2.035394669E0,-1.057926655E0,-9.637990952E0
1.642048334E0,-2.035394669E0,-1.084247708E0,-9.630811691E0
1.651760834E0,-2.018645048E0,-1.098604679E0,-9.604491234E0
1.661474219E0,-2.028216362E0,-1.103390336E0,-9.599705696E0
1.671186719E0,-2.033001900E0,-1.098604679E0,-9.604491234E0
1.680898438E0,-2.030609131E0,-1.089033365E0,-9.628418922E0
1.690611042E0,-2.037787676E0,-1.067497969E0,-9.654740334E0
1.700324323E0,-2.037787676E0,-1.050748229E0,-9.681061745E0
1.710036823E0,-2.044965982E0,-1.036391258E0,-9.702596664E0
1.719748542E0,-2.042573214E0,-1.050748229E0,-9.681061745E0
1.729461146E0,-2.030609131E0,-1.069890857E0,-9.664311409E0
1.739174480E0,-2.004287958E0,-1.096211910E0,-9.640383720E0
1.748886927E0,-1.982752681E0,-1.127318621E0,-9.642776489E0
1.758598698E0,-1.992323995E0,-1.112961650E0,-9.640383720E0
1.768311198E0,-1.982752681E0,-1.072283626E0,-9.592526436E0
1.778024584E0,-1.985145450E0,-1.043569803E0,-9.602098465E0
1.787737084E0,-2.009073734E0,-1.000499010E0,-9.637990952E0
1.797448802E0,-2.018645048E0,-1.007677436E0,-9.681061745E0
1.807161407E0,-2.033001900E0,-1.007677436E0,-9.695418358E0
1.816874688E0,-2.025823355E0,-1.033998489E0,-9.685847282E0
1.826587188E0,-2.030609131E0,-1.045962572E0,-9.654740334E0
1.836298907E0,-2.018645048E0,-1.055533886E0,-9.642776489E0
1.846011511E0,-1.999502420E0,-1.057926655E0,-9.621240616E0
1.855724844E0,-1.985145450E0,-1.050748229E0,-9.630811691E0
1.865437292E0,-1.999502420E0,-1.050748229E0,-9.628418922E0
1.875149063E0,-1.992323995E0,-1.055533886E0,-9.642776489E0
1.884861563E0,-1.982752681E0,-1.074676514E0,-9.652347565E0
1.894574948E0,-1.973181367E0,-1.069890857E0,-9.654740334E0
1.904287396E0,-1.980359793E0,-1.077069283E0,-9.657133102E0
1.913999167E0,-1.999502420E0,-1.072283626E0,-9.647562027E0
1.923711667E0,-1.992323995E0,-1.065105200E0,-9.642776489E0
1.933425052E0,-1.999502420E0,-1.050748229E0,-9.623633385E0
1.943137500E0,-2.004287958E0,-1.067497969E0,-9.616455078E0
1.952849271E0,-1.992323995E0,-1.062712312E0,-9.611669540E0
1.962561771E0,-1.992323995E0,-1.050748229E0,-9.623633385E0
1.972275157E0,-2.016252279E0,-1.038784146E0,-9.645169258E0
1.981987657E0,-2.011466503E0,-1.029212832E0,-9.664311409E0
1.991699375E0,-2.040180445E0,-1.022034407E0,-9.678668022E0
2.001411980E0,-2.033001900E0,-1.029212832E0,-9.690632820E0
2.011125261E0,-2.009073734E0,-1.043569803E0,-9.657133102E0
2.020837761E0,-1.997109652E0,-1.062712312E0,-9.621240616E0
2.030549480E0,-1.987538338E0,-1.055533886E0,-9.592526436E0
2.040262084E0,-1.987538338E0,-1.038784146E0,-9.604491234E0
2.049975417E0,-1.997109652E0,-1.043569803E0,-9.614062309E0
2.059687865E0,-2.023430586E0,-1.024427176E0,-9.635597229E0
2.069399584E0,-2.016252279E0,-1.029212832E0,-9.635597229E0
2.079112188E0,-2.037787676E0,-1.031605721E0,-9.635597229E0
2.088825521E0,-2.025823355E0,-1.050748229E0,-9.633204460E0
2.098537969E0,-2.044965982E0,-1.053141117E0,-9.640383720E0
2.108249740E0,-2.061715841E0,-1.057926655E0,-9.652347565E0
2.117962240E0,-2.054537296E0,-1.069890857E0,-9.664311409E0
2.127675625E0,-2.028216362E0,-1.077069283E0,-9.669096947E0
2.137388073E0,-2.011466503E0,-1.089033365E0,-9.666704178E0
2.147099844E0,-1.989931107E0,-1.103390336E0,-9.649954796E0
2.156812344E0,-1.973181367E0,-1.089033365E0,-9.649954796E0
2.166525730E0,-1.989931107E0,-1.086640596E0,-9.633204460E0
2.176238230E0,-1.997109652E0,-1.081854939E0,-9.640383720E0
2.185949948E0,-1.987538338E0,-1.079462171E0,-9.659525871E0
2.195662448E0,-2.009073734E0,-1.086640596E0,-9.666704178E0
2.205375834E0,-2.001895189E0,-1.062712312E0,-9.654740334E0
2.215088334E0,-1.992323995E0,-1.074676514E0,-9.637990952E0
2.224800052E0,-1.992323995E0,-1.069890857E0,-9.647562027E0
2.234512552E0,-1.992323995E0,-1.072283626E0,-9.642776489E0
2.244225938E0,-1.987538338E0,-1.074676514E0,-9.645169258E0
2.253938438E0,-2.001895189E0,-1.067497969E0,-9.640383720E0
2.263650157E0,-2.004287958E0,-1.055533886E0,-9.642776489E0
2.273362657E0,-2.018645048E0,-1.050748229E0,-9.659525871E0
2.283076042E0,-2.006680965E0,-1.050748229E0,-9.666704178E0
2.292788542E0,-1.999502420E0,-1.062712312E0,-9.683454514E0
2.302500261E0,-2.006680965E0,-1.069890857E0,-9.688240051E0
2.312212865E0,-2.006680965E0,-1.065105200E0,-9.647562027E0
2.321926146E0,-2.018645048E0,-1.048355460E0,-9.614062309E0
2.331638646E0,-2.013859272E0,-1.048355460E0,-9.618847847E0
2.341350365E0,-2.011466503E0,-1.062712312E0,-9.635597229E0
2.351062969E0,-1.994716763E0,-1.060319543E0,-9.652347565E0
2.360776250E0,-1.997109652E0,-1.053141117E0,-9.654740334E0
2.370488750E0,-2.001895189E0,-1.050748229E0,-9.657133102E0
2.380200469E0,-1.994716763E0,-1.045962572E0,-9.647562027E0
2.389913073E0,-2.016252279E0,-1.041176915E0,-9.664311409E0
2.399626355E0,-2.016252279E0,-1.033998489E0,-9.671489716E0
2.409338855E0,-2.009073734E0,-1.043569803E0,-9.683454514E0
2.419050573E0,-1.987538338E0,-1.057926655E0,-9.659525871E0
2.428763177E0,-1.975574136E0,-1.057926655E0,-9.626026154E0
2.438476459E0,-1.975574136E0,-1.072283626E0,-9.609276772E0
2.448188959E0,-1.982752681E0,-1.065105200E0,-9.611669540E0
2.457900677E0,-1.994716763E0,-1.053141117E0,-9.628418922E0
2.467613282E0,-2.011466503E0,-1.043569803E0,-9.642776489E0
2.477326563E0,-2.013859272E0,-1.045962572E0,-9.654740334E0
2.487039063E0,-2.009073734E0,-1.038784146E0,-9.666704178E0
2.496750782E0,-2.025823355E0,-1.048355460E0,-9.685847282E0
2.506463386E0,-2.025823355E0,-1.041176915E0,-9.683454514E0
2.516176719E0,-2.023430586E0,-1.038784146E0,-9.673882484E0
2.525889167E0,-2.028216362E0,-1.033998489E0,-9.669096947E0
2.535600886E0,-2.016252279E0,-1.043569803E0,-9.659525871E0
2.545313490E0,-1.994716763E0,-1.079462171E0,-9.630811691E0
2.555026823E0,-1.992323995E0,-1.081854939E0,-9.626026154E0
2.564739271E0,-1.985145450E0,-1.093819022E0,-9.611669540E0
2.574451042E0,-1.980359793E0,-1.089033365E0,-9.621240616E0
2.584163542E0,-1.992323995E0,-1.067497969E0,-9.642776489E0
2.593876927E0,-2.009073734E0,-1.057926655E0,-9.657133102E0
2.603589375E0,-2.013859272E0,-1.033998489E0,-9.669096947E0
2.613301146E0,-2.006680965E0,-1.024427176E0,-9.681061745E0
2.623013646E0,-2.013859272E0,-1.024427176E0,-9.673882484E0
2.632727032E0,-1.999502420E0,-1.043569803E0,-9.652347565E0
2.642439480E0,-2.016252279E0,-1.067497969E0,-9.647562027E0
2.652151250E0,-2.004287958E0,-1.077069283E0,-9.640383720E0
2.661863750E0,-1.999502420E0,-1.086640596E0,-9.649954796E0
2.671577136E0,-1.989931107E0,-1.093819022E0,-9.642776489E0
2.681289584E0,-1.985145450E0,-1.072283626E0,-9.652347565E0
2.691001355E0,-2.001895189E0,-1.079462171E0,-9.659525871E0
2.700713855E0,-2.006680965E0,-1.050748229E0,-9.671489716E0
2.710427240E0,-2.035394669E0,-1.048355460E0,-9.695418358E0
2.720139688E0,-2.028216362E0,-1.038784146E0,-9.688240051E0
2.729851459E0,-2.016252279E0,-1.031605721E0,-9.666704178E0
2.739563959E0,-2.018645048E0,-1.026820064E0,-9.645169258E0
2.749277344E0,-1.997109652E0,-1.048355460E0,-9.623633385E0
2.758989844E0,-1.992323995E0,-1.060319543E0,-9.618847847E0
2.768701563E0,-1.989931107E0,-1.086640596E0,-9.623633385E0
2.778414167E0,-1.994716763E0,-1.096211910E0,-9.647562027E0
2.788127448E0,-2.009073734E0,-1.084247708E0,-9.654740334E0
2.797839948E0,-2.013859272E0,-1.060319543E0,-9.669096947E0
2.807551667E0,-2.033001900E0,-1.033998489E0,-9.673882484E0
2.817264271E0,-2.030609131E0,-1.026820064E0,-9.673882484E0
2.826977552E0,-2.009073734E0,-1.038784146E0,-9.657133102E0
2.836690052E0,-1.999502420E0,-1.053141117E0,-9.647562027E0
2.846401771E0,-1.985145450E0,-1.057926655E0,-9.630811691E0
2.856114375E0,-1.985145450E0,-1.048355460E0,-9.635597229E0
2.865827657E0,-1.977967024E0,-1.041176915E0,-9.626026154E0
2.875540157E0,-1.982752681E0,-1.029212832E0,-9.652347565E0
2.885251875E0,-1.973181367E0,-1.036391258E0,-9.681061745E0
2.894964480E0,-1.977967024E0,-1.053141117E0,-9.681061745E0
2.904677761E0,-1.982752681E0,-1.060319543E0,-9.690632820E0
2.914390261E0,-1.987538338E0,-1.065105200E0,-9.654740334E0
2.924101980E0,-1.994716763E0,-1.067497969E0,-9.618847847E0
2.933814584E0,-2.009073734E0,-1.060319543E0,-9.616455078E0
2.943527865E0,-1.997109652E0,-1.053141117E0,-9.606884003E0
2.953240365E0,-2.006680965E0,-1.057926655E0,-9.616455078E0
2.962952084E0,-2.001895189E0,-1.057926655E0,-9.642776489E0
2.972664688E0,-2.001895189E0,-1.065105200E0,-9.657133102E0
2.982378021E0,-2.004287958E0,-1.081854939E0,-9.652347565E0
2.992090469E0,-2.018645048E0,-1.084247708E0,-9.657133102E0
3.001802188E0,-2.006680965E0,-1.086640596E0,-9.664311409E0
3.011514792E0,-2.009073734E0,-1.084247708E0,-9.666704178E0
3.021228125E0,-2.006680965E0,-1.084247708E0,-9.652347565E0
3.030940573E0,-2.004287958E0,-1.084247708E0,-9.654740334E0
3.040652292E0,-2.006680965E0,-1.055533886E0,-9.654740334E0
3.050364896E0,-1.999502420E0,-1.038784146E0,-9.659525871E0
3.060078230E0,-2.009073734E0,-1.024427176E0,-9.657133102E0
3.069790677E0,-1.999502420E0,-1.024427176E0,-9.652347565E0
3.079502396E0,-2.009073734E0,-1.014855862E0,-9.637990952E0
3.089215000E0,-2.004287958E0,-1.026820064E0,-9.633204460E0
3.098928334E0,-1.980359793E0,-1.045962572E0,-9.635597229E0
3.108640782E0,-1.975574136E0,-1.060319543E0,-9.621240616E0
3.118352500E0,-1.987538338E0,-1.077069283E0,-9.633204460E0
3.128065105E0,-1.980359793E0,-1.079462171E0,-9.649954796E0
3.137778438E0,-1.992323995E0,-1.069890857E0,-9.640383720E0
3.147490886E0,-1.999502420E0,-1.055533886E0,-9.645169258E0
3.157202605E0,-2.016252279E0,-1.033998489E0,-9.661918640E0
3.166915209E0,-2.042573214E0,-1.033998489E0,-9.654740334E0
3.176628542E0,-2.042573214E0,-1.048355460E0,-9.666704178E0
3.186340990E0,-2.037787676E0,-1.062712312E0,-9.645169258E0
3.196052761E0,-2.037787676E0,-1.079462171E0,-9.623633385E0
3.205765261E0,-2.004287958E0,-1.089033365E0,-9.609276772E0
3.215478646E0,-1.956431627E0,-1.086640596E0,-9.609276772E0
3.225191094E0,-1.930110574E0,-1.069890857E0,-9.649954796E0
3.234902813E0,-1.920539260E0,-1.041176915E0,-9.678668022E0
3.244615417E0,-1.970788598E0,-1.024427176E0,-9.707382202E0
3.254328750E0,-2.006680965E0,-1.026820064E0,-9.707382202E0
3.264041198E0,-2.028216362E0,-1.031605721E0,-9.697811127E0
3.273752969E0,-2.047358990E0,-1.055533886E0,-9.688240051E0
3.283465469E0,-2.052144527E0,-1.081854939E0,-9.647562027E0
3.293178855E0,-2.040180445E0,-1.096211910E0,-9.585348129E0
3.302891302E0,-2.028216362E0,-1.084247708E0,-9.547062874E0
3.312603073E0,-2.009073734E0,-1.062712312E0,-9.556634903E0
3.322315573E0,-1.992323995E0,-1.048355460E0,-9.604491234E0
3.332028959E0,-1.980359793E0,-1.026820064E0,-9.649954796E0
3.341741407E0,-1.966002941E0,-1.043569803E0,-9.704989433E0
3.351453177E0,-1.946860313E0,-1.060319543E0,-9.716953278E0
3.361165677E0,-1.970788598E0,-1.084247708E0,-9.719346046E0
3.370879063E0,-1.987538338E0,-1.136889815E0,-9.695418358E0
3.380591511E0,-1.987538338E0,-1.156032443E0,-9.657133102E0
3.390303282E0,-1.975574136E0,-1.153639674E0,-9.652347565E0
3.400015782E0,-1.987538338E0,-1.141675472E0,-9.659525871E0
3.409729167E0,-1.987538338E0,-1.077069283E0,-9.623633385E0
3.419441615E0,-1.992323995E0,-1.029212832E0,-9.597312927E0
3.429153334E0,-1.994716763E0,-9.981061220E-1,-9.602098465E0
3.438865938E0,-2.011466503E0,-9.861420393E-1,-9.628418922E0
3.448579271E0,-1.992323995E0,-1.007677436E0,-9.669096947E0
3.458291719E0,-1.985145450E0,-1.036391258E0,-9.671489716E0
3.468003438E0,-1.987538338E0,-1.055533886E0,-9.659525871E0
3.477716042E0,-1.966002941E0,-1.072283626E0,-9.635597229E0
3.487429375E0,-1.944467545E0,-1.077069283E0,-9.637990952E0
3.497141823E0,-1.932503343E0,-1.069890857E0,-9.621240616E0
3.506853594E0,-1.946860313E0,-1.069890857E0,-9.657133102E0
3.516566094E0,-1.975574136E0,-1.062712312E0,-9.654740334E0
3.526279480E0,-2.016252279E0,-1.065105200E0,-9.659525871E0
3.535991927E0,-2.018645048E0,-1.069890857E0,-9.681061745E0
3.545703646E0,-2.018645048E0,-1.074676514E0,-9.664311409E0
3.555416250E0,-2.023430586E0,-1.079462171E0,-9.645169258E0
3.565129584E0,-2.004287958E0,-1.084247708E0,-9.635597229E0
3.574842032E0,-2.025823355E0,-1.098604679E0,-9.628418922E0
3.584553750E0,-2.028216362E0,-1.103390336E0,-9.657133102E0
3.594266355E0,-2.023430586E0,-1.093819022E0,-9.669096947E0
3.603979636E0,-1.994716763E0,-1.084247708E0,-9.669096947E0
3.613692136E0,-1.982752681E0,-1.089033365E0,-9.659525871E0
3.623403855E0,-1.970788598E0,-1.072283626E0,-9.637990952E0
3.633116459E0,-1.973181367E0,-1.069890857E0,-9.642776489E0
3.642829740E0,-1.966002941E0,-1.067497969E0,-9.642776489E0
3.652542240E0,-1.975574136E0,-1.069890857E0,-9.637990952E0
3.662253959E0,-1.980359793E0,-1.060319543E0,-9.635597229E0
3.671966563E0,-1.982752681E0,-1.043569803E0,-9.645169258E0
3.681679844E0,-1.992323995E0,-1.036391258E0,-9.637990952E0
3.691392344E0,-2.016252279E0,-1.017248750E0,-9.657133102E0
3.701104063E0,-2.018645048E0,-1.024427176E0,-9.669096947E0
3.710816563E0,-2.013859272E0,-1.012463093E0,-9.676275253E0
3.720529948E0,-1.977967024E0,-1.026820064E0,-9.659525871E0
3.730242448E0,-1.977967024E0,-1.045962572E0,-9.630811691E0
3.739954167E0,-1.970788598E0,-1.060319543E0,-9.604491234E0
3.749666667E0,-1.980359793E0,-1.069890857E0,-9.604491234E0
3.759380052E0,-1.994716763E0,-1.081854939E0,-9.616455078E0
3.769092500E0,-1.980359793E0,-1.072283626E0,-9.642776489E0
3.778804271E0,-1.992323995E0,-1.072283626E0,-9.657133102E0
3.788516771E0,-1.992323995E0,-1.067497969E0,-9.652347565E0
3.798230157E0,-1.989931107E0,-1.065105200E0,-9.659525871E0
3.807942605E0,-2.009073734E0,-1.048355460E0,-9.654740334E0
3.817654375E0,-2.001895189E0,-1.048355460E0,-9.645169258E0
3.827366875E0,-1.994716763E0,-1.038784146E0,-9.637990952E0
3.837080261E0,-1.992323995E0,-1.062712312E0,-9.642776489E0
3.846792709E0,-2.001895189E0,-1.067497969E0,-9.637990952E0
3.856504427E0,-2.004287958E0,-1.072283626E0,-9.635597229E0
3.866217032E0,-2.016252279E0,-1.065105200E0,-9.647562027E0
3.875930313E0,-2.033001900E0,-1.060319543E0,-9.661918640E0
3.885642813E0,-2.016252279E0,-1.048355460E0,-9.645169258E0
3.895354532E0,-2.013859272E0,-1.036391258E0,-9.659525871E0
3.905067136E0,-2.006680965E0,-1.045962572E0,-9.635597229E0
3.914780417E0,-2.018645048E0,-1.043569803E0,-9.640383720E0
3.924492917E0,-2.009073734E0,-1.060319543E0,-9.637990952E0
3.934204636E0,-1.994716763E0,-1.093819022E0,-9.652347565E0
3.943917136E0,-1.977967024E0,-1.100997567E0,-9.671489716E0
3.953630521E0,-1.994716763E0,-1.103390336E0,-9.657133102E0
3.963343021E0,-1.989931107E0,-1.084247708E0,-9.635597229E0
3.973054740E0,-1.977967024E0,-1.069890857E0,-9.630811691E0
3.982767240E0,-1.980359793E0,-1.079462171E0,-9.635597229E0
3.992480625E0,-1.982752681E0,-1.057926655E0,-9.654740334E0
4.002193073E0,-1.989931107E0,-1.053141117E0,-9.666704178E0
4.011904844E0,-1.985145450E0,-1.045962572E0,-9.652347565E0
4.021617344E0,-1.992323995E0,-1.048355460E0,-9.654740334E0
4.031330730E0,-1.973181367E0,-1.041176915E0,-9.649954796E0
4.041043177E0,-1.985145450E0,-1.045962572E0,-9.649954796E0
4.050754896E0,-1.985145450E0,-1.057926655E0,-9.649954796E0
4.060467500E0,-1.977967024E0,-1.057926655E0,-9.649954796E0
4.070180782E0,-1.958824396E0,-1.081854939E0,-9.626026154E0
4.079893282E0,-1.958824396E0,-1.089033365E0,-9.611669540E0
4.089605000E0,-1.973181367E0,-1.081854939E0,-9.623633385E0
4.099317605E0,-1.992323995E0,-1.048355460E0,-9.637990952E0
4.109030886E0,-2.009073734E0,-1.038784146E0,-9.671489716E0
4.118743386E0,-2.016252279E0,-1.031605721E0,-9.669096947E0
4.128455105E0,-2.028216362E0,-1.033998489E0,-9.678668022E0
4.138167605E0,-2.013859272E0,-1.043569803E0,-9.673882484E0
4.147880990E0,-1.999502420E0,-1.050748229E0,-9.671489716E0
4.157593438E0,-1.989931107E0,-1.060319543E0,-9.657133102E0
4.167305209E0,-1.968395710E0,-1.067497969E0,-9.633204460E0
4.177017709E0,-1.968395710E0,-1.074676514E0,-9.614062309E0
4.186731094E0,-1.963610053E0,-1.079462171E0,-9.606884003E0
4.196443542E0,-1.975574136E0,-1.081854939E0,-9.621240616E0
4.206155261E0,-1.980359793E0,-1.077069283E0,-9.645169258E0
4.215867865E0,-2.006680965E0,-1.069890857E0,-9.664311409E0
4.225581146E0,-2.047358990E0,-1.048355460E0,-9.657133102E0
4.235293646E0,-2.049751759E0,-1.036391258E0,-9.671489716E0
4.245005365E0,-2.047358990E0,-1.029212832E0,-9.664311409E0
4.254717865E0,-2.025823355E0,-1.038784146E0,-9.649954796E0
4.264431250E0,-2.001895189E0,-1.043569803E0,-9.637990952E0
4.274143698E0,-1.982752681E0,-1.072283626E0,-9.626026154E0
4.283855469E0,-1.946860313E0,-1.072283626E0,-9.635597229E0
4.293567969E0,-1.958824396E0,-1.072283626E0,-9.640383720E0
4.303281355E0,-1.966002941E0,-1.086640596E0,-9.633204460E0
4.312993802E0,-1.973181367E0,-1.081854939E0,-9.654740334E0
4.322705521E0,-1.992323995E0,-1.079462171E0,-9.664311409E0
4.332418125E0,-2.004287958E0,-1.072283626E0,-9.681061745E0
4.342131407E0,-2.011466503E0,-1.055533886E0,-9.673882484E0
4.351843907E0,-2.011466503E0,-1.053141117E0,-9.647562027E0
4.361555625E0,-1.999502420E0,-1.045962572E0,-9.642776489E0
4.371268125E0,-1.985145450E0,-1.036391258E0,-9.633204460E0
4.380981511E0,-1.989931107E0,-1.026820064E0,-9.626026154E0
4.390693959E0,-1.975574136E0,-1.022034407E0,-9.618847847E0
4.400405730E0,-1.966002941E0,-1.045962572E0,-9.659525871E0
4.410118230E0,-1.954038739E0,-1.060319543E0,-9.669096947E0
4.419831563E0,-1.968395710E0,-1.072283626E0,-9.669096947E0
4.429544063E0,-1.973181367E0,-1.074676514E0,-9.652347565E0
4.439255782E0,-1.975574136E0,-1.077069283E0,-9.645169258E0
4.448968282E0,-1.985145450E0,-1.072283626E0,-9.635597229E0
4.458681667E0,-2.001895189E0,-1.060319543E0,-9.626026154E0
4.468394115E0,-2.018645048E0,-1.060319543E0,-9.635597229E0
4.478105886E0,-2.016252279E0,-1.062712312E0,-9.649954796E0
4.487818386E0,-2.011466503E0,-1.086640596E0,-9.661918640E0
4.497531771E0,-2.013859272E0,-1.093819022E0,-9.637990952E0
4.507244219E0,-2.011466503E0,-1.079462171E0,-9.623633385E0
4.516955938E0,-1.999502420E0,-1.065105200E0,-9.621240616E0
4.526668542E0,-2.001895189E0,-1.057926655E0,-9.652347565E0
4.536381823E0,-1.989931107E0,-1.036391258E0,-9.688240051E0
4.546094323E0,-2.001895189E0,-1.043569803E0,-9.681061745E0
4.555806042E0,-1.994716763E0,-1.050748229E0,-9.657133102E0
4.565518542E0,-1.997109652E0,-1.065105200E0,-9.642776489E0
4.575231927E0,-1.982752681E0,-1.074676514E0,-9.657133102E0
4.584944375E0,-1.980359793E0,-1.091426253E0,-9.633204460E0
4.594656094E0,-1.975574136E0,-1.077069283E0,-9.611669540E0
4.604368698E0,-1.977967024E0,-1.074676514E0,-9.602098465E0
4.614081980E0,-1.975574136E0,-1.062712312E0,-9.633204460E0
4.623794480E0,-1.977967024E0,-1.057926655E0,-9.626026154E0
4.633506198E0,-1.977967024E0,-1.069890857E0,-9.640383720E0
4.643218698E0,-1.977967024E0,-1.060319543E0,-9.649954796E0
4.652932084E0,-1.980359793E0,-1.062712312E0,-9.657133102E0
4.662644532E0,-2.004287958E0,-1.060319543E0,-9.652347565E0
4.672356302E0,-1.987538338E0,-1.074676514E0,-9.671489716E0
4.682068802E0,-2.001895189E0,-1.074676514E0,-9.669096947E0
4.691782136E0,-2.001895189E0,-1.086640596E0,-9.678668022E0
4.701494636E0,-2.011466503E0,-1.077069283E0,-9.671489716E0
4.711206355E0,-2.001895189E0,-1.072283626E0,-9.637990952E0
4.720918855E0,-2.009073734E0,-1.067497969E0,-9.637990952E0
4.730632240E0,-2.006680965E0,-1.048355460E0,-9.630811691E0
4.740344688E0,-1.985145450E0,-1.048355460E0,-9.618847847E0
4.750056407E0,-1.982752681E0,-1.038784146E0,-9.621240616E0
4.759769011E0,-1.994716763E0,-1.050748229E0,-9.640383720E0
4.769482292E0,-1.997109652E0,-1.048355460E0,-9.657133102E0
4.779194792E0,-1.982752681E0,-1.048355460E0,-9.654740334E0
4.788906511E0,-1.973181367E0,-1.053141117E0,-9.661918640E0
4.798619011E0,-1.982752681E0,-1.053141117E0,-9.649954796E0
4.808332396E0,-1.982752681E0,-1.050748229E0,-9.630811691E0
4.818044844E0,-1.994716763E0,-1.057926655E0,-9.640383720E0
4.827756563E0,-1.997109652E0,-1.067497969E0,-9.642776489E0
4.837469167E0,-2.009073734E0,-1.072283626E0,-9.647562027E0
4.847182448E0,-2.016252279E0,-1.079462171E0,-9.666704178E0
4.856894948E0,-2.030609131E0,-1.089033365E0,-9.664311409E0
4.866606667E0,-2.018645048E0,-1.103390336E0,-9.678668022E0
4.876319167E0,-2.004287958E0,-1.096211910E0,-9.657133102E0
4.886032552E0,-1.994716763E0,-1.089033365E0,-9.664311409E0
4.895745000E0,-1.980359793E0,-1.091426253E0,-9.635597229E0
4.905456719E0,-1.966002941E0,-1.098604679E0,-9.637990952E0
4.915169323E0,-1.970788598E0,-1.079462171E0,-9.637990952E0
4.924882605E0,-1.968395710E0,-1.079462171E0,-9.645169258E0
4.934595052E0,-1.980359793E0,-1.067497969E0,-9.642776489E0
4.944306823E0,-1.977967024E0,-1.057926655E0,-9.664311409E0
4.954019323E0,-1.975574136E0,-1.067497969E0,-9.681061745E0
4.963732709E0,-1.975574136E0,-1.057926655E0,-9.678668022E0
4.973445157E0,-1.980359793E0,-1.072283626E0,-9.681061745E0
4.983156875E0,-1.970788598E0,-1.069890857E0,-9.664311409E0
4.992869375E0,-1.977967024E0,-1.065105200E0,-9.649954796E0
5.002582761E0,-1.966002941E0,-1.077069283E0,-9.652347565E0
5.012295209E0,-1.975574136E0,-1.079462171E0,-9.623633385E0
5.022006980E0,-1.975574136E0,-1.074676514E0,-9.626026154E0
5.031719480E0,-1.992323995E0,-1.067497969E0,-9.652347565E0
5.041432865E0,-1.994716763E0,-1.077069283E0,-9.695418358E0
5.051145313E0,-2.006680965E0,-1.067497969E0,-9.695418358E0
5.060857032E0,-2.013859272E0,-1.053141117E0,-9.649954796E0
5.070569532E0,-2.009073734E0,-1.036391258E0,-9.623633385E0
5.080282917E0,-2.004287958E0,-1.026820064E0,-9.623633385E0
5.089995365E0,-2.004287958E0,-1.024427176E0,-9.647562027E0
5.099707136E0,-1.987538338E0,-1.029212832E0,-9.654740334E0
5.109419636E0,-1.980359793E0,-1.048355460E0,-9.654740334E0
5.119132969E0,-1.994716763E0,-1.067497969E0,-9.664311409E0
5.128845469E0,-1.992323995E0,-1.072283626E0,-9.664311409E0
5.138557188E0,-1.975574136E0,-1.077069283E0,-9.661918640E0
5.148269688E0,-1.997109652E0,-1.077069283E0,-9.654740334E0
5.157983073E0,-1.992323995E0,-1.079462171E0,-9.659525871E0
5.167695521E0,-1.977967024E0,-1.067497969E0,-9.657133102E0
5.177407240E0,-1.973181367E0,-1.086640596E0,-9.666704178E0
5.187119844E0,-1.980359793E0,-1.093819022E0,-9.657133102E0
5.196833125E0,-1.980359793E0,-1.086640596E0,-9.673882484E0
5.206545625E0,-1.982752681E0,-1.091426253E0,-9.678668022E0
5.216257344E0,-1.982752681E0,-1.091426253E0,-9.669096947E0
5.225969844E0,-1.975574136E0,-1.091426253E0,-9.649954796E0
5.235683230E0,-1.975574136E0,-1.093819022E0,-9.647562027E0
5.245395677E0,-1.982752681E0,-1.081854939E0,-9.654740334E0
5.255107396E0,-1.982752681E0,-1.079462171E0,-9.640383720E0
5.264820000E0,-1.977967024E0,-1.062712312E0,-9.637990952E0
5.274533282E0,-1.994716763E0,-1.045962572E0,-9.649954796E0
5.284245782E0,-1.999502420E0,-1.041176915E0,-9.637990952E0
5.293957500E0,-1.999502420E0,-1.045962572E0,-9.633204460E0
5.303670000E0,-1.997109652E0,-1.048355460E0,-9.657133102E0
5.313383386E0,-2.011466503E0,-1.055533886E0,-9.659525871E0
5.323095834E0,-2.006680965E0,-1.057926655E0,-9.657133102E0
5.332807552E0,-1.994716763E0,-1.055533886E0,-9.669096947E0
5.342520157E0,-1.992323995E0,-1.055533886E0,-9.647562027E0
5.352233438E0,-1.977967024E0,-1.065105200E0,-9.645169258E0
5.361945938E0,-1.968395710E0,-1.069890857E0,-9.637990952E0
5.371657657E0,-1.970788598E0,-1.065105200E0,-9.637990952E0
5.381370157E0,-1.970788598E0,-1.069890857E0,-9.640383720E0
5.391083542E0,-1.977967024E0,-1.048355460E0,-9.659525871E0
5.400795990E0,-1.985145450E0,-1.043569803E0,-9.673882484E0
5.410507709E0,-1.980359793E0,-1.024427176E0,-9.683454514E0
5.420220313E0,-1.987538338E0,-1.017248750E0,-9.681061745E0
5.429933594E0,-2.011466503E0,-1.007677436E0,-9.666704178E0
5.439646094E0,-2.021037817E0,-1.033998489E0,-9.661918640E0
5.449357813E0,-2.025823355E0,-1.065105200E0,-9.657133102E0
5.459070313E0,-2.011466503E0,-1.096211910E0,-9.640383720E0
5.468783698E0,-1.997109652E0,-1.112961650E0,-9.637990952E0
5.478496146E0,-1.982752681E0,-1.103390336E0,-9.630811691E0
5.488207865E0,-1.968395710E0,-1.096211910E0,-9.642776489E0
5.497920469E0,-1.949253201E0,-1.057926655E0,-9.647562027E0
5.507633750E0,-1.949253201E0,-1.033998489E0,-9.657133102E0
5.517346250E0,-1.961217284E0,-1.036391258E0,-9.669096947E0
5.527057969E0,-1.968395710E0,-1.048355460E0,-9.666704178E0
5.536770469E0,-1.987538338E0,-1.079462171E0,-9.661918640E0
5.546483855E0,-2.004287958E0,-1.096211910E0,-9.664311409E0
5.556196302E0,-2.001895189E0,-1.084247708E0,-9.671489716E0
5.565908021E0,-1.992323995E0,-1.072283626E0,-9.659525871E0
5.575620625E0,-2.004287958E0,-1.060319543E0,-9.652347565E0
5.585333907E0,-2.001895189E0,-1.053141117E0,-9.642776489E0
5.595046407E0,-2.009073734E0,-1.045962572E0,-9.621240616E0
5.604758125E0,-2.004287958E0,-1.057926655E0,-9.635597229E0
5.614470625E0,-2.004287958E0,-1.079462171E0,-9.661918640E0
5.624184011E0,-1.999502420E0,-1.079462171E0,-9.681061745E0
5.633896459E0,-1.987538338E0,-1.062712312E0,-9.649954796E0
5.643608230E0,-1.985145450E0,-1.045962572E0,-9.647562027E0
5.653320730E0,-1.982752681E0,-1.031605721E0,-9.659525871E0
5.663034115E0,-1.985145450E0,-1.038784146E0,-9.681061745E0
5.672746563E0,-1.982752681E0,-1.029212832E0,-9.683454514E0
5.682458282E0,-1.987538338E0,-1.062712312E0,-9.676275253E0
5.692170886E0,-1.980359793E0,-1.084247708E0,-9.666704178E0
5.701884167E0,-1.975574136E0,-1.086640596E0,-9.649954796E0
5.711596615E0,-1.985145450E0,-1.093819022E0,-9.623633385E0
5.721308386E0,-1.980359793E0,-1.096211910E0,-9.633204460E0
5.731020886E0,-1.994716763E0,-1.089033365E0,-9.633204460E0
5.740734271E0,-2.001895189E0,-1.065105200E0,-9.635597229E0
5.750446719E0,-1.980359793E0,-1.048355460E0,-9.657133102E0
5.760158438E0,-1.997109652E0,-1.033998489E0,-9.683454514E0
5.769871042E0,-2.004287958E0,-1.026820064E0,-9.693025589E0
5.779584323E0,-1.994716763E0,-1.031605721E0,-9.704989433E0
5.789296823E0,-1.992323995E0,-1.043569803E0,-9.669096947E0
5.799008542E0,-1.989931107E0,-1.048355460E0,-9.657133102E0
5.808721042E0,-1.975574136E0,-1.079462171E0,-9.652347565E0
5.818434427E0,-1.980359793E0,-1.084247708E0,-9.637990952E0
5.828146875E0,-1.982752681E0,-1.074676514E0,-9.654740334E0
5.837858594E0,-1.994716763E0,-1.057926655E0,-9.659525871E0
5.847571198E0,-2.021037817E0,-1.038784146E0,-9.666704178E0
5.857284480E0,-2.013859272E0,-1.026820064E0,-9.664311409E0
5.866996980E0,-2.021037817E0,-1.019641519E0,-9.647562027E0
5.876708698E0,-2.006680965E0,-1.029212832E0,-9.647562027E0
5.886421198E0,-1.994716763E0,-1.038784146E0,-9.657133102E0
5.896134584E0,-1.994716763E0,-1.048355460E0,-9.654740334E0
5.905847032E0,-1.992323995E0,-1.045962572E0,-9.676275253E0
5.915558802E0,-2.001895189E0,-1.055533886E0,-9.671489716E0
5.925271302E0,-2.016252279E0,-1.055533886E0,-9.683454514E0
5.934984688E0,-2.001895189E0,-1.069890857E0,-9.676275253E0
5.944697136E0,-2.016252279E0,-1.077069283E0,-9.659525871E0
5.954408855E0,-2.009073734E0,-1.074676514E0,-9.647562027E0
5.964121459E0,-2.030609131E0,-1.079462171E0,-9.642776489E0
5.973834740E0,-2.021037817E0,-1.072283626E0,-9.657133102E0
5.983547240E0,-2.009073734E0,-1.067497969E0,-9.671489716E0
5.993258959E0,-2.006680965E0,-1.074676514E0,-9.659525871E0
6.002971459E0,-1.992323995E0,-1.067497969E0,-9.678668022E0
6.012684844E0,-1.958824396E0,-1.072283626E0,-9.678668022E0
6.022397292E0,-1.951645970E0,-1.079462171E0,-9.673882484E0
6.032109063E0,-1.939681888E0,-1.084247708E0,-9.671489716E0
6.041821563E0,-1.954038739E0,-1.084247708E0,-9.664311409E0
6.051534948E0,-1.958824396E0,-1.081854939E0,-9.654740334E0
6.061247396E0,-1.977967024E0,-1.067497969E0,-9.669096947E0
6.070959167E0,-1.994716763E0,-1.062712312E0,-9.683454514E0
6.080671667E0,-2.030609131E0,-1.055533886E0,-9.664311409E0
6.090385052E0,-2.042573214E0,-1.048355460E0,-9.690632820E0
6.100097500E0,-2.040180445E0,-1.041176915E0,-9.681061745E0
6.109809219E0,-2.028216362E0,-1.038784146E0,-9.671489716E0
6.119521823E0,-2.018645048E0,-1.060319543E0,-9.657133102E0
6.129235105E0,-2.013859272E0,-1.077069283E0,-9.652347565E0
6.138947605E0,-1.992323995E0,-1.089033365E0,-9.645169258E0
6.148659323E0,-1.968395710E0,-1.091426253E0,-9.640383720E0
6.158371927E0,-1.989931107E0,-1.089033365E0,-9.637990952E0
6.168085209E0,-1.982752681E0,-1.072283626E0,-9.661918640E0
6.177797709E0,-1.997109652E0,-1.057926655E0,-9.666704178E0
6.187509427E0,-2.006680965E0,-1.036391258E0,-9.690632820E0
6.197221927E0,-2.021037817E0,-1.017248750E0,-9.695418358E0
6.206935313E0,-2.028216362E0,-1.031605721E0,-9.678668022E0
6.216647813E0,-2.009073734E0,-1.060319543E0,-9.678668022E0
6.226359532E0,-1.980359793E0,-1.089033365E0,-9.683454514E0
6.236072032E0,-1.980359793E0,-1.084247708E0,-9.649954796E0
6.245785417E0,-1.963610053E0,-1.067497969E0,-9.616455078E0
6.255497865E0,-1.987538338E0,-1.053141117E0,-9.616455078E0
6.265209636E0,-2.001895189E0,-1.055533886E0,-9.659525871E0
6.274922136E0,-1.999502420E0,-1.036391258E0,-9.702596664E0
6.284635521E0,-1.994716763E0,-1.026820064E0,-9.707382202E0
6.294347969E0,-2.011466503E0,-1.038784146E0,-9.693025589E0
6.304059740E0,-2.006680965E0,-1.057926655E0,-9.678668022E0
6.313772240E0,-1.999502420E0,-1.086640596E0,-9.628418922E0
6.323485625E0,-1.985145450E0,-1.108175993E0,-9.616455078E0
6.333198073E0,-2.004287958E0,-1.103390336E0,-9.594920158E0
6.342909792E0,-1.997109652E0,-1.079462171E0,-9.609276772E0
6.352622396E0,-1.997109652E0,-1.067497969E0,-9.642776489E0
6.362335730E0,-1.994716763E0,-1.036391258E0,-9.659525871E0
6.372048177E0,-1.985145450E0,-1.012463093E0,-9.702596664E0
6.381759896E0,-1.987538338E0,-1.005284667E0,-9.736096382E0
6.391472500E0,-1.987538338E0,-1.048355460E0,-9.760024071E0
6.401185834E0,-1.968395710E0,-1.086640596E0,-9.712167740E0
6.410898282E0,-1.966002941E0,-1.108175993E0,-9.678668022E0
6.420610052E0,-1.966002941E0,-1.139282703E0,-9.659525871E0
6.430322552E0,-1.966002941E0,-1.136889815E0,-9.626026154E0
6.440035938E0,-1.961217284E0,-1.117747307E0,-9.618847847E0
6.449748386E0,-1.963610053E0,-1.067497969E0,-9.623633385E0
6.459460157E0,-1.982752681E0,-1.026820064E0,-9.635597229E0
6.469172657E0,-1.999502420E0,-1.000499010E0,-9.647562027E0
6.478886042E0,-1.999502420E0,-1.002891779E0,-9.669096947E0
6.488598490E0,-2.013859272E0,-1.007677436E0,-9.661918640E0
6.498310261E0,-2.021037817E0,-1.022034407E0,-9.640383720E0
6.508022761E0,-2.018645048E0,-1.043569803E0,-9.637990952E0
6.517736146E0,-2.025823355E0,-1.069890857E0,-9.649954796E0
6.527448594E0,-2.016252279E0,-1.077069283E0,-9.664311409E0
6.537160365E0,-2.028216362E0,-1.072283626E0,-9.659525871E0
6.546872865E0,-2.025823355E0,-1.069890857E0,-9.633204460E0
6.556586250E0,-2.028216362E0,-1.057926655E0,-9.623633385E0
6.566298698E0,-2.040180445E0,-1.048355460E0,-9.637990952E0
6.576010469E0,-2.033001900E0,-1.043569803E0,-9.666704178E0
6.585722969E0,-2.025823355E0,-1.045962572E0,-9.681061745E0
6.595436355E0,-2.013859272E0,-1.045962572E0,-9.690632820E0
6.605148802E0,-1.992323995E0,-1.077069283E0,-9.666704178E0
6.614860573E0,-1.966002941E0,-1.077069283E0,-9.657133102E0
6.624573073E0,-1.961217284E0,-1.081854939E0,-9.630811691E0
6.634286459E0,-1.951645970E0,-1.084247708E0,-9.635597229E0
6.643998907E0,-1.966002941E0,-1.072283626E0,-9.645169258E0
6.653710677E0,-1.968395710E0,-1.072283626E0,-9.649954796E0
6.663423177E0,-1.987538338E0,-1.067497969E0,-9.661918640E0
6.673136563E0,-1.999502420E0,-1.062712312E0,-9.666704178E0
6.682849011E0,-2.006680965E0,-1.050748229E0,-9.666704178E0
6.692560782E0,-2.004287958E0,-1.043569803E0,-9.659525871E0
6.702273282E0,-1.989931107E0,-1.048355460E0,-9.661918640E0
6.711986667E0,-1.985145450E0,-1.053141117E0,-9.659525871E0
6.721699167E0,-1.987538338E0,-1.043569803E0,-9.647562027E0
6.731410886E0,-1.997109652E0,-1.050748229E0,-9.666704178E0
6.741123386E0,-1.987538338E0,-1.074676514E0,-9.652347565E0
6.750836771E0,-1.961217284E0,-1.077069283E0,-9.666704178E0
6.760549271E0,-1.956431627E0,-1.057926655E0,-9.664311409E0
6.770260990E0,-1.951645970E0,-1.045962572E0,-9.647562027E0
6.779973594E0,-1.958824396E0,-1.024427176E0,-9.649954796E0
6.789686875E0,-1.994716763E0,-1.017248750E0,-9.652347565E0
6.799399375E0,-2.009073734E0,-1.007677436E0,-9.640383720E0
6.809111094E0,-2.030609131E0,-1.019641519E0,-9.616455078E0
6.818823698E0,-2.047358990E0,-1.038784146E0,-9.616455078E0
6.828536980E0,-2.037787676E0,-1.079462171E0,-9.623633385E0
6.838249480E0,-2.028216362E0,-1.093819022E0,-9.661918640E0
6.847961198E0,-2.016252279E0,-1.103390336E0,-9.647562027E0
6.857673802E0,-2.025823355E0,-1.074676514E0,-9.618847847E0
6.867387136E0,-2.025823355E0,-1.038784146E0,-9.626026154E0
6.877099584E0,-2.025823355E0,-1.026820064E0,-9.640383720E0
6.886811302E0,-2.025823355E0,-1.033998489E0,-9.676275253E0
6.896523907E0,-2.030609131E0,-1.036391258E0,-9.700203896E0
6.906237240E0,-2.033001900E0,-1.048355460E0,-9.693025589E0
6.915949688E0,-2.023430586E0,-1.055533886E0,-9.683454514E0
6.925661407E0,-2.009073734E0,-1.062712312E0,-9.657133102E0
6.935374011E0,-2.011466503E0,-1.069890857E0,-9.626026154E0
6.945087344E0,-2.004287958E0,-1.069890857E0,-9.609276772E0
6.954799792E0,-1.999502420E0,-1.091426253E0,-9.604491234E0
6.964511563E0,-1.980359793E0,-1.098604679E0,-9.621240616E0
6.974224063E0,-1.982752681E0,-1.103390336E0,-9.642776489E0
6.983937448E0,-1.987538338E0,-1.089033365E0,-9.647562027E0
6.993649896E0,-1.994716763E0,-1.077069283E0,-9.676275253E0
7.003361667E0,-1.999502420E0,-1.038784146E0,-9.678668022E0
7.013074167E0,-2.011466503E0,-1.022034407E0,-9.673882484E0
7.022787552E0,-1.999502420E0,-1.012463093E0,-9.673882484E0
7.032500052E0,-1.992323995E0,-1.019641519E0,-9.673882484E0
7.042211771E0,-1.963610053E0,-1.031605721E0,-9.661918640E0
7.051924271E0,-1.968395710E0,-1.036391258E0,-9.661918640E0
7.061637657E0,-1.954038739E0,-1.033998489E0,-9.647562027E0
7.071350157E0,-1.954038739E0,-1.053141117E0,-9.633204460E0
7.081061875E0,-1.944467545E0,-1.045962572E0,-9.654740334E0
7.090774375E0,-1.937289000E0,-1.045962572E0,-9.649954796E0
7.100487761E0,-1.942074656E0,-1.038784146E0,-9.657133102E0
7.110200261E0,-1.970788598E0,-1.045962572E0,-9.659525871E0
7.119911980E0,-1.992323995E0,-1.041176915E0,-9.652347565E0
7.129624584E0,-2.004287958E0,-1.036391258E0,-9.635597229E0
7.139337865E0,-2.016252279E0,-1.029212832E0,-9.645169258E0
7.149050365E0,-2.011466503E0,-1.041176915E0,-9.630811691E0
7.158762084E0,-1.997109652E0,-1.041176915E0,-9.642776489E0
7.168474688E0,-1.992323995E0,-1.048355460E0,-9.657133102E0
7.178187969E0,-1.989931107E0,-1.053141117E0,-9.661918640E0
7.187900469E0,-1.989931107E0,-1.055533886E0,-9.657133102E0
7.197612188E0,-2.001895189E0,-1.057926655E0,-9.666704178E0
7.207324792E0,-2.004287958E0,-1.065105200E0,-9.652347565E0
7.217038125E0,-1.994716763E0,-1.065105200E0,-9.652347565E0
7.226750573E0,-2.006680965E0,-1.072283626E0,-9.654740334E0
7.236462292E0,-2.004287958E0,-1.074676514E0,-9.647562027E0
7.246174896E0,-2.025823355E0,-1.069890857E0,-9.649954796E0
7.255888230E0,-2.035394669E0,-1.060319543E0,-9.635597229E0
7.265600677E0,-2.028216362E0,-1.072283626E0,-9.628418922E0
7.275312396E0,-2.011466503E0,-1.065105200E0,-9.623633385E0
7.285025000E0,-2.009073734E0,-1.060319543E0,-9.633204460E0
7.294738334E0,-2.006680965E0,-1.045962572E0,-9.645169258E0
7.304450782E0,-2.013859272E0,-1.038784146E0,-9.645169258E0
7.314162552E0,-2.001895189E0,-1.048355460E0,-9.664311409E0
7.323875052E0,-2.004287958E0,-1.029212832E0,-9.661918640E0
7.333588438E0,-1.992323995E0,-1.043569803E0,-9.669096947E0
7.343300886E0,-2.009073734E0,-1.050748229E0,-9.654740334E0
7.353012657E0,-2.011466503E0,-1.053141117E0,-9.652347565E0
7.362725157E0,-2.021037817E0,-1.048355460E0,-9.659525871E0
7.372438542E0,-2.013859272E0,-1.043569803E0,-9.649954796E0
7.382150990E0,-2.004287958E0,-1.060319543E0,-9.635597229E0
7.391862761E0,-1.999502420E0,-1.065105200E0,-9.630811691E0
7.401575261E0,-2.004287958E0,-1.060319543E0,-9.628418922E0
7.411288646E0,-1.992323995E0,-1.050748229E0,-9.621240616E0
7.421001094E0,-1.985145450E0,-1.057926655E0,-9.642776489E0
7.430712865E0,-1.987538338E0,-1.057926655E0,-9.693025589E0
7.440425365E0,-1.985145450E0,-1.060319543E0,-9.693025589E0
7.450138750E0,-1.985145450E0,-1.036391258E0,-9.649954796E0
7.459851198E0,-1.980359793E0,-1.043569803E0,-9.640383720E0
7.469562969E0,-1.985145450E0,-1.031605721E0,-9.661918640E0
7.479275469E0,-1.985145450E0,-1.045962572E0,-9.678668022E0
7.488988855E0,-1.977967024E0,-1.045962572E0,-9.678668022E0
7.498701302E0,-1.966002941E0,-1.057926655E0,-9.657133102E0
7.508413073E0,-1.963610053E0,-1.077069283E0,-9.640383720E0
7.518125573E0,-1.963610053E0,-1.074676514E0,-9.616455078E0
7.527838959E0,-1.975574136E0,-1.069890857E0,-9.604491234E0
7.537551459E0,-1.994716763E0,-1.072283626E0,-9.616455078E0
7.547263177E0,-1.997109652E0,-1.065105200E0,-9.635597229E0
7.556975677E0,-2.016252279E0,-1.043569803E0,-9.642776489E0
7.566689063E0,-2.013859272E0,-1.043569803E0,-9.659525871E0
7.576401563E0,-2.028216362E0,-1.053141117E0,-9.659525871E0
7.586113282E0,-2.028216362E0,-1.048355460E0,-9.666704178E0
7.595825886E0,-2.006680965E0,-1.067497969E0,-9.659525871E0
7.605539167E0,-2.009073734E0,-1.077069283E0,-9.642776489E0
7.615251667E0,-2.006680965E0,-1.084247708E0,-9.642776489E0
7.624963386E0,-2.009073734E0,-1.067497969E0,-9.645169258E0
7.634675886E0,-2.009073734E0,-1.065105200E0,-9.652347565E0
7.644389271E0,-2.009073734E0,-1.060319543E0,-9.654740334E0
7.654101771E0,-1.992323995E0,-1.050748229E0,-9.659525871E0
7.663813490E0,-1.999502420E0,-1.050748229E0,-9.657133102E0
7.673525990E0,-1.989931107E0,-1.033998489E0,-9.659525871E0
7.683239375E0,-1.989931107E0,-1.038784146E0,-9.642776489E0
7.692951875E0,-1.989931107E0,-1.041176915E0,-9.637990952E0
7.702663594E0,-1.968395710E0,-1.038784146E0,-9.630811691E0
7.712376094E0,-1.958824396E0,-1.038784146E0,-9.626026154E0
7.722089480E0,-1.942074656E0,-1.043569803E0,-9.621240616E0
7.731801980E0,-1.956431627E0,-1.038784146E0,-9.647562027E0
7.741513698E0,-1.970788598E0,-1.036391258E0,-9.652347565E0
7.751226302E0,-1.985145450E0,-1.038784146E0,-9.673882484E0
7.760939584E0,-1.994716763E0,-1.033998489E0,-9.688240051E0
7.770652084E0,-1.985145450E0,-1.050748229E0,-9.676275253E0
7.780363802E0,-1.994716763E0,-1.038784146E0,-9.657133102E0
7.790076302E0,-1.994716763E0,-1.055533886E0,-9.647562027E0
7.799789688E0,-1.982752681E0,-1.079462171E0,-9.649954796E0
7.809502188E0,-1.985145450E0,-1.077069283E0,-9.630811691E0
7.819213907E0,-1.973181367E0,-1.081854939E0,-9.630811691E0
7.828926511E0,-1.973181367E0,-1.069890857E0,-9.640383720E0
7.838639792E0,-1.987538338E0,-1.069890857E0,-9.661918640E0
7.848352292E0,-1.987538338E0,-1.062712312E0,-9.659525871E0
7.858064011E0,-1.999502420E0,-1.060319543E0,-9.666704178E0
7.867776511E0,-1.997109652E0,-1.060319543E0,-9.657133102E0
7.877489896E0,-2.004287958E0,-1.057926655E0,-9.654740334E0
7.887202344E0,-2.009073734E0,-1.053141117E0,-9.647562027E0
7.896914115E0,-1.994716763E0,-1.062712312E0,-9.645169258E0
7.906626615E0,-1.989931107E0,-1.055533886E0,-9.647562027E0
7.916340000E0,-1.992323995E0,-1.060319543E0,-9.657133102E0
7.926052448E0,-1.989931107E0,-1.057926655E0,-9.664311409E0
7.935764219E0,-2.004287958E0,-1.053141117E0,-9.664311409E0
7.945476719E0,-2.004287958E0,-1.062712312E0,-9.673882484E0
7.955190105E0,-1.992323995E0,-1.072283626E0,-9.659525871E0
7.964902552E0,-1.982752681E0,-1.072283626E0,-9.649954796E0
7.974614323E0,-1.973181367E0,-1.081854939E0,-9.642776489E0
7.984326823E0,-1.975574136E0,-1.077069283E0,-9.621240616E0
7.994040209E0,-1.989931107E0,-1.060319543E0,-9.626026154E0
8.003752657E0,-2.016252279E0,-1.055533886E0,-9.645169258E0
8.013464427E0,-2.025823355E0,-1.050748229E0,-9.649954796E0
8.023176927E0,-2.021037817E0,-1.048355460E0,-9.666704178E0
8.032890313E0,-2.009073734E0,-1.060319543E0,-9.688240051E0
8.042602761E0,-2.009073734E0,-1.069890857E0,-9.716953278E0
8.052314532E0,-1.992323995E0,-1.055533886E0,-9.664311409E0
8.062027032E0,-1.989931107E0,-1.041176915E0,-9.630811691E0
8.071740417E0,-1.968395710E0,-1.036391258E0,-9.616455078E0
8.081452865E0,-1.975574136E0,-1.050748229E0,-9.659525871E0
8.091164636E0,-1.958824396E0,-1.045962572E0,-9.657133102E0
8.100877136E0,-1.973181367E0,-1.043569803E0,-9.661918640E0
8.110590521E0,-1.985145450E0,-1.055533886E0,-9.647562027E0
8.120302969E0,-1.982752681E0,-1.062712312E0,-9.642776489E0
8.130014740E0,-1.992323995E0,-1.065105200E0,-9.630811691E0
8.139727240E0,-1.992323995E0,-1.053141117E0,-9.630811691E0
8.149440625E0,-1.982752681E0,-1.065105200E0,-9.621240616E0
8.159153073E0,-1.970788598E0,-1.067497969E0,-9.635597229E0
8.168864844E0,-1.977967024E0,-1.072283626E0,-9.649954796E0
8.178577344E0,-1.973181367E0,-1.077069283E0,-9.647562027E0
8.188290730E0,-1.980359793E0,-1.077069283E0,-9.661918640E0
8.198003177E0,-1.997109652E0,-1.072283626E0,-9.693025589E0
8.207714948E0,-1.997109652E0,-1.084247708E0,-9.704989433E0
8.217427448E0,-1.975574136E0,-1.074676514E0,-9.681061745E0
8.227140834E0,-1.980359793E0,-1.089033365E0,-9.661918640E0
8.236853282E0,-1.980359793E0,-1.084247708E0,-9.642776489E0
8.246565000E0,-1.982752681E0,-1.077069283E0,-9.649954796E0
8.256277605E0,-2.001895189E0,-1.065105200E0,-9.657133102E0
8.265990938E0,-2.001895189E0,-1.050748229E0,-9.647562027E0
8.275703386E0,-1.987538338E0,-1.038784146E0,-9.642776489E0
8.285415105E0,-1.994716763E0,-1.022034407E0,-9.645169258E0
8.295127709E0,-1.980359793E0,-1.033998489E0,-9.649954796E0
8.304840990E0,-1.977967024E0,-1.033998489E0,-9.652347565E0
8.314553490E0,-1.982752681E0,-1.036391258E0,-9.645169258E0
8.324265209E0,-1.970788598E0,-1.031605721E0,-9.657133102E0
8.333977813E0,-1.970788598E0,-1.043569803E0,-9.635597229E0
8.343691146E0,-1.970788598E0,-1.041176915E0,-9.628418922E0
8.353403594E0,-1.985145450E0,-1.050748229E0,-9.645169258E0
8.363115313E0,-1.999502420E0,-1.053141117E0,-9.654740334E0
8.372827917E0,-2.023430586E0,-1.055533886E0,-9.673882484E0
8.382541250E0,-2.016252279E0,-1.053141117E0,-9.673882484E0
8.392253698E0,-2.033001900E0,-1.057926655E0,-9.671489716E0
8.401965417E0,-2.018645048E0,-1.062712312E0,-9.661918640E0
8.411678021E0,-1.994716763E0,-1.065105200E0,-9.652347565E0
8.421391355E0,-1.977967024E0,-1.072283626E0,-9.654740334E0
8.431103802E0,-1.977967024E0,-1.072283626E0,-9.669096947E0
8.440815521E0,-1.966002941E0,-1.065105200E0,-9.666704178E0
8.450528125E0,-1.973181367E0,-1.067497969E0,-9.645169258E0
8.460241407E0,-1.968395710E0,-1.072283626E0,-9.645169258E0
8.469953907E0,-1.975574136E0,-1.074676514E0,-9.645169258E0
8.479665625E0,-1.970788598E0,-1.057926655E0,-9.659525871E0
8.489378230E0,-1.989931107E0,-1.055533886E0,-9.652347565E0
8.499091511E0,-1.970788598E0,-1.036391258E0,-9.642776489E0
8.508804011E0,-1.999502420E0,-1.036391258E0,-9.652347565E0
8.518515730E0,-1.987538338E0,-1.031605721E0,-9.645169258E0
8.528228334E0,-1.985145450E0,-1.033998489E0,-9.649954796E0
8.537941615E0,-1.977967024E0,-1.033998489E0,-9.652347565E0
8.547654115E0,-1.997109652E0,-1.043569803E0,-9.657133102E0
8.557365834E0,-1.980359793E0,-1.055533886E0,-9.657133102E0
8.567078438E0,-1.994716763E0,-1.057926655E0,-9.652347565E0
8.576791719E0,-1.975574136E0,-1.055533886E0,-9.637990952E0
8.586504219E0,-1.975574136E0,-1.053141117E0,-9.635597229E0
8.596215938E0,-1.989931107E0,-1.041176915E0,-9.657133102E0
8.605928542E0,-2.028216362E0,-1.033998489E0,-9.657133102E0
8.615641823E0,-2.040180445E0,-1.036391258E0,-9.657133102E0
8.625354323E0,-2.040180445E0,-1.050748229E0,-9.669096947E0
8.635066042E0,-2.035394669E0,-1.084247708E0,-9.683454514E0
8.644778646E0,-2.018645048E0,-1.108175993E0,-9.697811127E0
8.654491927E0,-2.001895189E0,-1.098604679E0,-9.654740334E0
8.664204427E0,-1.982752681E0,-1.081854939E0,-9.618847847E0
8.673916146E0,-1.973181367E0,-1.055533886E0,-9.621240616E0
8.683628750E0,-1.956431627E0,-1.041176915E0,-9.618847847E0
8.693342032E0,-1.946860313E0,-1.022034407E0,-9.635597229E0
8.703054532E0,-1.954038739E0,-1.012463093E0,-9.673882484E0
8.712766250E0,-1.954038739E0,-1.017248750E0,-9.669096947E0
8.722478855E0,-1.968395710E0,-1.026820064E0,-9.657133102E0
8.732192136E0,-2.004287958E0,-1.041176915E0,-9.673882484E0
8.741904636E0,-2.001895189E0,-1.057926655E0,-9.673882484E0
8.751616355E0,-2.009073734E0,-1.053141117E0,-9.661918640E0
8.761328959E0,-1.982752681E0,-1.077069283E0,-9.628418922E0
8.771042240E0,-1.966002941E0,-1.089033365E0,-9.614062309E0
8.780754740E0,-1.975574136E0,-1.079462171E0,-9.602098465E0
8.790466459E0,-1.987538338E0,-1.057926655E0,-9.623633385E0
8.800179063E0,-1.994716763E0,-1.045962572E0,-9.664311409E0
8.809892344E0,-2.006680965E0,-1.029212832E0,-9.693025589E0
8.819604844E0,-2.023430586E0,-1.048355460E0,-9.695418358E0
8.829316563E0,-2.023430586E0,-1.065105200E0,-9.695418358E0
8.839029167E0,-2.013859272E0,-1.086640596E0,-9.664311409E0
8.848742448E0,-1.992323995E0,-1.110568762E0,-9.649954796E0
8.858454948E0,-1.989931107E0,-1.100997567E0,-9.630811691E0
8.868166667E0,-1.987538338E0,-1.091426253E0,-9.616455078E0
8.877879271E0,-1.997109652E0,-1.060319543E0,-9.630811691E0
8.887592552E0,-2.009073734E0,-1.026820064E0,-9.652347565E0
8.897305052E0,-1.997109652E0,-1.019641519E0,-9.661918640E0
8.907016771E0,-1.992323995E0,-1.029212832E0,-9.683454514E0
8.916729375E0,-1.973181367E0,-1.024427176E0,-9.673882484E0
8.926442657E0,-1.956431627E0,-1.036391258E0,-9.681061745E0
8.936155157E0,-1.956431627E0,-1.038784146E0,-9.635597229E0
8.945866875E0,-1.954038739E0,-1.048355460E0,-9.628418922E0
8.955579375E0,-1.956431627E0,-1.057926655E0,-9.614062309E0
8.965292761E0,-1.966002941E0,-1.050748229E0,-9.633204460E0
8.975005261E0,-1.975574136E0,-1.048355460E0,-9.628418922E0
8.984716980E0,-1.999502420E0,-1.031605721E0,-9.635597229E0
8.994429480E0,-2.021037817E0,-1.019641519E0,-9.649954796E0
9.004142865E0,-2.030609131E0,-1.026820064E0,-9.666704178E0
9.013855313E0,-2.035394669E0,-1.026820064E0,-9.673882484E0
9.023567084E0,-2.021037817E0,-1.038784146E0,-9.666704178E0
9.033279584E0,-2.006680965E0,-1.069890857E0,-9.637990952E0
9.042992969E0,-1.989931107E0,-1.081854939E0,-9.621240616E0
9.052705417E0,-1.982752681E0,-1.093819022E0,-9.630811691E0
9.062417188E0,-1.992323995E0,-1.105783105E0,-9.645169258E0
9.072129688E0,-1.982752681E0,-1.112961650E0,-9.647562027E0
9.081843073E0,-1.970788598E0,-1.081854939E0,-9.673882484E0
9.091555521E0,-1.980359793E0,-1.067497969E0,-9.685847282E0
9.101267292E0,-1.975574136E0,-1.062712312E0,-9.666704178E0
9.110979792E0,-1.994716763E0,-1.048355460E0,-9.657133102E0
9.120693177E0,-1.999502420E0,-1.055533886E0,-9.661918640E0
9.130405625E0,-2.001895189E0,-1.050748229E0,-9.664311409E0
9.140117396E0,-1.997109652E0,-1.055533886E0,-9.666704178E0
9.149829896E0,-1.985145450E0,-1.072283626E0,-9.645169258E0
9.159543282E0,-1.980359793E0,-1.069890857E0,-9.635597229E0
9.169255730E0,-1.985145450E0,-1.072283626E0,-9.633204460E0
9.178967500E0,-1.985145450E0,-1.060319543E0,-9.633204460E0
9.188680000E0,-1.997109652E0,-1.057926655E0,-9.645169258E0
9.198393386E0,-1.997109652E0,-1.060319543E0,-9.640383720E0
9.208105834E0,-2.006680965E0,-1.053141117E0,-9.637990952E0
9.217817605E0,-1.999502420E0,-1.038784146E0,-9.637990952E0
9.227530105E0,-2.011466503E0,-1.041176915E0,-9.635597229E0
9.237243490E0,-1.999502420E0,-1.053141117E0,-9.640383720E0
9.246955938E0,-2.016252279E0,-1.048355460E0,-9.664311409E0
9.256667657E0,-1.999502420E0,-1.033998489E0,-9.669096947E0
9.266380261E0,-1.980359793E0,-1.019641519E0,-9.654740334E0
9.276093594E0,-1.966002941E0,-1.005284667E0,-9.654740334E0
9.285806042E0,-1.949253201E0,-1.022034407E0,-9.685847282E0
9.295517761E0,-1.951645970E0,-1.038784146E0,-9.697811127E0
9.305230365E0,-1.956431627E0,-1.057926655E0,-9.678668022E0
9.314943698E0,-1.973181367E0,-1.108175993E0,-9.652347565E0
9.324656146E0,-1.985145450E0,-1.122532964E0,-9.640383720E0
9.334367865E0,-1.980359793E0,-1.110568762E0,-9.630811691E0
9.344080469E0,-1.980359793E0,-1.112961650E0,-9.616455078E0
9.353793750E0,-2.009073734E0,-1.081854939E0,-9.633204460E0
9.363506250E0,-2.035394669E0,-1.074676514E0,-9.628418922E0
9.373217969E0,-2.037787676E0,-1.084247708E0,-9.635597229E0
9.382930573E0,-2.023430586E0,-1.086640596E0,-9.652347565E0
9.392643855E0,-2.013859272E0,-1.086640596E0,-9.657133102E0
9.402356355E0,-2.006680965E0,-1.079462171E0,-9.669096947E0
9.412068073E0,-2.004287958E0,-1.077069283E0,-9.669096947E0
9.421780677E0,-1.989931107E0,-1.077069283E0,-9.654740334E0
9.431493959E0,-1.989931107E0,-1.069890857E0,-9.640383720E0
9.441206459E0,-1.980359793E0,-1.045962572E0,-9.645169258E0
9.450918177E0,-1.973181367E0,-1.038784146E0,-9.642776489E0
9.460630677E0,-1.966002941E0,-1.038784146E0,-9.664311409E0
9.470344063E0,-1.973181367E0,-1.024427176E0,-9.664311409E0
9.480056563E0,-1.977967024E0,-1.012463093E0,-9.659525871E0
9.489768282E0,-1.987538338E0,-1.005284667E0,-9.652347565E0
9.499480782E0,-1.980359793E0,-1.012463093E0,-9.657133102E0
9.509194167E0,-1.980359793E0,-1.022034407E0,-9.642776489E0
9.518906667E0,-1.980359793E0,-1.043569803E0,-9.621240616E0
9.528618386E0,-1.975574136E0,-1.043569803E0,-9.640383720E0
9.538330886E0,-1.973181367E0,-1.038784146E0,-9.640383720E0
9.548044271E0,-1.992323995E0,-1.041176915E0,-9.661918640E0
9.557756719E0,-1.977967024E0,-1.017248750E0,-9.649954796E0
9.567468490E0,-1.982752681E0,-1.022034407E0,-9.664311409E0
9.577180990E0,-1.987538338E0,-1.045962572E0,-9.664311409E0
9.586894375E0,-1.987538338E0,-1.041176915E0,-9.645169258E0
9.596606823E0,-1.982752681E0,-1.069890857E0,-9.628418922E0
9.606318594E0,-1.982752681E0,-1.081854939E0,-9.604491234E0
9.616031094E0,-1.982752681E0,-1.091426253E0,-9.611669540E0
9.625744427E0,-1.973181367E0,-1.089033365E0,-9.618847847E0
9.635456927E0,-1.980359793E0,-1.060319543E0,-9.661918640E0
9.645168646E0,-2.001895189E0,-1.029212832E0,-9.669096947E0
9.654881250E0,-2.013859272E0,-1.026820064E0,-9.697811127E0
9.664594532E0,-2.023430586E0,-1.022034407E0,-9.716953278E0
9.674307032E0,-2.011466503E0,-1.036391258E0,-9.719346046E0
9.684018750E0,-1.982752681E0,-1.077069283E0,-9.700203896E0
9.693731355E0,-1.958824396E0,-1.091426253E0,-9.647562027E0
9.703444636E0,-1.963610053E0,-1.108175993E0,-9.606884003E0
9.713157136E0,-1.946860313E0,-1.108175993E0,-9.575777054E0
9.722868855E0,-1.956431627E0,-1.093819022E0,-9.580562592E0
9.732581355E0,-1.966002941E0,-1.086640596E0,-9.611669540E0
9.742294740E0,-1.987538338E0,-1.048355460E0,-9.649954796E0
9.752007240E0,-2.016252279E0,-1.041176915E0,-9.690632820E0
9.761718959E0,-2.013859272E0,-1.017248750E0,-9.695418358E0
9.771431459E0,-2.025823355E0,-1.038784146E0,-9.704989433E0
9.781144844E0,-2.006680965E0,-1.053141117E0,-9.664311409E0
9.790857292E0,-1.977967024E0,-1.062712312E0,-9.626026154E0
9.800569063E0,-1.968395710E0,-1.060319543E0,-9.604491234E0
9.810281563E0,-1.975574136E0,-1.067497969E0,-9.602098465E0
9.819994948E0,-1.999502420E0,-1.055533886E0,-9.628418922E0
9.829707396E0,-2.021037817E0,-1.053141117E0,-9.642776489E0
9.839419115E0,-2.018645048E0,-1.041176915E0,-9.681061745E0
9.849131719E0,-2.021037817E0,-1.050748229E0,-9.700203896E0
9.858845000E0,-2.016252279E0,-1.060319543E0,-9.681061745E0
9.868557500E0,-1.989931107E0,-1.060319543E0,-9.630811691E0
9.878269219E0,-1.968395710E0,-1.031605721E0,-9.630811691E0
9.887981823E0,-1.946860313E0,-1.038784146E0,-9.628418922E0
9.897695105E0,-1.944467545E0,-1.043569803E0,-9.647562027E0
9.907407605E0,-1.937289000E0,-1.069890857E0,-9.649954796E0
9.917119323E0,-1.942074656E0,-1.079462171E0,-9.645169258E0
9.926831823E0,-1.975574136E0,-1.093819022E0,-9.649954796E0
9.936545209E0,-1.985145450E0,-1.091426253E0,-9.671489716E0
9.946257657E0,-1.997109652E0,-1.081854939E0,-9.671489716E0
9.955969427E0,-2.009073734E0,-1.057926655E0,-9.669096947E0
9.965681927E0,-2.006680965E0,-1.060319543E0,-9.642776489E0
9.975395313E0,-2.001895189E0,-1.045962572E0,-9.642776489E0
9.985107761E0,-1.992323995E0,-1.069890857E0,-9.637990952E0
9.994819532E0,-1.982752681E0,-1.077069283E0,-9.626026154E0
1.000453203E1,-1.980359793E0,-1.081854939E0,-9.640383720E0
1.001424542E1,-1.975574136E0,-1.072283626E0,-9.664311409E0
1.002395786E1,-1.997109652E0,-1.074676514E0,-9.671489716E0
1.003366958E1,-1.987538338E0,-1.077069283E0,-9.649954796E0
1.004338219E1,-2.009073734E0,-1.081854939E0,-9.664311409E0
1.005309547E1,-2.001895189E0,-1.086640596E0,-9.685847282E0
1.006280797E1,-1.999502420E0,-1.077069283E0,-9.683454514E0
1.007251969E1,-2.013859272E0,-1.074676514E0,-9.657133102E0
1.008223229E1,-2.011466503E0,-1.045962572E0,-9.633204460E0
1.009194557E1,-2.009073734E0,-1.038784146E0,-9.621240616E0
1.010165807E1,-1.999502420E0,-1.036391258E0,-9.630811691E0
1.011136979E1,-1.999502420E0,-1.026820064E0,-9.640383720E0
1.012108240E1,-1.987538338E0,-1.022034407E0,-9.645169258E0
1.013079568E1,-1.989931107E0,-1.026820064E0,-9.673882484E0
1.014050812E1,-1.994716763E0,-1.024427176E0,-9.664311409E0
1.015021990E1,-1.989931107E0,-1.019641519E0,-9.652347565E0
1.015993240E1,-1.997109652E0,-1.041176915E0,-9.637990952E0
1.016964578E1,-1.987538338E0,-1.048355460E0,-9.640383720E0
1.017935823E1,-1.975574136E0,-1.057926655E0,-9.654740334E0
1.018907000E1,-1.961217284E0,-1.065105200E0,-9.654740334E0
1.019878250E1,-1.977967024E0,-1.069890857E0,-9.659525871E0
1.020849589E1,-1.982752681E0,-1.067497969E0,-9.676275253E0
1.021820833E1,-1.985145450E0,-1.055533886E0,-9.695418358E0
1.022792005E1,-1.973181367E0,-1.062712312E0,-9.693025589E0
1.023763266E1,-1.961217284E0,-1.062712312E0,-9.690632820E0
1.024734594E1,-1.968395710E0,-1.074676514E0,-9.669096947E0
1.025705844E1,-1.956431627E0,-1.081854939E0,-9.654740334E0
1.026677016E1,-1.946860313E0,-1.100997567E0,-9.649954796E0
1.027648276E1,-1.934896231E0,-1.096211910E0,-9.652347565E0
1.028619604E1,-1.932503343E0,-1.074676514E0,-9.647562027E0
1.029590854E1,-1.963610053E0,-1.050748229E0,-9.652347565E0
1.030562026E1,-1.975574136E0,-1.024427176E0,-9.661918640E0
1.031533276E1,-2.011466503E0,-1.014855862E0,-9.669096947E0
1.032504615E1,-2.021037817E0,-1.010070205E0,-9.709774971E0
1.033475859E1,-2.016252279E0,-1.029212832E0,-9.685847282E0
1.034447037E1,-1.999502420E0,-1.045962572E0,-9.669096947E0
1.035418286E1,-1.982752681E0,-1.067497969E0,-9.635597229E0
1.036389625E1,-1.977967024E0,-1.065105200E0,-9.611669540E0
1.037360870E1,-1.977967024E0,-1.060319543E0,-9.618847847E0
1.038332047E1,-1.968395710E0,-1.031605721E0,-9.637990952E0
1.039303297E1,-2.006680965E0,-1.036391258E0,-9.669096947E0
1.040274636E1,-2.016252279E0,-1.045962572E0,-9.690632820E0
1.041245880E1,-2.030609131E0,-1.055533886E0,-9.712167740E0
1.042217057E1,-2.037787676E0,-1.062712312E0,-9.731310844E0
1.043188307E1,-2.040180445E0,-1.084247708E0,-9.712167740E0
1.044159646E1,-2.035394669E0,-1.103390336E0,-9.637990952E0
1.045130891E1,-2.013859272E0,-1.091426253E0,-9.590133667E0
1.046102068E1,-1.989931107E0,-1.074676514E0,-9.599705696E0
1.047073318E1,-1.992323995E0,-1.055533886E0,-9.626026154E0
1.048044656E1,-1.982752681E0,-1.038784146E0,-9.654740334E0
1.049015901E1,-1.980359793E0,-1.031605721E0,-9.678668022E0
1.049987078E1,-1.997109652E0,-1.041176915E0,-9.683454514E0
1.050958328E1,-1.999502420E0,-1.048355460E0,-9.671489716E0
1.051929667E1,-1.987538338E0,-1.060319543E0,-9.661918640E0
1.052900912E1,-1.977967024E0,-1.069890857E0,-9.666704178E0
1.053872083E1,-1.982752681E0,-1.079462171E0,-9.673882484E0
1.054843344E1,-1.973181367E0,-1.074676514E0,-9.654740334E0
1.055814677E1,-1.966002941E0,-1.067497969E0,-9.654740334E0
1.056785922E1,-1.975574136E0,-1.065105200E0,-9.633204460E0
1.057757094E1,-1.977967024E0,-1.065105200E0,-9.654740334E0
1.058728354E1,-2.011466503E0,-1.038784146E0,-9.673882484E0
1.059699688E1,-2.009073734E0,-1.041176915E0,-9.676275253E0
1.060670932E1,-1.992323995E0,-1.043569803E0,-9.669096947E0
1.061642104E1,-1.970788598E0,-1.048355460E0,-9.647562027E0
1.062613365E1,-1.973181367E0,-1.062712312E0,-9.661918640E0
1.063584698E1,-1.956431627E0,-1.057926655E0,-9.661918640E0
1.064555943E1,-1.963610053E0,-1.053141117E0,-9.649954796E0
1.065527115E1,-1.987538338E0,-1.053141117E0,-9.664311409E0
1.066498375E1,-1.989931107E0,-1.053141117E0,-9.659525871E0
1.067469708E1,-1.997109652E0,-1.053141117E0,-9.657133102E0
1.068440953E1,-2.006680965E0,-1.050748229E0,-9.671489716E0
1.069412125E1,-1.999502420E0,-1.053141117E0,-9.669096947E0
1.070383386E1,-2.001895189E0,-1.050748229E0,-9.649954796E0
1.071354719E1,-1.994716763E0,-1.043569803E0,-9.652347565E0
1.072325964E1,-2.001895189E0,-1.041176915E0,-9.635597229E0
1.073297141E1,-1.997109652E0,-1.031605721E0,-9.635597229E0
1.074268391E1,-1.982752681E0,-1.024427176E0,-9.654740334E0
1.075239729E1,-1.982752681E0,-1.019641519E0,-9.661918640E0
1.076210974E1,-1.985145450E0,-1.029212832E0,-9.669096947E0
1.077182151E1,-1.997109652E0,-1.041176915E0,-9.673882484E0
1.078153401E1,-1.982752681E0,-1.065105200E0,-9.664311409E0
1.079124740E1,-1.975574136E0,-1.067497969E0,-9.671489716E0
1.080095984E1,-1.982752681E0,-1.093819022E0,-9.657133102E0
1.081067162E1,-1.966002941E0,-1.086640596E0,-9.661918640E0
1.082038412E1,-1.968395710E0,-1.096211910E0,-9.671489716E0
1.083009750E1,-1.973181367E0,-1.062712312E0,-9.669096947E0
1.083980995E1,-1.977967024E0,-1.043569803E0,-9.673882484E0
1.084952172E1,-1.985145450E0,-1.036391258E0,-9.671489716E0
1.085923422E1,-1.987538338E0,-1.033998489E0,-9.652347565E0
1.086894760E1,-1.963610053E0,-1.038784146E0,-9.649954796E0
1.087866005E1,-1.966002941E0,-1.053141117E0,-9.637990952E0
1.088837182E1,-1.954038739E0,-1.050748229E0,-9.633204460E0
1.089808432E1,-1.954038739E0,-1.060319543E0,-9.637990952E0
1.090779771E1,-1.987538338E0,-1.043569803E0,-9.657133102E0
1.091751021E1,-1.997109652E0,-1.041176915E0,-9.676275253E0
1.092722193E1,-1.968395710E0,-1.081854939E0,-9.688240051E0
1.093693453E1,-1.987538338E0,-1.084247708E0,-9.697811127E0
1.094664781E1,-2.016252279E0,-1.072283626E0,-9.683454514E0
1.095636031E1,-2.025823355E0,-1.057926655E0,-9.645169258E0
1.096607203E1,-1.997109652E0,-1.069890857E0,-9.626026154E0
1.097578464E1,-1.994716763E0,-1.055533886E0,-9.640383720E0
1.098549792E1,-2.013859272E0,-1.065105200E0,-9.659525871E0
1.099521042E1,-1.997109652E0,-1.081854939E0,-9.676275253E0
1.100492214E1,-1.992323995E0,-1.093819022E0,-9.661918640E0
1.101463474E1,-1.994716763E0,-1.081854939E0,-9.635597229E0
1.102434802E1,-1.975574136E0,-1.069890857E0,-9.633204460E0
1.103406052E1,-1.985145450E0,-1.045962572E0,-9.652347565E0
1.104377224E1,-1.992323995E0,-1.045962572E0,-9.683454514E0
1.105348484E1,-1.975574136E0,-1.048355460E0,-9.695418358E0
1.106319818E1,-1.989931107E0,-1.050748229E0,-9.673882484E0
1.107291062E1,-1.989931107E0,-1.062712312E0,-9.645169258E0
1.108262234E1,-1.994716763E0,-1.053141117E0,-9.623633385E0
1.109233495E1,-2.006680965E0,-1.043569803E0,-9.623633385E0
1.110204828E1,-2.001895189E0,-1.043569803E0,-9.635597229E0
1.111176073E1,-2.001895189E0,-1.055533886E0,-9.647562027E0
1.112147250E1,-2.009073734E0,-1.053141117E0,-9.654740334E0
1.113118500E1,-1.985145450E0,-1.067497969E0,-9.657133102E0
1.114089839E1,-1.975574136E0,-1.067497969E0,-9.669096947E0
1.115061083E1,-1.982752681E0,-1.057926655E0,-9.645169258E0
1.116032261E1,-1.968395710E0,-1.053141117E0,-9.661918640E0
1.117003510E1,-1.980359793E0,-1.057926655E0,-9.664311409E0
1.117974849E1,-1.977967024E0,-1.055533886E0,-9.659525871E0
1.118946099E1,-1.977967024E0,-1.045962572E0,-9.640383720E0
1.119917271E1,-1.977967024E0,-1.033998489E0,-9.659525871E0
1.120888521E1,-1.994716763E0,-1.050748229E0,-9.676275253E0
1.121859859E1,-1.992323995E0,-1.045962572E0,-9.664311409E0
1.122831109E1,-1.989931107E0,-1.048355460E0,-9.657133102E0
1.123802281E1,-1.975574136E0,-1.045962572E0,-9.649954796E0
1.124773542E1,-1.956431627E0,-1.055533886E0,-9.633204460E0
1.125744870E1,-1.958824396E0,-1.055533886E0,-9.621240616E0
1.126716120E1,-1.949253201E0,-1.057926655E0,-9.637990952E0
1.127687292E1,-1.966002941E0,-1.062712312E0,-9.657133102E0
1.128658552E1,-1.970788598E0,-1.053141117E0,-9.676275253E0
1.129629880E1,-1.982752681E0,-1.045962572E0,-9.671489716E0
1.130601130E1,-2.018645048E0,-1.022034407E0,-9.676275253E0
1.131572302E1,-2.001895189E0,-1.017248750E0,-9.676275253E0
1.132543562E1,-1.987538338E0,-1.072283626E0,-9.676275253E0
1.133514891E1,-1.989931107E0,-1.089033365E0,-9.659525871E0
1.134486141E1,-2.006680965E0,-1.089033365E0,-9.637990952E0
1.135457318E1,-1.982752681E0,-1.096211910E0,-9.626026154E0
1.136428568E1,-1.980359793E0,-1.096211910E0,-9.635597229E0
1.137399906E1,-1.973181367E0,-1.081854939E0,-9.647562027E0
1.138371151E1,-1.992323995E0,-1.072283626E0,-9.657133102E0
1.139342328E1,-1.994716763E0,-1.065105200E0,-9.652347565E0
1.140313578E1,-1.980359793E0,-1.079462171E0,-9.657133102E0
1.141284917E1,-1.980359793E0,-1.096211910E0,-9.654740334E0
1.142256162E1,-2.011466503E0,-1.089033365E0,-9.652347565E0
1.143227339E1,-2.016252279E0,-1.062712312E0,-9.657133102E0
1.144198589E1,-2.013859272E0,-1.067497969E0,-9.647562027E0
1.145169927E1,-2.023430586E0,-1.050748229E0,-9.664311409E0
1.146141177E1,-2.001895189E0,-1.043569803E0,-9.661918640E0
1.147112349E1,-2.006680965E0,-1.053141117E0,-9.659525871E0
1.148083599E1,-1.997109652E0,-1.057926655E0,-9.642776489E0
1.149054938E1,-1.992323995E0,-1.072283626E0,-9.642776489E0
1.150026188E1,-1.966002941E0,-1.074676514E0,-9.630811691E0
1.150997359E1,-1.951645970E0,-1.067497969E0,-9.652347565E0
1.151968620E1,-1.956431627E0,-1.062712312E0,-9.652347565E0
1.152939948E1,-1.958824396E0,-1.045962572E0,-9.659525871E0
1.153911198E1,-1.951645970E0,-1.045962572E0,-9.642776489E0
1.154882370E1,-1.956431627E0,-1.053141117E0,-9.661918640E0
1.155853630E1,-1.963610053E0,-1.060319543E0,-9.681061745E0
1.156824958E1,-1.961217284E0,-1.091426253E0,-9.693025589E0
1.157796208E1,-1.977967024E0,-1.115354419E0,-9.676275253E0
1.158767380E1,-1.970788598E0,-1.100997567E0,-9.633204460E0
1.159738641E1,-1.975574136E0,-1.081854939E0,-9.618847847E0
1.160709974E1,-1.980359793E0,-1.055533886E0,-9.633204460E0
1.161681219E1,-1.975574136E0,-1.043569803E0,-9.654740334E0
1.162652396E1,-1.970788598E0,-1.029212832E0,-9.669096947E0
1.163623646E1,-1.977967024E0,-1.038784146E0,-9.661918640E0
1.164594984E1,-1.985145450E0,-1.045962572E0,-9.647562027E0
1.165566229E1,-1.982752681E0,-1.055533886E0,-9.635597229E0
1.166537406E1,-1.982752681E0,-1.060319543E0,-9.637990952E0
1.167508656E1,-2.006680965E0,-1.057926655E0,-9.633204460E0
1.168479995E1,-1.987538338E0,-1.055533886E0,-9.635597229E0
1.169451240E1,-1.985145450E0,-1.067497969E0,-9.652347565E0
1.170422417E1,-1.975574136E0,-1.062712312E0,-9.657133102E0
1.171393667E1,-1.977967024E0,-1.077069283E0,-9.654740334E0
1.172365005E1,-1.992323995E0,-1.081854939E0,-9.669096947E0
1.173336255E1,-1.989931107E0,-1.091426253E0,-9.671489716E0
1.174307427E1,-1.982752681E0,-1.091426253E0,-9.666704178E0
1.175278677E1,-1.973181367E0,-1.089033365E0,-9.647562027E0
1.176250016E1,-1.970788598E0,-1.077069283E0,-9.635597229E0
1.177221266E1,-1.977967024E0,-1.084247708E0,-9.640383720E0
1.178192438E1,-1.980359793E0,-1.086640596E0,-9.642776489E0
1.179163698E1,-1.997109652E0,-1.072283626E0,-9.652347565E0
1.180135026E1,-1.985145450E0,-1.053141117E0,-9.649954796E0
1.181106276E1,-1.989931107E0,-1.045962572E0,-9.654740334E0
1.182077448E1,-1.977967024E0,-1.053141117E0,-9.666704178E0
1.183048708E1,-1.970788598E0,-1.055533886E0,-9.664311409E0
1.184020037E1,-1.954038739E0,-1.072283626E0,-9.664311409E0
1.184991286E1,-1.970788598E0,-1.084247708E0,-9.645169258E0
1.185962458E1,-1.961217284E0,-1.081854939E0,-9.642776489E0
1.186933719E1,-1.951645970E0,-1.072283626E0,-9.633204460E0
1.187905052E1,-1.951645970E0,-1.050748229E0,-9.640383720E0
1.188876297E1,-1.975574136E0,-1.041176915E0,-9.642776489E0
1.189847469E1,-1.973181367E0,-1.036391258E0,-9.661918640E0
1.190818729E1,-2.004287958E0,-1.033998489E0,-9.669096947E0
1.191790063E1,-2.006680965E0,-1.045962572E0,-9.671489716E0
1.192761307E1,-1.997109652E0,-1.055533886E0,-9.669096947E0
1.193732484E1,-1.987538338E0,-1.062712312E0,-9.652347565E0
1.194703734E1,-1.977967024E0,-1.089033365E0,-9.635597229E0
1.195675073E1,-1.970788598E0,-1.096211910E0,-9.647562027E0
1.196646318E1,-1.970788598E0,-1.098604679E0,-9.654740334E0
1.197617495E1,-1.977967024E0,-1.089033365E0,-9.661918640E0
1.198588745E1,-1.987538338E0,-1.077069283E0,-9.661918640E0
1.199560083E1,-1.987538338E0,-1.079462171E0,-9.649954796E0
1.200531328E1,-1.980359793E0,-1.081854939E0,-9.647562027E0
1.201502505E1,-1.963610053E0,-1.084247708E0,-9.649954796E0
1.202473755E1,-1.961217284E0,-1.084247708E0,-9.649954796E0
1.203445094E1,-1.954038739E0,-1.065105200E0,-9.654740334E0
1.204416344E1,-1.970788598E0,-1.065105200E0,-9.661918640E0
1.205387516E1,-1.968395710E0,-1.060319543E0,-9.671489716E0
1.206358776E1,-1.963610053E0,-1.060319543E0,-9.659525871E0
1.207330104E1,-1.956431627E0,-1.077069283E0,-9.647562027E0
1.208301354E1,-1.963610053E0,-1.057926655E0,-9.661918640E0
1.209272526E1,-1.970788598E0,-1.057926655E0,-9.654740334E0
1.210243786E1,-1.987538338E0,-1.055533886E0,-9.661918640E0
1.211215115E1,-1.977967024E0,-1.045962572E0,-9.645169258E0
1.212186365E1,-1.989931107E0,-1.043569803E0,-9.635597229E0
1.213157537E1,-1.987538338E0,-1.043569803E0,-9.635597229E0
1.214128797E1,-1.985145450E0,-1.048355460E0,-9.661918640E0
1.215100125E1,-1.989931107E0,-1.069890857E0,-9.688240051E0
1.216071375E1,-1.994716763E0,-1.091426253E0,-9.707382202E0
1.217042547E1,-1.992323995E0,-1.091426253E0,-9.661918640E0
1.218013807E1,-1.997109652E0,-1.077069283E0,-9.642776489E0
1.218985141E1,-1.973181367E0,-1.067497969E0,-9.635597229E0
1.219956386E1,-1.970788598E0,-1.057926655E0,-9.647562027E0
1.220927562E1,-1.977967024E0,-1.053141117E0,-9.669096947E0
1.221898813E1,-1.973181367E0,-1.057926655E0,-9.664311409E0
1.222870151E1,-1.989931107E0,-1.050748229E0,-9.647562027E0
1.223841396E1,-1.982752681E0,-1.048355460E0,-9.647562027E0
1.224812568E1,-1.980359793E0,-1.060319543E0,-9.647562027E0
1.225783828E1,-1.989931107E0,-1.060319543E0,-9.645169258E0
1.226755162E1,-1.992323995E0,-1.060319543E0,-9.652347565E0
1.227726406E1,-1.982752681E0,-1.079462171E0,-9.652347565E0
1.228697583E1,-1.987538338E0,-1.086640596E0,-9.666704178E0
1.229668833E1,-1.977967024E0,-1.091426253E0,-9.659525871E0
1.230640172E1,-1.987538338E0,-1.096211910E0,-9.659525871E0
1.231611422E1,-1.987538338E0,-1.077069283E0,-9.671489716E0
1.232582594E1,-1.987538338E0,-1.060319543E0,-9.669096947E0
1.233553844E1,-1.999502420E0,-1.057926655E0,-9.657133102E0
1.234525182E1,-2.009073734E0,-1.045962572E0,-9.661918640E0
1.235496432E1,-2.013859272E0,-1.045962572E0,-9.681061745E0
1.236467604E1,-1.997109652E0,-1.055533886E0,-9.688240051E0
1.237438865E1,-1.982752681E0,-1.057926655E0,-9.664311409E0
1.238410193E1,-1.987538338E0,-1.072283626E0,-9.645169258E0
1.239381443E1,-1.987538338E0,-1.074676514E0,-9.637990952E0
1.240352615E1,-1.975574136E0,-1.077069283E0,-9.630811691E0
1.241323875E1,-1.970788598E0,-1.077069283E0,-9.640383720E0
1.242295208E1,-1.954038739E0,-1.072283626E0,-9.654740334E0
1.243266453E1,-1.951645970E0,-1.053141117E0,-9.652347565E0
1.244237630E1,-1.963610053E0,-1.024427176E0,-9.661918640E0
1.245208880E1,-1.968395710E0,-1.022034407E0,-9.678668022E0
1.246180219E1,-1.980359793E0,-1.022034407E0,-9.688240051E0
1.247151464E1,-1.985145450E0,-1.029212832E0,-9.685847282E0
1.248122641E1,-1.985145450E0,-1.050748229E0,-9.678668022E0
1.249093891E1,-1.966002941E0,-1.079462171E0,-9.642776489E0
1.250065229E1,-1.970788598E0,-1.084247708E0,-9.635597229E0
1.251036479E1,-1.980359793E0,-1.084247708E0,-9.647562027E0
1.252007651E1,-1.985145450E0,-1.074676514E0,-9.647562027E0
1.252978912E1,-1.994716763E0,-1.062712312E0,-9.664311409E0
1.253950240E1,-2.001895189E0,-1.057926655E0,-9.659525871E0
1.254921490E1,-1.999502420E0,-1.055533886E0,-9.657133102E0
1.255892662E1,-1.992323995E0,-1.053141117E0,-9.652347565E0
1.256863922E1,-1.975574136E0,-1.048355460E0,-9.666704178E0
1.257835255E1,-1.973181367E0,-1.055533886E0,-9.657133102E0
1.258806500E1,-1.968395710E0,-1.067497969E0,-9.666704178E0
1.259777672E1,-1.980359793E0,-1.069890857E0,-9.659525871E0
1.260748932E1,-1.968395710E0,-1.065105200E0,-9.637990952E0
1.261720266E1,-1.966002941E0,-1.079462171E0,-9.640383720E0
1.262691510E1,-1.966002941E0,-1.069890857E0,-9.630811691E0
1.263662688E1,-1.966002941E0,-1.081854939E0,-9.635597229E0
1.264633938E1,-1.982752681E0,-1.084247708E0,-9.657133102E0
1.265605276E1,-1.985145450E0,-1.089033365E0,-9.664311409E0
1.266576526E1,-1.999502420E0,-1.086640596E0,-9.654740334E0
1.267547698E1,-1.975574136E0,-1.081854939E0,-9.654740334E0
1.268518958E1,-1.963610053E0,-1.072283626E0,-9.642776489E0
1.269490287E1,-1.961217284E0,-1.069890857E0,-9.673882484E0
1.270461536E1,-1.970788598E0,-1.050748229E0,-9.693025589E0
1.271432708E1,-1.980359793E0,-1.014855862E0,-9.707382202E0
1.272403969E1,-2.001895189E0,-1.007677436E0,-9.688240051E0
1.273375302E1,-2.004287958E0,-1.031605721E0,-9.676275253E0
1.274346547E1,-1.997109652E0,-1.041176915E0,-9.685847282E0
1.275317724E1,-1.970788598E0,-1.086640596E0,-9.690632820E0
1.276288974E1,-1.961217284E0,-1.108175993E0,-9.652347565E0
1.277260313E1,-1.968395710E0,-1.096211910E0,-9.597312927E0
1.278231562E1,-1.977967024E0,-1.048355460E0,-9.582955360E0
1.279202734E1,-1.975574136E0,-1.012463093E0,-9.606884003E0
1.280173995E1,-1.980359793E0,-1.005284667E0,-9.676275253E0
1.281145323E1,-1.982752681E0,-1.010070205E0,-9.695418358E0
1.282116573E1,-1.977967024E0,-1.031605721E0,-9.693025589E0
1.283087745E1,-1.980359793E0,-1.062712312E0,-9.673882484E0
1.284059005E1,-1.975574136E0,-1.096211910E0,-9.657133102E0
1.285030339E1,-1.985145450E0,-1.117747307E0,-9.649954796E0
1.286001583E1,-1.989931107E0,-1.115354419E0,-9.637990952E0
1.286972761E1,-1.982752681E0,-1.110568762E0,-9.633204460E0
1.287944010E1,-1.992323995E0,-1.112961650E0,-9.645169258E0
1.288915349E1,-1.997109652E0,-1.100997567E0,-9.659525871E0
1.289886594E1,-1.997109652E0,-1.098604679E0,-9.664311409E0
1.290857771E1,-1.989931107E0,-1.089033365E0,-9.671489716E0
1.291829031E1,-1.982752681E0,-1.072283626E0,-9.673882484E0
1.292800359E1,-1.966002941E0,-1.069890857E0,-9.664311409E0
1.293771609E1,-1.973181367E0,-1.067497969E0,-9.649954796E0
1.294742781E1,-1.968395710E0,-1.069890857E0,-9.640383720E0
1.295714042E1,-1.966002941E0,-1.077069283E0,-9.654740334E0
1.296685375E1,-1.980359793E0,-1.055533886E0,-9.664311409E0
1.297656620E1,-1.985145450E0,-1.033998489E0,-9.669096947E0
1.298627797E1,-1.994716763E0,-1.026820064E0,-9.652347565E0
1.299599047E1,-1.994716763E0,-1.005284667E0,-9.642776489E0
1.300570386E1,-1.989931107E0,-1.002891779E0,-9.647562027E0
1.301541636E1,-1.987538338E0,-1.019641519E0,-9.666704178E0
1.302512807E1,-1.973181367E0,-1.022034407E0,-9.657133102E0
1.303484068E1,-1.980359793E0,-1.038784146E0,-9.645169258E0
1.304455396E1,-1.973181367E0,-1.048355460E0,-9.618847847E0
1.305426646E1,-1.968395710E0,-1.057926655E0,-9.621240616E0
1.306397818E1,-1.973181367E0,-1.065105200E0,-9.616455078E0
1.307369078E1,-1.985145450E0,-1.067497969E0,-9.628418922E0
1.308340412E1,-1.999502420E0,-1.079462171E0,-9.659525871E0
1.309311656E1,-2.001895189E0,-1.096211910E0,-9.661918640E0
1.310282833E1,-1.989931107E0,-1.067497969E0,-9.673882484E0
1.311254083E1,-2.001895189E0,-1.077069283E0,-9.669096947E0
1.312225422E1,-1.985145450E0,-1.089033365E0,-9.673882484E0
1.313196672E1,-1.985145450E0,-1.074676514E0,-9.681061745E0
1.314167844E1,-1.980359793E0,-1.084247708E0,-9.676275253E0
1.315139104E1,-1.973181367E0,-1.072283626E0,-9.657133102E0
1.316110432E1,-1.968395710E0,-1.089033365E0,-9.657133102E0
1.317081682E1,-1.985145450E0,-1.079462171E0,-9.654740334E0
1.318052859E1,-1.973181367E0,-1.074676514E0,-9.666704178E0
1.319024109E1,-1.963610053E0,-1.060319543E0,-9.664311409E0
1.319995448E1,-1.958824396E0,-1.050748229E0,-9.649954796E0
1.320966698E1,-1.958824396E0,-1.060319543E0,-9.633204460E0
1.321937870E1,-1.932503343E0,-1.062712312E0,-9.642776489E0
1.322909130E1,-1.937289000E0,-1.050748229E0,-9.649954796E0
1.323880458E1,-1.927717686E0,-1.053141117E0,-9.637990952E0
1.324851708E1,-1.939681888E0,-1.055533886E0,-9.642776489E0
1.325822880E1,-1.958824396E0,-1.060319543E0,-9.642776489E0
1.326794141E1,-1.966002941E0,-1.057926655E0,-9.659525871E0
1.327765474E1,-1.977967024E0,-1.067497969E0,-9.673882484E0
1.328736719E1,-2.009073734E0,-1.079462171E0,-9.669096947E0
1.329707896E1,-2.023430586E0,-1.098604679E0,-9.673882484E0
1.330679146E1,-2.052144527E0,-1.089033365E0,-9.673882484E0
1.331650484E1,-2.049751759E0,-1.072283626E0,-9.657133102E0
1.332621734E1,-2.061715841E0,-1.060319543E0,-9.654740334E0
1.333592906E1,-2.040180445E0,-1.072283626E0,-9.654740334E0
1.334564167E1,-2.028216362E0,-1.074676514E0,-9.666704178E0
1.335535495E1,-1.999502420E0,-1.086640596E0,-9.664311409E0
1.336506745E1,-1.980359793E0,-1.112961650E0,-9.664311409E0
1.337477917E1,-1.958824396E0,-1.127318621E0,-9.618847847E0
1.338449177E1,-1.946860313E0,-1.110568762E0,-9.594920158E0
1.339420511E1,-1.963610053E0,-1.086640596E0,-9.618847847E0
1.340391755E1,-1.958824396E0,-1.055533886E0,-9.661918640E0
1.341362932E1,-1.961217284E0,-1.026820064E0,-9.690632820E0
1.342334182E1,-1.973181367E0,-1.014855862E0,-9.685847282E0
1.343305521E1,-1.982752681E0,-1.014855862E0,-9.688240051E0
1.344276771E1,-1.977967024E0,-1.043569803E0,-9.669096947E0
1.345247943E1,-1.975574136E0,-1.053141117E0,-9.633204460E0
1.346219203E1,-1.992323995E0,-1.065105200E0,-9.614062309E0
1.347190537E1,-1.994716763E0,-1.057926655E0,-9.611669540E0
1.348161781E1,-2.001895189E0,-1.062712312E0,-9.628418922E0
1.349132958E1,-1.985145450E0,-1.055533886E0,-9.669096947E0
1.350104208E1,-1.977967024E0,-1.069890857E0,-9.664311409E0
1.351075547E1,-1.961217284E0,-1.062712312E0,-9.661918640E0
1.352046792E1,-1.975574136E0,-1.072283626E0,-9.661918640E0
1.353017969E1,-1.980359793E0,-1.062712312E0,-9.630811691E0
1.353989229E1,-1.982752681E0,-1.074676514E0,-9.640383720E0
1.354960557E1,-1.977967024E0,-1.086640596E0,-9.637990952E0
1.355931807E1,-1.985145450E0,-1.089033365E0,-9.657133102E0
1.356902979E1,-1.989931107E0,-1.072283626E0,-9.664311409E0
1.357874240E1,-1.994716763E0,-1.053141117E0,-9.671489716E0
1.358845573E1,-2.006680965E0,-1.026820064E0,-9.661918640E0
1.359816818E1,-1.997109652E0,-1.029212832E0,-9.666704178E0
1.360787995E1,-1.982752681E0,-1.036391258E0,-9.664311409E0
1.361759245E1,-1.966002941E0,-1.055533886E0,-9.649954796E0
1.362730583E1,-1.944467545E0,-1.069890857E0,-9.626026154E0
1.363701833E1,-1.954038739E0,-1.081854939E0,-9.618847847E0
1.364673005E1,-1.954038739E0,-1.089033365E0,-9.618847847E0
1.365644266E1,-1.966002941E0,-1.086640596E0,-9.633204460E0
1.366615594E1,-1.989931107E0,-1.065105200E0,-9.654740334E0
1.367586844E1,-1.992323995E0,-1.053141117E0,-9.657133102E0
1.368558016E1,-2.009073734E0,-1.045962572E0,-9.659525871E0
1.369529276E1,-2.009073734E0,-1.031605721E0,-9.666704178E0
1.370500609E1,-1.999502420E0,-1.041176915E0,-9.671489716E0
1.371471854E1,-1.985145450E0,-1.041176915E0,-9.654740334E0
1.372443031E1,-1.975574136E0,-1.060319543E0,-9.671489716E0
1.373414281E1,-1.961217284E0,-1.060319543E0,-9.654740334E0
1.374385620E1,-1.954038739E0,-1.077069283E0,-9.661918640E0
1.375356870E1,-1.966002941E0,-1.062712312E0,-9.666704178E0
1.376328042E1,-1.954038739E0,-1.086640596E0,-9.654740334E0
1.377299302E1,-1.961217284E0,-1.074676514E0,-9.645169258E0
1.378270636E1,-1.968395710E0,-1.079462171E0,-9.633204460E0
1.379241880E1,-1.985145450E0,-1.079462171E0,-9.635597229E0
1.380213057E1,-1.982752681E0,-1.065105200E0,-9.630811691E0
1.381184307E1,-1.992323995E0,-1.062712312E0,-9.623633385E0
1.382155646E1,-1.997109652E0,-1.055533886E0,-9.628418922E0
1.383126896E1,-1.997109652E0,-1.043569803E0,-9.659525871E0
1.384098068E1,-2.001895189E0,-1.050748229E0,-9.664311409E0
1.385069328E1,-1.989931107E0,-1.050748229E0,-9.681061745E0
1.386040656E1,-1.997109652E0,-1.045962572E0,-9.690632820E0
1.387011906E1,-1.985145450E0,-1.074676514E0,-9.676275253E0
1.387983078E1,-1.954038739E0,-1.091426253E0,-9.661918640E0
1.388954339E1,-1.956431627E0,-1.103390336E0,-9.630811691E0
1.389925672E1,-1.963610053E0,-1.105783105E0,-9.626026154E0
1.390896917E1,-1.982752681E0,-1.100997567E0,-9.635597229E0
1.391868094E1,-1.994716763E0,-1.084247708E0,-9.647562027E0
1.392839344E1,-2.018645048E0,-1.079462171E0,-9.661918640E0
1.393810682E1,-2.023430586E0,-1.069890857E0,-9.661918640E0
1.394781932E1,-2.013859272E0,-1.069890857E0,-9.664311409E0
1.395753104E1,-2.023430586E0,-1.079462171E0,-9.666704178E0
1.396724365E1,-2.001895189E0,-1.105783105E0,-9.678668022E0
1.397695693E1,-1.977967024E0,-1.100997567E0,-9.664311409E0
1.398666943E1,-1.966002941E0,-1.093819022E0,-9.628418922E0
1.399638115E1,-1.949253201E0,-1.067497969E0,-9.575777054E0
1.400609375E1,-1.973181367E0,-1.038784146E0,-9.604491234E0
1.401580708E1,-1.982752681E0,-1.017248750E0,-9.652347565E0
1.402551953E1,-1.992323995E0,-1.010070205E0,-9.681061745E0
1.403523130E1,-1.982752681E0,-1.007677436E0,-9.709774971E0
1.404494380E1,-1.987538338E0,-1.012463093E0,-9.683454514E0
1.405465719E1,-1.992323995E0,-1.033998489E0,-9.661918640E0
1.406436969E1,-1.997109652E0,-1.043569803E0,-9.635597229E0
1.407408141E1,-1.973181367E0,-1.079462171E0,-9.614062309E0
1.408379401E1,-1.958824396E0,-1.089033365E0,-9.621240616E0
1.409350729E1,-1.956431627E0,-1.105783105E0,-9.618847847E0
1.410321979E1,-1.958824396E0,-1.098604679E0,-9.621240616E0
1.411293151E1,-1.966002941E0,-1.077069283E0,-9.647562027E0
1.412264412E1,-1.987538338E0,-1.055533886E0,-9.669096947E0
1.413235745E1,-2.004287958E0,-1.031605721E0,-9.700203896E0
1.414206990E1,-2.013859272E0,-1.029212832E0,-9.704989433E0
1.415178167E1,-1.999502420E0,-1.043569803E0,-9.693025589E0
1.416149417E1,-1.973181367E0,-1.060319543E0,-9.642776489E0
1.417120755E1,-1.961217284E0,-1.086640596E0,-9.606884003E0
1.418092005E1,-1.963610053E0,-1.072283626E0,-9.616455078E0
1.419063177E1,-1.951645970E0,-1.089033365E0,-9.633204460E0
1.420034438E1,-1.970788598E0,-1.079462171E0,-9.647562027E0
1.421005771E1,-1.980359793E0,-1.081854939E0,-9.652347565E0
1.421977016E1,-1.994716763E0,-1.072283626E0,-9.669096947E0
1.422948188E1,-1.992323995E0,-1.062712312E0,-9.681061745E0
1.423919448E1,-1.989931107E0,-1.050748229E0,-9.659525871E0
1.424890781E1,-1.985145450E0,-1.031605721E0,-9.649954796E0
1.425862026E1,-1.975574136E0,-1.029212832E0,-9.645169258E0
1.426833203E1,-1.980359793E0,-1.026820064E0,-9.630811691E0
1.427804453E1,-1.963610053E0,-1.019641519E0,-9.649954796E0
1.428775792E1,-1.956431627E0,-1.036391258E0,-9.649954796E0
1.429747042E1,-1.961217284E0,-1.043569803E0,-9.654740334E0
1.430718214E1,-1.949253201E0,-1.053141117E0,-9.664311409E0
1.431689474E1,-1.949253201E0,-1.077069283E0,-9.645169258E0
1.432660802E1,-1.949253201E0,-1.096211910E0,-9.649954796E0
1.433632052E1,-1.961217284E0,-1.103390336E0,-9.649954796E0
1.434603224E1,-1.980359793E0,-1.098604679E0,-9.652347565E0
1.435574484E1,-1.985145450E0,-1.093819022E0,-9.657133102E0
1.436545818E1,-2.013859272E0,-1.098604679E0,-9.647562027E0
1.437517062E1,-2.009073734E0,-1.105783105E0,-9.652347565E0
1.438488240E1,-2.006680965E0,-1.108175993E0,-9.647562027E0
1.439459490E1,-2.013859272E0,-1.096211910E0,-9.654740334E0
1.440430828E1,-2.011466503E0,-1.093819022E0,-9.659525871E0
1.441402078E1,-2.018645048E0,-1.067497969E0,-9.657133102E0
1.442373250E1,-2.011466503E0,-1.053141117E0,-9.664311409E0
1.443344510E1,-1.992323995E0,-1.050748229E0,-9.652347565E0
1.444315844E1,-2.001895189E0,-1.048355460E0,-9.647562027E0
1.445287089E1,-1.985145450E0,-1.041176915E0,-9.633204460E0
1.446258261E1,-1.999502420E0,-1.036391258E0,-9.635597229E0
1.447229521E1,-1.999502420E0,-1.041176915E0,-9.642776489E0
1.448200854E1,-1.982752681E0,-1.043569803E0,-9.645169258E0
1.449172099E1,-1.992323995E0,-1.036391258E0,-9.630811691E0
1.450143276E1,-1.985145450E0,-1.038784146E0,-9.626026154E0
1.451114526E1,-1.970788598E0,-1.060319543E0,-9.626026154E0
1.452085865E1,-1.966002941E0,-1.067497969E0,-9.647562027E0
1.453057115E1,-1.963610053E0,-1.077069283E0,-9.647562027E0
1.454028287E1,-1.956431627E0,-1.072283626E0,-9.664311409E0
1.454999547E1,-1.977967024E0,-1.074676514E0,-9.649954796E0
1.455970875E1,-1.980359793E0,-1.089033365E0,-9.683454514E0
1.456942125E1,-1.968395710E0,-1.089033365E0,-9.695418358E0
1.457913297E1,-1.966002941E0,-1.105783105E0,-9.693025589E0
1.458884557E1,-1.966002941E0,-1.103390336E0,-9.661918640E0
1.459855891E1,-1.966002941E0,-1.081854939E0,-9.616455078E0
1.460827136E1,-1.963610053E0,-1.055533886E0,-9.618847847E0
1.461798312E1,-1.970788598E0,-1.038784146E0,-9.652347565E0
1.462769563E1,-1.970788598E0,-1.038784146E0,-9.666704178E0
1.463740901E1,-1.975574136E0,-1.041176915E0,-9.666704178E0
1.464712151E1,-1.977967024E0,-1.048355460E0,-9.659525871E0
1.465683323E1,-1.982752681E0,-1.050748229E0,-9.652347565E0
1.466654583E1,-1.977967024E0,-1.060319543E0,-9.635597229E0
1.467625912E1,-1.958824396E0,-1.062712312E0,-9.649954796E0
1.468597162E1,-1.966002941E0,-1.060319543E0,-9.647562027E0
1.469568333E1,-1.968395710E0,-1.065105200E0,-9.659525871E0
1.470539594E1,-1.954038739E0,-1.084247708E0,-9.657133102E0
1.471510927E1,-1.946860313E0,-1.086640596E0,-9.654740334E0
1.472482172E1,-1.966002941E0,-1.093819022E0,-9.647562027E0
1.473453349E1,-1.987538338E0,-1.089033365E0,-9.669096947E0
1.474424599E1,-1.989931107E0,-1.089033365E0,-9.678668022E0
1.475395938E1,-1.994716763E0,-1.096211910E0,-9.676275253E0
1.476367182E1,-2.009073734E0,-1.084247708E0,-9.652347565E0
1.477338359E1,-1.999502420E0,-1.086640596E0,-9.635597229E0
1.478309620E1,-2.004287958E0,-1.086640596E0,-9.642776489E0
1.479280948E1,-2.013859272E0,-1.081854939E0,-9.666704178E0
1.480252198E1,-2.016252279E0,-1.074676514E0,-9.676275253E0
1.481223370E1,-2.018645048E0,-1.072283626E0,-9.654740334E0
1.482194630E1,-2.009073734E0,-1.065105200E0,-9.647562027E0
1.483165958E1,-1.985145450E0,-1.072283626E0,-9.645169258E0
1.484137208E1,-1.975574136E0,-1.072283626E0,-9.623633385E0
1.485108380E1,-1.977967024E0,-1.069890857E0,-9.640383720E0
1.486079641E1,-1.982752681E0,-1.072283626E0,-9.635597229E0
1.487050974E1,-1.961217284E0,-1.048355460E0,-9.637990952E0
1.488022219E1,-1.961217284E0,-1.033998489E0,-9.654740334E0
1.488993396E1,-1.966002941E0,-1.031605721E0,-9.661918640E0
1.489964646E1,-1.961217284E0,-1.038784146E0,-9.673882484E0
1.490935984E1,-1.958824396E0,-1.050748229E0,-9.666704178E0
1.491907234E1,-1.963610053E0,-1.065105200E0,-9.669096947E0
1.492878406E1,-1.968395710E0,-1.055533886E0,-9.654740334E0
1.493849667E1,-1.977967024E0,-1.074676514E0,-9.659525871E0
1.494820995E1,-1.970788598E0,-1.084247708E0,-9.661918640E0
1.495792245E1,-2.001895189E0,-1.093819022E0,-9.683454514E0
1.496763417E1,-1.973181367E0,-1.084247708E0,-9.659525871E0
1.497734677E1,-1.975574136E0,-1.086640596E0,-9.649954796E0
1.498706011E1,-1.961217284E0,-1.074676514E0,-9.642776489E0
1.499677255E1,-1.958824396E0,-1.060319543E0,-9.647562027E0
1.500648432E1,-1.958824396E0,-1.062712312E0,-9.637990952E0
1.501619682E1,-1.946860313E0,-1.065105200E0,-9.652347565E0
1.502591021E1,-1.951645970E0,-1.069890857E0,-9.649954796E0
1.503562266E1,-1.961217284E0,-1.072283626E0,-9.640383720E0
