"Time (s)","Gyroscope x (rad/s)","Gyroscope y (rad/s)","Gyroscope z (rad/s)"
3.467067700E-2,-4.581354442E-4,2.290677279E-3,3.665083554E-3
4.438239600E-2,-4.581354442E-4,2.290677279E-3,3.665083554E-3
5.409500000E-2,4.428642802E-3,-1.374406274E-3,4.886778072E-3
6.380833400E-2,3.206948051E-3,1.068982761E-3,4.886778072E-3
7.352083400E-2,4.428642802E-3,1.068982761E-3,2.443389036E-3
8.323260500E-2,4.428642802E-3,2.290677279E-3,1.221694518E-3
9.294510500E-2,3.206948051E-3,1.068982761E-3,1.221694518E-3
1.026584900E-1,3.206948051E-3,1.068982761E-3,1.221694518E-3
1.123709900E-1,3.206948051E-3,-1.527118147E-4,1.221694518E-3
1.220827610E-1,3.206948051E-3,-1.527118147E-4,2.443389036E-3
1.317952610E-1,3.206948051E-3,-2.596100792E-3,3.665083554E-3
1.415086460E-1,4.428642802E-3,-5.039489828E-3,4.886778072E-3
1.512211460E-1,5.650337320E-3,-5.039489828E-3,6.108472589E-3
1.609329170E-1,5.650337320E-3,-1.374406274E-3,4.886778072E-3
1.706454170E-1,1.985253533E-3,2.290677279E-3,3.665083554E-3
1.803588550E-1,7.635590737E-4,4.734066315E-3,2.443389036E-3
1.900713020E-1,7.635590737E-4,3.512371797E-3,1.221694518E-3
1.997830730E-1,7.635590737E-4,1.068982761E-3,-1.221694518E-3
2.094956770E-1,1.985253533E-3,1.068982761E-3,0.000000000E0
2.192090110E-1,-1.679830020E-3,-1.527118147E-4,-1.221694518E-3
2.289214590E-1,-2.901524538E-3,-1.374406274E-3,-1.221694518E-3
2.386332300E-1,-2.901524538E-3,-1.374406274E-3,-1.221694518E-3
2.483458340E-1,-4.123218823E-3,-1.527118147E-4,-2.443389036E-3
2.580591670E-1,-2.901524538E-3,2.290677279E-3,-2.443389036E-3
2.677716150E-1,-4.123218823E-3,4.734066315E-3,0.000000000E0
2.774833860E-1,-2.901524538E-3,4.734066315E-3,1.221694518E-3
2.871959900E-1,-2.901524538E-3,1.068982761E-3,1.221694518E-3
2.969093230E-1,-1.679830020E-3,-1.374406274E-3,2.443389036E-3
3.066217710E-1,-1.679830020E-3,-3.817795310E-3,1.221694518E-3
3.163335420E-1,-4.581354442E-4,-1.527118147E-4,2.443389036E-3
3.260461460E-1,-4.581354442E-4,1.068982761E-3,3.665083554E-3
3.357594800E-1,-4.581354442E-4,2.290677279E-3,4.886778072E-3
3.454719270E-1,7.635590737E-4,-1.527118147E-4,4.886778072E-3
3.551836980E-1,-4.581354442E-4,-3.817795310E-3,3.665083554E-3
3.648963020E-1,-4.581354442E-4,-5.039489828E-3,1.221694518E-3
3.746096360E-1,7.635590737E-4,-3.817795310E-3,1.221694518E-3
3.843220840E-1,7.635590737E-4,-1.527118147E-4,0.000000000E0
3.940338550E-1,7.635590737E-4,2.290677279E-3,0.000000000E0
4.037464590E-1,1.985253533E-3,4.734066315E-3,0.000000000E0
4.134597920E-1,1.985253533E-3,4.734066315E-3,1.221694518E-3
4.231722400E-1,7.635590737E-4,2.290677279E-3,3.665083554E-3
4.328840110E-1,7.635590737E-4,-1.374406274E-3,2.443389036E-3
4.425966150E-1,7.635590737E-4,-2.596100792E-3,1.221694518E-3
4.523099480E-1,7.635590737E-4,-1.374406274E-3,2.443389036E-3
4.620223960E-1,1.985253533E-3,1.068982761E-3,0.000000000E0
4.717341670E-1,3.206948051E-3,2.290677279E-3,-1.221694518E-3
4.814467710E-1,3.206948051E-3,3.512371797E-3,0.000000000E0
4.911601050E-1,4.428642802E-3,3.512371797E-3,-1.221694518E-3
5.008725520E-1,3.206948051E-3,2.290677279E-3,1.221694518E-3
5.105843230E-1,3.206948051E-3,1.068982761E-3,2.443389036E-3
5.202969270E-1,1.985253533E-3,-1.374406274E-3,2.443389036E-3
5.300102090E-1,7.635590737E-4,-1.374406274E-3,1.221694518E-3
5.397227090E-1,-4.581354442E-4,-1.527118147E-4,2.443389036E-3
5.494344800E-1,-1.679830020E-3,1.068982761E-3,1.221694518E-3
5.591470840E-1,-2.901524538E-3,-1.527118147E-4,0.000000000E0
5.688603650E-1,-2.901524538E-3,-1.527118147E-4,0.000000000E0
5.785728650E-1,-4.123218823E-3,-1.374406274E-3,0.000000000E0
5.882846360E-1,-4.123218823E-3,-2.596100792E-3,-1.221694518E-3
5.979971360E-1,-4.123218823E-3,-3.817795310E-3,0.000000000E0
6.077105210E-1,-2.901524538E-3,-3.817795310E-3,1.221694518E-3
6.174230210E-1,-1.679830020E-3,-3.817795310E-3,2.443389036E-3
6.271347920E-1,-1.679830020E-3,-2.596100792E-3,4.886778072E-3
6.368472920E-1,-1.679830020E-3,-1.374406274E-3,4.886778072E-3
6.465606770E-1,-4.581354442E-4,-1.527118147E-4,3.665083554E-3
6.562731770E-1,3.206948051E-3,2.290677279E-3,2.443389036E-3
6.659848960E-1,3.206948051E-3,2.290677279E-3,2.443389036E-3
6.756975000E-1,3.206948051E-3,5.955760833E-3,1.221694518E-3
6.854108340E-1,7.635590737E-4,7.177455351E-3,0.000000000E0
6.951233340E-1,-2.901524538E-3,5.955760833E-3,-1.221694518E-3
7.048350520E-1,-6.566607859E-3,3.512371797E-3,-3.665083554E-3
7.145476570E-1,-6.566607859E-3,-1.527118147E-4,-6.108472589E-3
7.242609900E-1,-4.123218823E-3,-1.374406274E-3,-7.330167107E-3
7.339734900E-1,-4.123218823E-3,-1.527118147E-4,-6.108472589E-3
7.436852090E-1,-4.123218823E-3,2.290677279E-3,-3.665083554E-3
7.533978130E-1,-4.123218823E-3,3.512371797E-3,-2.443389036E-3
7.631110940E-1,-4.123218823E-3,2.290677279E-3,0.000000000E0
7.728235940E-1,-4.123218823E-3,1.068982761E-3,0.000000000E0
7.825353650E-1,-4.123218823E-3,1.068982761E-3,-1.221694518E-3
7.922478650E-1,-4.123218823E-3,1.068982761E-3,-2.443389036E-3
8.019612500E-1,-4.123218823E-3,3.512371797E-3,-1.221694518E-3
8.116737500E-1,-2.901524538E-3,3.512371797E-3,-1.221694518E-3
8.213855210E-1,-1.679830020E-3,1.068982761E-3,0.000000000E0
8.310980210E-1,-4.581354442E-4,-1.374406274E-3,0.000000000E0
8.408114070E-1,7.635590737E-4,-2.596100792E-3,2.443389036E-3
8.505239070E-1,7.635590737E-4,-3.817795310E-3,2.443389036E-3
8.602356250E-1,7.635590737E-4,-3.817795310E-3,3.665083554E-3
8.699482300E-1,3.206948051E-3,-3.817795310E-3,7.330167107E-3
8.796615630E-1,3.206948051E-3,-3.817795310E-3,8.551862091E-3
8.893740110E-1,4.428642802E-3,-2.596100792E-3,8.551862091E-3
8.990857820E-1,3.206948051E-3,-1.374406274E-3,7.330167107E-3
9.087983860E-1,1.985253533E-3,1.068982761E-3,6.108472589E-3
9.185116670E-1,1.985253533E-3,1.068982761E-3,4.886778072E-3
9.282241670E-1,1.985253533E-3,-1.527118147E-4,1.221694518E-3
9.379359380E-1,1.985253533E-3,-1.374406274E-3,-2.443389036E-3
9.476485420E-1,1.985253533E-3,-1.374406274E-3,-4.886778072E-3
9.573618230E-1,1.985253533E-3,-1.527118147E-4,-6.108472589E-3
9.670743230E-1,-4.581354442E-4,-1.527118147E-4,-4.886778072E-3
9.767860940E-1,-1.679830020E-3,-1.374406274E-3,-7.330167107E-3
9.864985940E-1,-1.679830020E-3,-1.374406274E-3,-3.665083554E-3
9.962119800E-1,-1.679830020E-3,-1.527118147E-4,-3.665083554E-3
1.005924480E0,7.635590737E-4,-1.527118147E-4,-1.221694518E-3
1.015636198E0,1.985253533E-3,1.068982761E-3,0.000000000E0
1.025348802E0,1.985253533E-3,2.290677279E-3,0.000000000E0
1.035062136E0,1.985253533E-3,2.290677279E-3,-1.221694518E-3
1.044774584E0,-4.581354442E-4,1.068982761E-3,-1.221694518E-3
1.054486355E0,7.635590737E-4,2.290677279E-3,-1.221694518E-3
1.064198959E0,3.206948051E-3,2.290677279E-3,-1.221694518E-3
1.073912240E0,3.206948051E-3,1.068982761E-3,0.000000000E0
1.083624740E0,1.985253533E-3,-1.527118147E-4,0.000000000E0
1.093336459E0,1.985253533E-3,-1.374406274E-3,0.000000000E0
1.103049063E0,7.635590737E-4,-2.596100792E-3,1.221694518E-3
1.112762396E0,-4.581354442E-4,-2.596100792E-3,2.443389036E-3
1.122474896E0,-4.581354442E-4,-1.374406274E-3,3.665083554E-3
1.132186615E0,7.635590737E-4,-1.527118147E-4,4.886778072E-3
1.141899219E0,7.635590737E-4,-1.374406274E-3,4.886778072E-3
1.151612552E0,-4.581354442E-4,-2.596100792E-3,4.886778072E-3
1.161325000E0,-4.581354442E-4,-1.374406274E-3,3.665083554E-3
1.171036771E0,-1.679830020E-3,1.068982761E-3,2.443389036E-3
1.180749271E0,-1.679830020E-3,2.290677279E-3,2.443389036E-3
1.190462657E0,-1.679830020E-3,-1.374406274E-3,1.221694518E-3
1.200175157E0,-4.581354442E-4,-5.039489828E-3,2.443389036E-3
1.209886875E0,1.985253533E-3,-7.482878864E-3,0.000000000E0
1.219599480E0,7.635590737E-4,-6.261184346E-3,-2.443389036E-3
1.229312813E0,-1.679830020E-3,-3.817795310E-3,-3.665083554E-3
1.239025261E0,-4.581354442E-4,-1.374406274E-3,-6.108472589E-3
1.248737032E0,-4.581354442E-4,-1.527118147E-4,-6.108472589E-3
1.258449636E0,7.635590737E-4,1.068982761E-3,-6.108472589E-3
1.268162917E0,7.635590737E-4,2.290677279E-3,-6.108472589E-3
1.277875417E0,-4.581354442E-4,2.290677279E-3,-6.108472589E-3
1.287587136E0,-1.679830020E-3,-1.527118147E-4,-6.108472589E-3
1.297299740E0,-1.679830020E-3,-2.596100792E-3,-4.886778072E-3
1.307013073E0,-1.679830020E-3,-3.817795310E-3,-2.443389036E-3
1.316725573E0,-4.581354442E-4,-2.596100792E-3,-2.443389036E-3
1.326437292E0,7.635590737E-4,1.068982761E-3,0.000000000E0
1.336149896E0,7.635590737E-4,2.290677279E-3,0.000000000E0
1.345863177E0,1.985253533E-3,3.512371797E-3,1.221694518E-3
1.355575677E0,1.985253533E-3,1.068982761E-3,1.221694518E-3
1.365287448E0,1.985253533E-3,1.068982761E-3,2.443389036E-3
1.374999948E0,1.985253533E-3,2.290677279E-3,2.443389036E-3
1.384713334E0,7.635590737E-4,2.290677279E-3,2.443389036E-3
1.394425782E0,7.635590737E-4,2.290677279E-3,3.665083554E-3
1.404137552E0,1.985253533E-3,-1.527118147E-4,2.443389036E-3
1.413850157E0,1.985253533E-3,1.068982761E-3,2.443389036E-3
1.423563438E0,-4.581354442E-4,2.290677279E-3,2.443389036E-3
1.433275938E0,-1.679830020E-3,2.290677279E-3,1.221694518E-3
1.442987657E0,-1.679830020E-3,3.512371797E-3,0.000000000E0
1.452700261E0,-1.679830020E-3,3.512371797E-3,1.221694518E-3
1.462413594E0,-1.679830020E-3,2.290677279E-3,0.000000000E0
1.472126094E0,-1.679830020E-3,2.290677279E-3,0.000000000E0
1.481837813E0,7.635590737E-4,1.068982761E-3,-1.221694518E-3
1.491550417E0,1.985253533E-3,-1.374406274E-3,-3.665083554E-3
1.501263698E0,3.206948051E-3,-2.596100792E-3,-1.221694518E-3
1.510976198E0,4.428642802E-3,-5.039489828E-3,0.000000000E0
1.520687917E0,4.428642802E-3,-5.039489828E-3,1.221694518E-3
1.530400521E0,3.206948051E-3,-6.261184346E-3,2.443389036E-3
1.540113855E0,1.985253533E-3,-3.817795310E-3,4.886778072E-3
1.549826302E0,1.985253533E-3,-1.374406274E-3,4.886778072E-3
1.559538073E0,1.985253533E-3,-1.374406274E-3,4.886778072E-3
1.569250573E0,1.985253533E-3,-1.374406274E-3,4.886778072E-3
1.578963959E0,1.985253533E-3,-1.374406274E-3,3.665083554E-3
1.588676459E0,1.985253533E-3,-1.527118147E-4,2.443389036E-3
1.598388177E0,3.206948051E-3,-1.527118147E-4,1.221694518E-3
1.608100782E0,4.428642802E-3,-1.527118147E-4,1.221694518E-3
1.617814115E0,3.206948051E-3,-1.374406274E-3,1.221694518E-3
1.627526563E0,7.635590737E-4,-1.374406274E-3,2.443389036E-3
1.637238334E0,-4.581354442E-4,-1.374406274E-3,2.443389036E-3
1.646950834E0,7.635590737E-4,-1.527118147E-4,2.443389036E-3
1.656664219E0,1.985253533E-3,2.290677279E-3,0.000000000E0
1.666376719E0,1.985253533E-3,3.512371797E-3,1.221694518E-3
1.676088438E0,3.206948051E-3,3.512371797E-3,-1.221694518E-3
1.685801042E0,1.985253533E-3,3.512371797E-3,-2.443389036E-3
1.695514323E0,7.635590737E-4,4.734066315E-3,-1.221694518E-3
1.705226823E0,1.985253533E-3,4.734066315E-3,-2.443389036E-3
1.714938542E0,-4.581354442E-4,3.512371797E-3,-2.443389036E-3
1.724651146E0,-1.679830020E-3,1.068982761E-3,0.000000000E0
1.734364480E0,-4.581354442E-4,-1.527118147E-4,0.000000000E0
1.744076927E0,7.635590737E-4,-1.374406274E-3,1.221694518E-3
1.753788698E0,1.985253533E-3,1.068982761E-3,0.000000000E0
1.763501198E0,7.635590737E-4,4.734066315E-3,-2.443389036E-3
1.773214584E0,7.635590737E-4,5.955760833E-3,-4.886778072E-3
1.782927084E0,7.635590737E-4,4.734066315E-3,-3.665083554E-3
1.792638802E0,7.635590737E-4,4.734066315E-3,-3.665083554E-3
1.802351407E0,-4.581354442E-4,3.512371797E-3,-2.443389036E-3
1.812064688E0,-4.123218823E-3,3.512371797E-3,0.000000000E0
1.821777188E0,-5.344913341E-3,2.290677279E-3,1.221694518E-3
1.831488907E0,-4.123218823E-3,2.290677279E-3,3.665083554E-3
1.841201511E0,-4.123218823E-3,1.068982761E-3,3.665083554E-3
1.850914844E0,-2.901524538E-3,2.290677279E-3,3.665083554E-3
1.860627292E0,-1.679830020E-3,3.512371797E-3,3.665083554E-3
1.870339063E0,-2.901524538E-3,4.734066315E-3,2.443389036E-3
1.880051563E0,-2.901524538E-3,3.512371797E-3,1.221694518E-3
1.889764948E0,-4.123218823E-3,3.512371797E-3,1.221694518E-3
1.899477396E0,-2.901524538E-3,2.290677279E-3,-1.221694518E-3
1.909189167E0,-1.679830020E-3,3.512371797E-3,-1.221694518E-3
1.918901667E0,-1.679830020E-3,3.512371797E-3,-2.443389036E-3
1.928615052E0,-1.679830020E-3,2.290677279E-3,-1.221694518E-3
1.938327500E0,-1.679830020E-3,1.068982761E-3,-1.221694518E-3
1.948039271E0,-1.679830020E-3,-1.374406274E-3,-2.443389036E-3
1.957751771E0,7.635590737E-4,-2.596100792E-3,-3.665083554E-3
1.967465157E0,3.206948051E-3,-2.596100792E-3,-4.886778072E-3
1.977177657E0,5.650337320E-3,-1.527118147E-4,-4.886778072E-3
1.986889375E0,4.428642802E-3,-1.374406274E-3,-3.665083554E-3
1.996601980E0,1.985253533E-3,-1.527118147E-4,-2.443389036E-3
2.006315261E0,-4.581354442E-4,1.068982761E-3,-1.221694518E-3
2.016027761E0,-4.581354442E-4,-1.527118147E-4,-1.221694518E-3
2.025739480E0,-4.581354442E-4,-1.374406274E-3,-3.665083554E-3
2.035452084E0,7.635590737E-4,-3.817795310E-3,-2.443389036E-3
2.045165417E0,1.985253533E-3,-3.817795310E-3,-2.443389036E-3
2.054877865E0,1.985253533E-3,-3.817795310E-3,-1.221694518E-3
2.064589584E0,7.635590737E-4,-2.596100792E-3,-1.221694518E-3
2.074302188E0,7.635590737E-4,-1.374406274E-3,0.000000000E0
2.084015521E0,1.985253533E-3,-1.374406274E-3,1.221694518E-3
2.093727969E0,3.206948051E-3,-1.374406274E-3,2.443389036E-3
2.103439740E0,4.428642802E-3,-1.374406274E-3,4.886778072E-3
2.113152240E0,3.206948051E-3,-1.374406274E-3,4.886778072E-3
2.122865625E0,1.985253533E-3,-1.527118147E-4,7.330167107E-3
2.132578073E0,7.635590737E-4,2.290677279E-3,6.108472589E-3
2.142289844E0,-4.581354442E-4,2.290677279E-3,4.886778072E-3
2.152002344E0,-1.679830020E-3,1.068982761E-3,2.443389036E-3
2.161715730E0,-4.581354442E-4,1.068982761E-3,1.221694518E-3
2.171428230E0,-4.581354442E-4,-1.527118147E-4,0.000000000E0
2.181139948E0,-4.581354442E-4,-1.527118147E-4,0.000000000E0
2.190852448E0,7.635590737E-4,-1.527118147E-4,-1.221694518E-3
2.200565834E0,7.635590737E-4,-1.527118147E-4,-1.221694518E-3
2.210278334E0,-4.581354442E-4,-1.527118147E-4,-1.221694518E-3
2.219990052E0,-4.581354442E-4,-2.596100792E-3,-2.443389036E-3
2.229702552E0,-4.581354442E-4,-1.527118147E-4,0.000000000E0
2.239415938E0,-1.679830020E-3,2.290677279E-3,-1.221694518E-3
2.249128438E0,-1.679830020E-3,3.512371797E-3,-2.443389036E-3
2.258840157E0,-4.581354442E-4,3.512371797E-3,-2.443389036E-3
2.268552657E0,7.635590737E-4,3.512371797E-3,-1.221694518E-3
2.278266042E0,3.206948051E-3,3.512371797E-3,0.000000000E0
2.287978542E0,4.428642802E-3,2.290677279E-3,-3.665083554E-3
2.297690261E0,3.206948051E-3,3.512371797E-3,-3.665083554E-3
2.307402865E0,-4.581354442E-4,2.290677279E-3,-3.665083554E-3
2.317116146E0,-4.123218823E-3,1.068982761E-3,-4.886778072E-3
2.326828646E0,-2.901524538E-3,-1.527118147E-4,-3.665083554E-3
2.336540365E0,-2.901524538E-3,1.068982761E-3,-4.886778072E-3
2.346252969E0,-1.679830020E-3,2.290677279E-3,-3.665083554E-3
2.355966250E0,-1.679830020E-3,3.512371797E-3,-3.665083554E-3
2.365678750E0,-1.679830020E-3,3.512371797E-3,-3.665083554E-3
2.375390469E0,-4.581354442E-4,2.290677279E-3,-1.221694518E-3
2.385103073E0,7.635590737E-4,1.068982761E-3,0.000000000E0
2.394816355E0,7.635590737E-4,-1.527118147E-4,1.221694518E-3
2.404528855E0,-4.581354442E-4,-1.527118147E-4,4.886778072E-3
2.414240573E0,-4.581354442E-4,-1.374406274E-3,7.330167107E-3
2.423953177E0,-2.901524538E-3,-2.596100792E-3,7.330167107E-3
2.433666459E0,-2.901524538E-3,-3.817795310E-3,7.330167107E-3
2.443378959E0,-4.581354442E-4,-3.817795310E-3,6.108472589E-3
2.453090677E0,7.635590737E-4,-1.527118147E-4,4.886778072E-3
2.462803282E0,7.635590737E-4,1.068982761E-3,3.665083554E-3
2.472516563E0,7.635590737E-4,2.290677279E-3,3.665083554E-3
2.482229063E0,-4.581354442E-4,-1.527118147E-4,1.221694518E-3
2.491940782E0,-4.581354442E-4,-2.596100792E-3,1.221694518E-3
2.501653386E0,-1.679830020E-3,-5.039489828E-3,-1.221694518E-3
2.511366719E0,-1.679830020E-3,-2.596100792E-3,-1.221694518E-3
2.521079167E0,-1.679830020E-3,-1.527118147E-4,-1.221694518E-3
2.530790886E0,-4.581354442E-4,2.290677279E-3,0.000000000E0
2.540503490E0,-1.679830020E-3,3.512371797E-3,0.000000000E0
2.550216823E0,-1.679830020E-3,3.512371797E-3,0.000000000E0
2.559929271E0,-1.679830020E-3,1.068982761E-3,-1.221694518E-3
2.569641042E0,-4.581354442E-4,-1.527118147E-4,-2.443389036E-3
2.579353542E0,-4.581354442E-4,-1.527118147E-4,-2.443389036E-3
2.589066927E0,-4.581354442E-4,-1.527118147E-4,-1.221694518E-3
2.598779375E0,7.635590737E-4,-1.527118147E-4,2.443389036E-3
2.608491146E0,7.635590737E-4,-1.374406274E-3,3.665083554E-3
2.618203646E0,-4.581354442E-4,-1.374406274E-3,4.886778072E-3
2.627917032E0,-4.581354442E-4,-1.374406274E-3,4.886778072E-3
2.637629480E0,-4.581354442E-4,-1.374406274E-3,4.886778072E-3
2.647341250E0,7.635590737E-4,-1.374406274E-3,4.886778072E-3
2.657053750E0,7.635590737E-4,-1.374406274E-3,4.886778072E-3
2.666767136E0,7.635590737E-4,-1.374406274E-3,4.886778072E-3
2.676479584E0,-4.581354442E-4,-1.374406274E-3,4.886778072E-3
2.686191355E0,-4.581354442E-4,-1.374406274E-3,2.443389036E-3
2.695903855E0,-4.581354442E-4,-1.527118147E-4,1.221694518E-3
2.705617240E0,-4.581354442E-4,1.068982761E-3,2.443389036E-3
2.715329688E0,-4.581354442E-4,2.290677279E-3,2.443389036E-3
2.725041459E0,-1.679830020E-3,3.512371797E-3,2.443389036E-3
2.734753959E0,-4.581354442E-4,2.290677279E-3,1.221694518E-3
2.744467344E0,7.635590737E-4,1.068982761E-3,0.000000000E0
2.754179844E0,1.985253533E-3,1.068982761E-3,1.221694518E-3
2.763891563E0,1.985253533E-3,-1.527118147E-4,0.000000000E0
2.773604167E0,1.985253533E-3,-1.527118147E-4,0.000000000E0
2.783317448E0,1.985253533E-3,1.068982761E-3,0.000000000E0
2.793029948E0,7.635590737E-4,2.290677279E-3,0.000000000E0
2.802741667E0,-4.581354442E-4,2.290677279E-3,1.221694518E-3
2.812454271E0,-1.679830020E-3,3.512371797E-3,2.443389036E-3
2.822167552E0,-2.901524538E-3,4.734066315E-3,2.443389036E-3
2.831880052E0,-1.679830020E-3,3.512371797E-3,3.665083554E-3
2.841591771E0,1.985253533E-3,2.290677279E-3,2.443389036E-3
2.851304375E0,3.206948051E-3,3.512371797E-3,1.221694518E-3
2.861017657E0,3.206948051E-3,3.512371797E-3,0.000000000E0
2.870730157E0,3.206948051E-3,3.512371797E-3,1.221694518E-3
2.880441875E0,3.206948051E-3,3.512371797E-3,0.000000000E0
2.890154480E0,7.635590737E-4,4.734066315E-3,0.000000000E0
2.899867761E0,-1.679830020E-3,3.512371797E-3,0.000000000E0
2.909580261E0,-4.123218823E-3,3.512371797E-3,0.000000000E0
2.919291980E0,-4.123218823E-3,1.068982761E-3,0.000000000E0
2.929004584E0,-2.901524538E-3,-1.527118147E-4,0.000000000E0
2.938717865E0,-4.581354442E-4,-1.527118147E-4,0.000000000E0
2.948430365E0,1.985253533E-3,1.068982761E-3,1.221694518E-3
2.958142084E0,3.206948051E-3,3.512371797E-3,1.221694518E-3
2.967854688E0,3.206948051E-3,4.734066315E-3,1.221694518E-3
2.977568021E0,1.985253533E-3,3.512371797E-3,1.221694518E-3
2.987280469E0,7.635590737E-4,1.068982761E-3,1.221694518E-3
2.996992188E0,-4.581354442E-4,-1.527118147E-4,0.000000000E0
3.006704792E0,-4.581354442E-4,-1.527118147E-4,0.000000000E0
3.016418125E0,-4.581354442E-4,-1.527118147E-4,-1.221694518E-3
3.026130573E0,-4.581354442E-4,-1.374406274E-3,-2.443389036E-3
3.035842292E0,7.635590737E-4,-2.596100792E-3,-2.443389036E-3
3.045554896E0,7.635590737E-4,-3.817795310E-3,-2.443389036E-3
3.055268230E0,-4.581354442E-4,-3.817795310E-3,-1.221694518E-3
3.064980677E0,-4.581354442E-4,-2.596100792E-3,0.000000000E0
3.074692396E0,-4.581354442E-4,-1.374406274E-3,1.221694518E-3
3.084405000E0,7.635590737E-4,-1.374406274E-3,2.443389036E-3
3.094118334E0,1.985253533E-3,-1.527118147E-4,2.443389036E-3
3.103830782E0,3.206948051E-3,1.068982761E-3,2.443389036E-3
3.113542500E0,3.206948051E-3,-1.527118147E-4,2.443389036E-3
3.123255105E0,3.206948051E-3,-1.527118147E-4,1.221694518E-3
3.132968438E0,3.206948051E-3,-1.527118147E-4,1.221694518E-3
3.142680886E0,3.206948051E-3,-1.527118147E-4,1.221694518E-3
3.152392605E0,1.985253533E-3,-1.527118147E-4,0.000000000E0
3.162105209E0,1.985253533E-3,-1.527118147E-4,0.000000000E0
3.171818542E0,7.635590737E-4,-1.374406274E-3,1.221694518E-3
3.181530990E0,-4.581354442E-4,-1.527118147E-4,1.221694518E-3
3.191242761E0,7.635590737E-4,1.068982761E-3,2.443389036E-3
3.200955261E0,3.206948051E-3,2.290677279E-3,2.443389036E-3
3.210668646E0,6.872031838E-3,3.512371797E-3,2.443389036E-3
3.220381094E0,9.315420873E-3,3.512371797E-3,1.221694518E-3
3.230092813E0,1.053711493E-2,3.512371797E-3,0.000000000E0
3.239805417E0,6.872031838E-3,3.512371797E-3,-2.443389036E-3
3.249518750E0,3.206948051E-3,2.290677279E-3,-3.665083554E-3
3.259231198E0,7.635590737E-4,2.290677279E-3,0.000000000E0
3.268942969E0,-1.679830020E-3,3.512371797E-3,2.443389036E-3
3.278655469E0,-4.123218823E-3,3.512371797E-3,4.886778072E-3
3.288368855E0,-5.344913341E-3,1.068982761E-3,6.108472589E-3
3.298081302E0,-2.901524538E-3,-1.527118147E-4,4.886778072E-3
3.307793073E0,-4.581354442E-4,-1.527118147E-4,7.330167107E-3
3.317505573E0,3.206948051E-3,2.290677279E-3,7.330167107E-3
3.327218959E0,8.093725890E-3,4.734066315E-3,7.330167107E-3
3.336931407E0,8.093725890E-3,5.955760833E-3,8.551862091E-3
3.346643177E0,6.872031838E-3,5.955760833E-3,7.330167107E-3
3.356355677E0,4.428642802E-3,4.734066315E-3,3.665083554E-3
3.366069063E0,1.985253533E-3,5.955760833E-3,1.221694518E-3
3.375781511E0,7.635590737E-4,4.734066315E-3,-1.221694518E-3
3.385493282E0,7.635590737E-4,1.068982761E-3,-2.443389036E-3
3.395205782E0,7.635590737E-4,1.068982761E-3,-4.886778072E-3
3.404919167E0,-1.679830020E-3,2.290677279E-3,-4.886778072E-3
3.414631615E0,-2.901524538E-3,4.734066315E-3,-3.665083554E-3
3.424343334E0,-1.679830020E-3,3.512371797E-3,-3.665083554E-3
3.434055938E0,7.635590737E-4,1.068982761E-3,-2.443389036E-3
3.443769271E0,1.985253533E-3,1.068982761E-3,-1.221694518E-3
3.453481719E0,1.985253533E-3,1.068982761E-3,1.221694518E-3
3.463193438E0,1.985253533E-3,-1.374406274E-3,2.443389036E-3
3.472906042E0,-4.581354442E-4,-1.374406274E-3,2.443389036E-3
3.482619375E0,-4.581354442E-4,-1.374406274E-3,1.221694518E-3
3.492331823E0,7.635590737E-4,1.068982761E-3,0.000000000E0
3.502043594E0,7.635590737E-4,4.734066315E-3,-2.443389036E-3
3.511756094E0,7.635590737E-4,5.955760833E-3,-2.443389036E-3
3.521469480E0,-4.581354442E-4,5.955760833E-3,-4.886778072E-3
3.531181927E0,-4.581354442E-4,2.290677279E-3,-2.443389036E-3
3.540893646E0,-2.901524538E-3,-1.374406274E-3,-1.221694518E-3
3.550606250E0,-5.344913341E-3,-5.039489828E-3,-1.221694518E-3
3.560319584E0,-5.344913341E-3,-6.261184346E-3,0.000000000E0
3.570032032E0,-4.123218823E-3,-5.039489828E-3,-1.221694518E-3
3.579743750E0,-1.679830020E-3,-2.596100792E-3,0.000000000E0
3.589456355E0,-4.581354442E-4,-1.527118147E-4,1.221694518E-3
3.599169636E0,-4.581354442E-4,2.290677279E-3,1.221694518E-3
3.608882136E0,7.635590737E-4,2.290677279E-3,0.000000000E0
3.618593855E0,7.635590737E-4,1.068982761E-3,-1.221694518E-3
3.628306459E0,-1.679830020E-3,-1.374406274E-3,0.000000000E0
3.638019740E0,-5.344913341E-3,-3.817795310E-3,-1.221694518E-3
3.647732240E0,-1.145338640E-2,-6.261184346E-3,-1.221694518E-3
3.657443959E0,-1.267508045E-2,-8.704573847E-3,-1.221694518E-3
3.667156563E0,-1.023169141E-2,-8.704573847E-3,-2.443389036E-3
3.676869844E0,-7.788302377E-3,-8.704573847E-3,-4.886778072E-3
3.686582344E0,-2.901524538E-3,-7.482878864E-3,-4.886778072E-3
3.696294063E0,-1.679830020E-3,-3.817795310E-3,-4.886778072E-3
3.706006563E0,-1.679830020E-3,1.068982761E-3,-3.665083554E-3
3.715719948E0,-4.123218823E-3,4.734066315E-3,-1.221694518E-3
3.725432448E0,-4.123218823E-3,4.734066315E-3,0.000000000E0
3.735144167E0,-2.901524538E-3,1.068982761E-3,-1.221694518E-3
3.744856667E0,-1.679830020E-3,-2.596100792E-3,-1.221694518E-3
3.754570052E0,-4.581354442E-4,-2.596100792E-3,-2.443389036E-3
3.764282500E0,7.635590737E-4,-1.374406274E-3,-2.443389036E-3
3.773994271E0,1.985253533E-3,1.068982761E-3,-2.443389036E-3
3.783706771E0,1.985253533E-3,2.290677279E-3,-1.221694518E-3
3.793420157E0,3.206948051E-3,2.290677279E-3,0.000000000E0
3.803132605E0,1.985253533E-3,1.068982761E-3,1.221694518E-3
3.812844375E0,1.985253533E-3,-1.527118147E-4,1.221694518E-3
3.822556875E0,1.985253533E-3,-1.374406274E-3,1.221694518E-3
3.832270261E0,1.985253533E-3,-2.596100792E-3,0.000000000E0
3.841982709E0,3.206948051E-3,-1.374406274E-3,0.000000000E0
3.851694427E0,3.206948051E-3,1.068982761E-3,1.221694518E-3
3.861407032E0,3.206948051E-3,1.068982761E-3,1.221694518E-3
3.871120313E0,1.985253533E-3,1.068982761E-3,0.000000000E0
3.880832813E0,-4.581354442E-4,2.290677279E-3,1.221694518E-3
3.890544532E0,-4.581354442E-4,2.290677279E-3,0.000000000E0
3.900257136E0,7.635590737E-4,3.512371797E-3,1.221694518E-3
3.909970417E0,1.985253533E-3,2.290677279E-3,0.000000000E0
3.919682917E0,4.428642802E-3,1.068982761E-3,1.221694518E-3
3.929394636E0,5.650337320E-3,-1.374406274E-3,1.221694518E-3
3.939107136E0,4.428642802E-3,-1.374406274E-3,0.000000000E0
3.948820521E0,7.635590737E-4,-1.527118147E-4,1.221694518E-3
3.958533021E0,-4.581354442E-4,1.068982761E-3,1.221694518E-3
3.968244740E0,-1.679830020E-3,-1.527118147E-4,1.221694518E-3
3.977957240E0,-4.581354442E-4,-1.374406274E-3,1.221694518E-3
3.987670625E0,7.635590737E-4,-2.596100792E-3,2.443389036E-3
3.997383073E0,-4.581354442E-4,-1.527118147E-4,2.443389036E-3
4.007094844E0,-1.679830020E-3,-1.374406274E-3,0.000000000E0
4.016807344E0,-2.901524538E-3,-1.374406274E-3,0.000000000E0
4.026520730E0,-2.901524538E-3,-1.374406274E-3,1.221694518E-3
4.036233177E0,-1.679830020E-3,-1.374406274E-3,0.000000000E0
4.045944896E0,-1.679830020E-3,-1.374406274E-3,0.000000000E0
4.055657500E0,-1.679830020E-3,-1.527118147E-4,1.221694518E-3
4.065370782E0,-1.679830020E-3,1.068982761E-3,0.000000000E0
4.075083282E0,-4.581354442E-4,1.068982761E-3,-1.221694518E-3
4.084795000E0,7.635590737E-4,-1.527118147E-4,-1.221694518E-3
4.094507605E0,-1.679830020E-3,-1.527118147E-4,-2.443389036E-3
4.104220886E0,-4.581354442E-4,-1.527118147E-4,-2.443389036E-3
4.113933386E0,-1.679830020E-3,1.068982761E-3,0.000000000E0
4.123645105E0,-4.581354442E-4,1.068982761E-3,1.221694518E-3
4.133357605E0,7.635590737E-4,-1.527118147E-4,1.221694518E-3
4.143070990E0,7.635590737E-4,-2.596100792E-3,1.221694518E-3
4.152783438E0,7.635590737E-4,-3.817795310E-3,0.000000000E0
4.162495209E0,7.635590737E-4,-2.596100792E-3,-1.221694518E-3
4.172207709E0,7.635590737E-4,-1.527118147E-4,-2.443389036E-3
4.181921094E0,1.985253533E-3,1.068982761E-3,-2.443389036E-3
4.191633542E0,7.635590737E-4,3.512371797E-3,-3.665083554E-3
4.201345261E0,1.985253533E-3,3.512371797E-3,-4.886778072E-3
4.211057865E0,1.985253533E-3,3.512371797E-3,-4.886778072E-3
4.220771146E0,7.635590737E-4,2.290677279E-3,-3.665083554E-3
4.230483646E0,-4.581354442E-4,1.068982761E-3,-1.221694518E-3
4.240195365E0,-4.581354442E-4,-1.374406274E-3,0.000000000E0
4.249907865E0,-1.679830020E-3,-1.374406274E-3,2.443389036E-3
4.259621250E0,-1.679830020E-3,-1.374406274E-3,4.886778072E-3
4.269333698E0,-4.581354442E-4,-1.374406274E-3,6.108472589E-3
4.279045469E0,1.985253533E-3,-1.374406274E-3,4.886778072E-3
4.288757969E0,7.635590737E-4,-1.527118147E-4,3.665083554E-3
4.298471355E0,7.635590737E-4,-1.374406274E-3,1.221694518E-3
4.308183802E0,-4.581354442E-4,-1.527118147E-4,2.443389036E-3
4.317895521E0,-4.581354442E-4,-2.596100792E-3,0.000000000E0
4.327608125E0,-4.581354442E-4,-5.039489828E-3,1.221694518E-3
4.337321407E0,-1.679830020E-3,-6.261184346E-3,0.000000000E0
4.347033907E0,-2.901524538E-3,-6.261184346E-3,0.000000000E0
4.356745625E0,-2.901524538E-3,-3.817795310E-3,0.000000000E0
4.366458125E0,-4.581354442E-4,-2.596100792E-3,0.000000000E0
4.376171511E0,1.985253533E-3,-1.374406274E-3,0.000000000E0
4.385883959E0,1.985253533E-3,-1.527118147E-4,0.000000000E0
4.395595730E0,3.206948051E-3,-1.374406274E-3,0.000000000E0
4.405308230E0,3.206948051E-3,-1.527118147E-4,0.000000000E0
4.415021563E0,1.985253533E-3,1.068982761E-3,0.000000000E0
4.424734063E0,7.635590737E-4,2.290677279E-3,-1.221694518E-3
4.434445782E0,7.635590737E-4,2.290677279E-3,-1.221694518E-3
4.444158282E0,1.985253533E-3,1.068982761E-3,-2.443389036E-3
4.453871667E0,3.206948051E-3,2.290677279E-3,-2.443389036E-3
4.463584115E0,1.985253533E-3,1.068982761E-3,-1.221694518E-3
4.473295886E0,1.985253533E-3,-1.374406274E-3,0.000000000E0
4.483008386E0,1.985253533E-3,-1.374406274E-3,1.221694518E-3
4.492721771E0,1.985253533E-3,-1.527118147E-4,0.000000000E0
4.502434219E0,1.985253533E-3,1.068982761E-3,0.000000000E0
4.512145938E0,1.985253533E-3,-1.527118147E-4,0.000000000E0
4.521858542E0,3.206948051E-3,1.068982761E-3,0.000000000E0
4.531571823E0,3.206948051E-3,4.734066315E-3,0.000000000E0
4.541284323E0,7.635590737E-4,7.177455351E-3,0.000000000E0
4.550996042E0,-4.581354442E-4,7.177455351E-3,0.000000000E0
4.560708542E0,-4.581354442E-4,3.512371797E-3,1.221694518E-3
4.570421927E0,-2.901524538E-3,-1.374406274E-3,2.443389036E-3
4.580134375E0,-1.679830020E-3,-2.596100792E-3,2.443389036E-3
4.589846094E0,-4.581354442E-4,-1.374406274E-3,3.665083554E-3
4.599558698E0,7.635590737E-4,-2.596100792E-3,4.886778072E-3
4.609271980E0,1.985253533E-3,-2.596100792E-3,6.108472589E-3
4.618984480E0,3.206948051E-3,-1.527118147E-4,7.330167107E-3
4.628696198E0,1.985253533E-3,1.068982761E-3,7.330167107E-3
4.638408698E0,1.985253533E-3,1.068982761E-3,8.551862091E-3
4.648122084E0,3.206948051E-3,2.290677279E-3,7.330167107E-3
4.657834532E0,1.985253533E-3,1.068982761E-3,6.108472589E-3
4.667546302E0,1.985253533E-3,-1.527118147E-4,4.886778072E-3
4.677258802E0,1.985253533E-3,-1.527118147E-4,2.443389036E-3
4.686972136E0,7.635590737E-4,-1.527118147E-4,1.221694518E-3
4.696684636E0,-4.581354442E-4,-1.374406274E-3,-1.221694518E-3
4.706396355E0,-1.679830020E-3,-1.374406274E-3,0.000000000E0
4.716108855E0,-2.901524538E-3,-1.527118147E-4,-2.443389036E-3
4.725822240E0,-1.679830020E-3,1.068982761E-3,-3.665083554E-3
4.735534688E0,-4.581354442E-4,3.512371797E-3,-6.108472589E-3
4.745246407E0,7.635590737E-4,3.512371797E-3,-7.330167107E-3
4.754959011E0,1.985253533E-3,2.290677279E-3,-6.108472589E-3
4.764672292E0,1.985253533E-3,-1.527118147E-4,-4.886778072E-3
4.774384792E0,1.985253533E-3,-2.596100792E-3,-3.665083554E-3
4.784096511E0,1.985253533E-3,-2.596100792E-3,-2.443389036E-3
4.793809011E0,7.635590737E-4,-1.374406274E-3,0.000000000E0
4.803522396E0,7.635590737E-4,-1.527118147E-4,0.000000000E0
4.813234844E0,3.206948051E-3,3.512371797E-3,-1.221694518E-3
4.822946563E0,3.206948051E-3,3.512371797E-3,1.221694518E-3
4.832659167E0,3.206948051E-3,2.290677279E-3,1.221694518E-3
4.842372448E0,3.206948051E-3,2.290677279E-3,2.443389036E-3
4.852084948E0,1.985253533E-3,-1.527118147E-4,3.665083554E-3
4.861796667E0,7.635590737E-4,-1.374406274E-3,3.665083554E-3
4.871509167E0,7.635590737E-4,-1.374406274E-3,3.665083554E-3
4.881222552E0,-4.581354442E-4,-1.527118147E-4,3.665083554E-3
4.890935000E0,-1.679830020E-3,1.068982761E-3,3.665083554E-3
4.900646719E0,-1.679830020E-3,1.068982761E-3,3.665083554E-3
4.910359323E0,-4.581354442E-4,3.512371797E-3,3.665083554E-3
4.920072605E0,-4.581354442E-4,2.290677279E-3,1.221694518E-3
4.929785052E0,-4.581354442E-4,1.068982761E-3,1.221694518E-3
4.939496823E0,1.985253533E-3,-1.374406274E-3,-1.221694518E-3
4.949209323E0,3.206948051E-3,-1.374406274E-3,-1.221694518E-3
4.958922709E0,3.206948051E-3,-1.374406274E-3,-1.221694518E-3
4.968635157E0,3.206948051E-3,1.068982761E-3,-1.221694518E-3
4.978346875E0,7.635590737E-4,1.068982761E-3,0.000000000E0
4.988059375E0,-4.581354442E-4,1.068982761E-3,0.000000000E0
4.997772761E0,-1.679830020E-3,2.290677279E-3,-1.221694518E-3
5.007485209E0,-4.581354442E-4,2.290677279E-3,-2.443389036E-3
5.017196980E0,-4.581354442E-4,1.068982761E-3,-1.221694518E-3
5.026909480E0,7.635590737E-4,-1.527118147E-4,-2.443389036E-3
5.036622865E0,1.985253533E-3,-1.527118147E-4,-2.443389036E-3
5.046335313E0,-4.581354442E-4,-1.527118147E-4,-2.443389036E-3
5.056047032E0,-2.901524538E-3,-1.527118147E-4,-1.221694518E-3
5.065759532E0,-4.123218823E-3,-1.527118147E-4,-1.221694518E-3
5.075472917E0,-2.901524538E-3,-1.374406274E-3,0.000000000E0
5.085185365E0,-4.581354442E-4,-1.527118147E-4,0.000000000E0
5.094897136E0,7.635590737E-4,1.068982761E-3,2.443389036E-3
5.104609636E0,7.635590737E-4,2.290677279E-3,3.665083554E-3
5.114322969E0,7.635590737E-4,-1.374406274E-3,3.665083554E-3
5.124035469E0,1.985253533E-3,-2.596100792E-3,2.443389036E-3
5.133747188E0,1.985253533E-3,-1.374406274E-3,2.443389036E-3
5.143459688E0,1.985253533E-3,-1.527118147E-4,4.886778072E-3
5.153173073E0,1.985253533E-3,2.290677279E-3,3.665083554E-3
5.162885521E0,1.985253533E-3,3.512371797E-3,3.665083554E-3
5.172597240E0,7.635590737E-4,3.512371797E-3,4.886778072E-3
5.182309844E0,-4.581354442E-4,2.290677279E-3,3.665083554E-3
5.192023125E0,7.635590737E-4,-1.527118147E-4,2.443389036E-3
5.201735625E0,-2.901524538E-3,-1.374406274E-3,2.443389036E-3
5.211447344E0,-2.901524538E-3,-2.596100792E-3,1.221694518E-3
5.221159844E0,-4.123218823E-3,-1.374406274E-3,1.221694518E-3
5.230873230E0,-4.123218823E-3,-2.596100792E-3,0.000000000E0
5.240585677E0,-4.123218823E-3,-2.596100792E-3,-1.221694518E-3
5.250297396E0,-4.123218823E-3,-1.374406274E-3,-1.221694518E-3
5.260010000E0,-2.901524538E-3,-1.374406274E-3,-2.443389036E-3
5.269723282E0,-2.901524538E-3,-1.527118147E-4,-2.443389036E-3
5.279435782E0,-2.901524538E-3,-1.527118147E-4,-2.443389036E-3
5.289147500E0,-1.679830020E-3,-1.527118147E-4,-2.443389036E-3
5.298860000E0,-4.581354442E-4,-1.374406274E-3,-2.443389036E-3
5.308573386E0,-1.679830020E-3,-1.374406274E-3,0.000000000E0
5.318285834E0,-4.581354442E-4,-1.374406274E-3,1.221694518E-3
5.327997552E0,-1.679830020E-3,-1.527118147E-4,2.443389036E-3
5.337710157E0,-4.123218823E-3,-1.527118147E-4,3.665083554E-3
5.347423438E0,-4.123218823E-3,1.068982761E-3,4.886778072E-3
5.357135938E0,-4.123218823E-3,-1.374406274E-3,4.886778072E-3
5.366847657E0,-5.344913341E-3,-3.817795310E-3,6.108472589E-3
5.376560157E0,-4.123218823E-3,-5.039489828E-3,6.108472589E-3
5.386273542E0,-2.901524538E-3,-3.817795310E-3,4.886778072E-3
5.395985990E0,-4.123218823E-3,-3.817795310E-3,4.886778072E-3
5.405697709E0,-2.901524538E-3,-1.374406274E-3,3.665083554E-3
5.415410313E0,-1.679830020E-3,1.068982761E-3,2.443389036E-3
5.425123594E0,-2.901524538E-3,1.068982761E-3,2.443389036E-3
5.434836094E0,-4.123218823E-3,-1.374406274E-3,1.221694518E-3
5.444547813E0,-1.679830020E-3,-1.374406274E-3,2.443389036E-3
5.454260313E0,-4.581354442E-4,-2.596100792E-3,1.221694518E-3
5.463973698E0,-4.581354442E-4,-2.596100792E-3,1.221694518E-3
5.473686146E0,-4.581354442E-4,-1.374406274E-3,1.221694518E-3
5.483397865E0,-1.679830020E-3,-1.374406274E-3,1.221694518E-3
5.493110469E0,-4.581354442E-4,-1.527118147E-4,1.221694518E-3
5.502823750E0,-4.581354442E-4,1.068982761E-3,0.000000000E0
5.512536250E0,-4.581354442E-4,2.290677279E-3,-1.221694518E-3
5.522247969E0,7.635590737E-4,2.290677279E-3,-1.221694518E-3
5.531960469E0,7.635590737E-4,-1.527118147E-4,-2.443389036E-3
5.541673855E0,1.985253533E-3,-2.596100792E-3,-2.443389036E-3
5.551386302E0,7.635590737E-4,-5.039489828E-3,0.000000000E0
5.561098021E0,-2.901524538E-3,-5.039489828E-3,1.221694518E-3
5.570810625E0,-2.901524538E-3,-2.596100792E-3,3.665083554E-3
5.580523907E0,-2.901524538E-3,1.068982761E-3,4.886778072E-3
5.590236407E0,-2.901524538E-3,2.290677279E-3,4.886778072E-3
5.599948125E0,7.635590737E-4,-1.374406274E-3,4.886778072E-3
5.609660625E0,3.206948051E-3,-2.596100792E-3,4.886778072E-3
5.619374011E0,3.206948051E-3,-2.596100792E-3,3.665083554E-3
5.629086459E0,7.635590737E-4,-2.596100792E-3,2.443389036E-3
5.638798230E0,7.635590737E-4,-1.374406274E-3,2.443389036E-3
5.648510730E0,1.985253533E-3,-2.596100792E-3,1.221694518E-3
5.658224115E0,1.985253533E-3,-1.374406274E-3,1.221694518E-3
5.667936563E0,3.206948051E-3,1.068982761E-3,1.221694518E-3
5.677648282E0,1.985253533E-3,1.068982761E-3,0.000000000E0
5.687360886E0,7.635590737E-4,-1.374406274E-3,0.000000000E0
5.697074167E0,-4.581354442E-4,-2.596100792E-3,-1.221694518E-3
5.706786615E0,-4.581354442E-4,-1.374406274E-3,-1.221694518E-3
5.716498386E0,-4.581354442E-4,-1.527118147E-4,-1.221694518E-3
5.726210886E0,-4.581354442E-4,1.068982761E-3,-1.221694518E-3
5.735924271E0,-1.679830020E-3,1.068982761E-3,-2.443389036E-3
5.745636719E0,-4.581354442E-4,1.068982761E-3,-2.443389036E-3
5.755348438E0,7.635590737E-4,-1.527118147E-4,-2.443389036E-3
5.765061042E0,7.635590737E-4,-1.374406274E-3,0.000000000E0
5.774774323E0,-4.581354442E-4,-1.374406274E-3,2.443389036E-3
5.784486823E0,-2.901524538E-3,-2.596100792E-3,2.443389036E-3
5.794198542E0,-4.123218823E-3,-3.817795310E-3,2.443389036E-3
5.803911042E0,-2.901524538E-3,-3.817795310E-3,2.443389036E-3
5.813624427E0,-2.901524538E-3,-3.817795310E-3,1.221694518E-3
5.823336875E0,7.635590737E-4,-2.596100792E-3,0.000000000E0
5.833048594E0,1.985253533E-3,-1.374406274E-3,-1.221694518E-3
5.842761198E0,1.985253533E-3,-1.374406274E-3,0.000000000E0
5.852474480E0,7.635590737E-4,-3.817795310E-3,2.443389036E-3
5.862186980E0,7.635590737E-4,-5.039489828E-3,3.665083554E-3
5.871898698E0,7.635590737E-4,-5.039489828E-3,4.886778072E-3
5.881611198E0,7.635590737E-4,-3.817795310E-3,6.108472589E-3
5.891324584E0,3.206948051E-3,-2.596100792E-3,4.886778072E-3
5.901037032E0,3.206948051E-3,-1.527118147E-4,4.886778072E-3
5.910748802E0,3.206948051E-3,-1.374406274E-3,3.665083554E-3
5.920461302E0,1.985253533E-3,-1.374406274E-3,2.443389036E-3
5.930174688E0,7.635590737E-4,-1.374406274E-3,3.665083554E-3
5.939887136E0,-1.679830020E-3,-1.374406274E-3,3.665083554E-3
5.949598855E0,-1.679830020E-3,-1.374406274E-3,2.443389036E-3
5.959311459E0,-1.679830020E-3,-1.374406274E-3,2.443389036E-3
5.969024740E0,-4.581354442E-4,1.068982761E-3,3.665083554E-3
5.978737240E0,7.635590737E-4,2.290677279E-3,3.665083554E-3
5.988448959E0,1.985253533E-3,2.290677279E-3,3.665083554E-3
5.998161459E0,1.985253533E-3,-1.527118147E-4,3.665083554E-3
6.007874844E0,1.985253533E-3,-2.596100792E-3,3.665083554E-3
6.017587292E0,1.985253533E-3,-1.374406274E-3,3.665083554E-3
6.027299063E0,7.635590737E-4,-1.374406274E-3,2.443389036E-3
6.037011563E0,1.985253533E-3,-1.527118147E-4,1.221694518E-3
6.046724948E0,3.206948051E-3,1.068982761E-3,0.000000000E0
6.056437396E0,3.206948051E-3,1.068982761E-3,-1.221694518E-3
6.066149167E0,3.206948051E-3,-1.527118147E-4,-3.665083554E-3
6.075861667E0,1.985253533E-3,-1.374406274E-3,-1.221694518E-3
6.085575052E0,7.635590737E-4,-3.817795310E-3,0.000000000E0
6.095287500E0,7.635590737E-4,-3.817795310E-3,0.000000000E0
6.104999219E0,-1.679830020E-3,-2.596100792E-3,3.665083554E-3
6.114711823E0,-4.581354442E-4,-2.596100792E-3,2.443389036E-3
6.124425105E0,-1.679830020E-3,-1.374406274E-3,3.665083554E-3
6.134137605E0,-1.679830020E-3,1.068982761E-3,3.665083554E-3
6.143849323E0,-1.679830020E-3,2.290677279E-3,2.443389036E-3
6.153561927E0,-2.901524538E-3,2.290677279E-3,1.221694518E-3
6.163275209E0,-4.581354442E-4,2.290677279E-3,-1.221694518E-3
6.172987709E0,-4.581354442E-4,3.512371797E-3,-1.221694518E-3
6.182699427E0,1.985253533E-3,3.512371797E-3,-2.443389036E-3
6.192411927E0,1.985253533E-3,2.290677279E-3,-2.443389036E-3
6.202125313E0,7.635590737E-4,1.068982761E-3,-1.221694518E-3
6.211837813E0,1.985253533E-3,-1.527118147E-4,-1.221694518E-3
6.221549532E0,1.985253533E-3,-1.374406274E-3,-1.221694518E-3
6.231262032E0,7.635590737E-4,-1.374406274E-3,0.000000000E0
6.240975417E0,-4.581354442E-4,-1.527118147E-4,-1.221694518E-3
6.250687865E0,1.985253533E-3,-1.527118147E-4,-2.443389036E-3
6.260399636E0,3.206948051E-3,-1.374406274E-3,-2.443389036E-3
6.270112136E0,3.206948051E-3,-2.596100792E-3,-1.221694518E-3
6.279825521E0,1.985253533E-3,-1.374406274E-3,-1.221694518E-3
6.289537969E0,-4.581354442E-4,-1.527118147E-4,-1.221694518E-3
6.299249740E0,-1.679830020E-3,-1.527118147E-4,-1.221694518E-3
6.308962240E0,-2.901524538E-3,-1.527118147E-4,-1.221694518E-3
6.318675625E0,-4.123218823E-3,-1.527118147E-4,1.221694518E-3
6.328388073E0,-4.123218823E-3,-1.527118147E-4,1.221694518E-3
6.338099792E0,-4.123218823E-3,-1.374406274E-3,1.221694518E-3
6.347812396E0,-1.679830020E-3,-2.596100792E-3,2.443389036E-3
6.357525730E0,-1.679830020E-3,-5.039489828E-3,3.665083554E-3
6.367238177E0,-4.581354442E-4,-6.261184346E-3,4.886778072E-3
6.376949896E0,-4.581354442E-4,-5.039489828E-3,3.665083554E-3
6.386662500E0,-2.901524538E-3,-1.374406274E-3,3.665083554E-3
6.396375834E0,-5.344913341E-3,3.512371797E-3,3.665083554E-3
6.406088282E0,-6.566607859E-3,4.734066315E-3,1.221694518E-3
6.415800052E0,-7.788302377E-3,1.068982761E-3,0.000000000E0
6.425512552E0,-6.566607859E-3,-2.596100792E-3,-2.443389036E-3
6.435225938E0,-5.344913341E-3,-3.817795310E-3,-3.665083554E-3
6.444938386E0,-5.344913341E-3,-3.817795310E-3,-4.886778072E-3
6.454650157E0,-4.123218823E-3,-2.596100792E-3,-6.108472589E-3
6.464362657E0,-1.679830020E-3,1.068982761E-3,-7.330167107E-3
6.474076042E0,-1.679830020E-3,2.290677279E-3,-6.108472589E-3
6.483788490E0,7.635590737E-4,2.290677279E-3,-7.330167107E-3
6.493500261E0,3.206948051E-3,1.068982761E-3,-6.108472589E-3
6.503212761E0,3.206948051E-3,-1.374406274E-3,-6.108472589E-3
6.512926146E0,4.428642802E-3,-5.039489828E-3,-3.665083554E-3
6.522638594E0,1.985253533E-3,-7.482878864E-3,-3.665083554E-3
6.532350365E0,-4.581354442E-4,-3.817795310E-3,-1.221694518E-3
6.542062865E0,-2.901524538E-3,-1.527118147E-4,0.000000000E0
6.551776250E0,-4.581354442E-4,2.290677279E-3,1.221694518E-3
6.561488698E0,7.635590737E-4,2.290677279E-3,2.443389036E-3
6.571200469E0,1.985253533E-3,-1.527118147E-4,3.665083554E-3
6.580912969E0,1.985253533E-3,-1.527118147E-4,3.665083554E-3
6.590626355E0,7.635590737E-4,-1.527118147E-4,6.108472589E-3
6.600338802E0,-1.679830020E-3,-1.374406274E-3,7.330167107E-3
6.610050573E0,-1.679830020E-3,-1.527118147E-4,6.108472589E-3
6.619763073E0,-4.581354442E-4,-1.527118147E-4,6.108472589E-3
6.629476459E0,-4.581354442E-4,-1.374406274E-3,4.886778072E-3
6.639188907E0,7.635590737E-4,-1.374406274E-3,3.665083554E-3
6.648900677E0,-4.581354442E-4,-1.374406274E-3,3.665083554E-3
6.658613177E0,-4.581354442E-4,-2.596100792E-3,1.221694518E-3
6.668326563E0,-4.581354442E-4,-2.596100792E-3,-1.221694518E-3
6.678039011E0,-1.679830020E-3,-2.596100792E-3,0.000000000E0
6.687750782E0,-2.901524538E-3,-3.817795310E-3,0.000000000E0
6.697463282E0,-2.901524538E-3,-2.596100792E-3,-1.221694518E-3
6.707176667E0,-4.123218823E-3,-1.527118147E-4,0.000000000E0
6.716889167E0,-5.344913341E-3,1.068982761E-3,0.000000000E0
6.726600886E0,-4.123218823E-3,2.290677279E-3,0.000000000E0
6.736313386E0,-5.344913341E-3,1.068982761E-3,0.000000000E0
6.746026771E0,-6.566607859E-3,1.068982761E-3,1.221694518E-3
6.755739271E0,-6.566607859E-3,1.068982761E-3,-2.443389036E-3
6.765450990E0,-6.566607859E-3,-1.527118147E-4,-3.665083554E-3
6.775163594E0,-5.344913341E-3,-1.527118147E-4,-6.108472589E-3
6.784876875E0,-2.901524538E-3,-1.527118147E-4,-8.551862091E-3
6.794589375E0,-1.679830020E-3,1.068982761E-3,-9.773556143E-3
6.804301094E0,7.635590737E-4,1.068982761E-3,-9.773556143E-3
6.814013698E0,4.428642802E-3,-1.527118147E-4,-8.551862091E-3
6.823726980E0,5.650337320E-3,-2.596100792E-3,-7.330167107E-3
6.833439480E0,6.872031838E-3,-5.039489828E-3,-6.108472589E-3
6.843151198E0,3.206948051E-3,-3.817795310E-3,-4.886778072E-3
6.852863802E0,7.635590737E-4,-1.374406274E-3,-3.665083554E-3
6.862577136E0,1.985253533E-3,1.068982761E-3,-2.443389036E-3
6.872289584E0,1.985253533E-3,2.290677279E-3,-1.221694518E-3
6.882001302E0,1.985253533E-3,2.290677279E-3,0.000000000E0
6.891713907E0,7.635590737E-4,1.068982761E-3,1.221694518E-3
6.901427240E0,-1.679830020E-3,-1.374406274E-3,3.665083554E-3
6.911139688E0,-2.901524538E-3,-2.596100792E-3,2.443389036E-3
6.920851407E0,-4.123218823E-3,-1.527118147E-4,3.665083554E-3
6.930564011E0,-2.901524538E-3,1.068982761E-3,3.665083554E-3
6.940277344E0,-1.679830020E-3,3.512371797E-3,4.886778072E-3
6.949989792E0,-4.581354442E-4,4.734066315E-3,4.886778072E-3
6.959701563E0,-4.581354442E-4,3.512371797E-3,3.665083554E-3
6.969414063E0,-1.679830020E-3,1.068982761E-3,2.443389036E-3
6.979127448E0,-1.679830020E-3,-1.374406274E-3,1.221694518E-3
6.988839896E0,-1.679830020E-3,-1.374406274E-3,1.221694518E-3
6.998551667E0,-1.679830020E-3,-1.374406274E-3,1.221694518E-3
7.008264167E0,-2.901524538E-3,-1.527118147E-4,1.221694518E-3
7.017977552E0,-2.901524538E-3,-1.527118147E-4,2.443389036E-3
7.027690052E0,-1.679830020E-3,-1.527118147E-4,4.886778072E-3
7.037401771E0,-1.679830020E-3,-1.374406274E-3,3.665083554E-3
7.047114271E0,-4.581354442E-4,-1.374406274E-3,3.665083554E-3
7.056827657E0,7.635590737E-4,-1.374406274E-3,1.221694518E-3
7.066540157E0,7.635590737E-4,-1.527118147E-4,-1.221694518E-3
7.076251875E0,7.635590737E-4,-1.527118147E-4,-2.443389036E-3
7.085964375E0,7.635590737E-4,-1.527118147E-4,-3.665083554E-3
7.095677761E0,7.635590737E-4,-1.527118147E-4,-3.665083554E-3
7.105390261E0,-4.581354442E-4,-1.527118147E-4,-4.886778072E-3
7.115101980E0,7.635590737E-4,-1.527118147E-4,-4.886778072E-3
7.124814584E0,-4.581354442E-4,-1.374406274E-3,-4.886778072E-3
7.134527865E0,-4.581354442E-4,-2.596100792E-3,-3.665083554E-3
7.144240365E0,-4.581354442E-4,-2.596100792E-3,-2.443389036E-3
7.153952084E0,-4.581354442E-4,-2.596100792E-3,-1.221694518E-3
7.163664688E0,7.635590737E-4,-2.596100792E-3,0.000000000E0
7.173377969E0,7.635590737E-4,-1.374406274E-3,0.000000000E0
7.183090469E0,7.635590737E-4,-1.527118147E-4,-1.221694518E-3
7.192802188E0,7.635590737E-4,-1.527118147E-4,0.000000000E0
7.202514792E0,7.635590737E-4,-1.527118147E-4,-1.221694518E-3
7.212228125E0,7.635590737E-4,-1.374406274E-3,0.000000000E0
7.221940573E0,7.635590737E-4,-1.374406274E-3,-1.221694518E-3
7.231652292E0,1.985253533E-3,-1.374406274E-3,-1.221694518E-3
7.241364896E0,1.985253533E-3,-1.374406274E-3,-2.443389036E-3
7.251078230E0,7.635590737E-4,-1.374406274E-3,-1.221694518E-3
7.260790677E0,7.635590737E-4,-1.374406274E-3,-1.221694518E-3
7.270502396E0,7.635590737E-4,-1.374406274E-3,0.000000000E0
7.280215000E0,7.635590737E-4,-1.374406274E-3,0.000000000E0
7.289928334E0,7.635590737E-4,-1.374406274E-3,1.221694518E-3
7.299640782E0,1.985253533E-3,-1.374406274E-3,1.221694518E-3
7.309352552E0,7.635590737E-4,-1.527118147E-4,1.221694518E-3
7.319065052E0,7.635590737E-4,1.068982761E-3,1.221694518E-3
7.328778438E0,1.985253533E-3,3.512371797E-3,1.221694518E-3
7.338490886E0,1.985253533E-3,3.512371797E-3,0.000000000E0
7.348202657E0,1.985253533E-3,3.512371797E-3,1.221694518E-3
7.357915157E0,7.635590737E-4,1.068982761E-3,2.443389036E-3
7.367628542E0,7.635590737E-4,1.068982761E-3,2.443389036E-3
7.377340990E0,7.635590737E-4,1.068982761E-3,2.443389036E-3
7.387052761E0,-4.581354442E-4,2.290677279E-3,2.443389036E-3
7.396765261E0,7.635590737E-4,2.290677279E-3,1.221694518E-3
7.406478646E0,1.985253533E-3,2.290677279E-3,1.221694518E-3
7.416191094E0,3.206948051E-3,-1.527118147E-4,2.443389036E-3
7.425902865E0,4.428642802E-3,1.068982761E-3,1.221694518E-3
7.435615365E0,1.985253533E-3,2.290677279E-3,0.000000000E0
7.445328750E0,-4.581354442E-4,3.512371797E-3,-1.221694518E-3
7.455041198E0,7.635590737E-4,2.290677279E-3,-2.443389036E-3
7.464752969E0,1.985253533E-3,1.068982761E-3,-4.886778072E-3
7.474465469E0,3.206948051E-3,1.068982761E-3,-3.665083554E-3
7.484178855E0,7.635590737E-4,2.290677279E-3,-3.665083554E-3
7.493891302E0,-4.581354442E-4,2.290677279E-3,-2.443389036E-3
7.503603073E0,-1.679830020E-3,1.068982761E-3,-3.665083554E-3
7.513315573E0,-1.679830020E-3,-1.527118147E-4,-3.665083554E-3
7.523028959E0,-4.581354442E-4,1.068982761E-3,-3.665083554E-3
7.532741459E0,7.635590737E-4,1.068982761E-3,-2.443389036E-3
7.542453177E0,1.985253533E-3,3.512371797E-3,-3.665083554E-3
7.552165677E0,7.635590737E-4,4.734066315E-3,-2.443389036E-3
7.561879063E0,7.635590737E-4,2.290677279E-3,-2.443389036E-3
7.571591563E0,7.635590737E-4,-1.527118147E-4,-1.221694518E-3
7.581303282E0,-1.679830020E-3,-1.374406274E-3,0.000000000E0
7.591015886E0,-1.679830020E-3,-1.374406274E-3,1.221694518E-3
7.600729167E0,-2.901524538E-3,1.068982761E-3,1.221694518E-3
7.610441667E0,-2.901524538E-3,2.290677279E-3,1.221694518E-3
7.620153386E0,-1.679830020E-3,2.290677279E-3,1.221694518E-3
7.629865886E0,-1.679830020E-3,2.290677279E-3,1.221694518E-3
7.639579271E0,-4.581354442E-4,2.290677279E-3,1.221694518E-3
7.649291771E0,-4.581354442E-4,1.068982761E-3,0.000000000E0
7.659003490E0,-4.581354442E-4,-1.374406274E-3,-1.221694518E-3
7.668715990E0,-4.581354442E-4,-1.374406274E-3,-3.665083554E-3
7.678429375E0,-4.581354442E-4,-1.374406274E-3,-1.221694518E-3
7.688141875E0,-4.581354442E-4,1.068982761E-3,-1.221694518E-3
7.697853594E0,7.635590737E-4,3.512371797E-3,0.000000000E0
7.707566094E0,7.635590737E-4,3.512371797E-3,1.221694518E-3
7.717279480E0,7.635590737E-4,2.290677279E-3,1.221694518E-3
7.726991980E0,7.635590737E-4,1.068982761E-3,0.000000000E0
7.736703698E0,7.635590737E-4,-1.527118147E-4,2.443389036E-3
7.746416302E0,7.635590737E-4,-1.527118147E-4,2.443389036E-3
7.756129584E0,7.635590737E-4,-1.527118147E-4,2.443389036E-3
7.765842084E0,7.635590737E-4,1.068982761E-3,2.443389036E-3
7.775553802E0,7.635590737E-4,1.068982761E-3,2.443389036E-3
7.785266302E0,7.635590737E-4,1.068982761E-3,1.221694518E-3
7.794979688E0,7.635590737E-4,-1.527118147E-4,1.221694518E-3
7.804692188E0,1.985253533E-3,-1.527118147E-4,0.000000000E0
7.814403907E0,7.635590737E-4,-1.374406274E-3,0.000000000E0
7.824116511E0,1.985253533E-3,-1.374406274E-3,0.000000000E0
7.833829792E0,1.985253533E-3,-1.374406274E-3,-1.221694518E-3
7.843542292E0,3.206948051E-3,-1.374406274E-3,-2.443389036E-3
7.853254011E0,1.985253533E-3,-1.374406274E-3,-1.221694518E-3
7.862966511E0,1.985253533E-3,-1.374406274E-3,-1.221694518E-3
7.872679896E0,7.635590737E-4,-1.527118147E-4,0.000000000E0
7.882392344E0,1.985253533E-3,-1.374406274E-3,-1.221694518E-3
7.892104115E0,7.635590737E-4,-1.527118147E-4,0.000000000E0
7.901816615E0,1.985253533E-3,-1.527118147E-4,1.221694518E-3
7.911530000E0,7.635590737E-4,-1.527118147E-4,1.221694518E-3
7.921242448E0,1.985253533E-3,1.068982761E-3,0.000000000E0
7.930954219E0,1.985253533E-3,1.068982761E-3,1.221694518E-3
7.940666719E0,7.635590737E-4,2.290677279E-3,1.221694518E-3
7.950380105E0,7.635590737E-4,1.068982761E-3,1.221694518E-3
7.960092552E0,-4.581354442E-4,-1.527118147E-4,1.221694518E-3
7.969804323E0,-4.581354442E-4,-1.374406274E-3,1.221694518E-3
7.979516823E0,-4.581354442E-4,-1.527118147E-4,1.221694518E-3
7.989230209E0,7.635590737E-4,1.068982761E-3,1.221694518E-3
7.998942657E0,7.635590737E-4,1.068982761E-3,1.221694518E-3
8.008654427E0,1.985253533E-3,2.290677279E-3,1.221694518E-3
8.018366927E0,3.206948051E-3,1.068982761E-3,1.221694518E-3
8.028080313E0,4.428642802E-3,1.068982761E-3,0.000000000E0
8.037792761E0,3.206948051E-3,1.068982761E-3,0.000000000E0
8.047504532E0,7.635590737E-4,2.290677279E-3,-1.221694518E-3
8.057217032E0,-4.581354442E-4,2.290677279E-3,-1.221694518E-3
8.066930417E0,7.635590737E-4,1.068982761E-3,-2.443389036E-3
8.076642865E0,7.635590737E-4,1.068982761E-3,-2.443389036E-3
8.086354636E0,1.985253533E-3,3.512371797E-3,-1.221694518E-3
8.096067136E0,7.635590737E-4,5.955760833E-3,-1.221694518E-3
8.105780521E0,-1.679830020E-3,4.734066315E-3,0.000000000E0
8.115492969E0,-2.901524538E-3,2.290677279E-3,1.221694518E-3
8.125204740E0,-4.581354442E-4,-1.374406274E-3,0.000000000E0
8.134917240E0,-4.581354442E-4,-1.374406274E-3,2.443389036E-3
8.144630625E0,-4.581354442E-4,1.068982761E-3,4.886778072E-3
8.154343073E0,1.985253533E-3,1.068982761E-3,3.665083554E-3
8.164054844E0,1.985253533E-3,1.068982761E-3,4.886778072E-3
8.173767344E0,1.985253533E-3,1.068982761E-3,4.886778072E-3
8.183480730E0,7.635590737E-4,1.068982761E-3,2.443389036E-3
8.193193177E0,1.985253533E-3,1.068982761E-3,2.443389036E-3
8.202904948E0,-4.581354442E-4,1.068982761E-3,3.665083554E-3
8.212617448E0,-1.679830020E-3,1.068982761E-3,2.443389036E-3
8.222330834E0,-1.679830020E-3,-1.374406274E-3,1.221694518E-3
8.232043282E0,-2.901524538E-3,-1.374406274E-3,0.000000000E0
8.241755000E0,-2.901524538E-3,-2.596100792E-3,-1.221694518E-3
8.251467605E0,-2.901524538E-3,-2.596100792E-3,-1.221694518E-3
8.261180938E0,-2.901524538E-3,-1.374406274E-3,-2.443389036E-3
8.270893386E0,-2.901524538E-3,-1.374406274E-3,-2.443389036E-3
8.280605105E0,-2.901524538E-3,-1.374406274E-3,-2.443389036E-3
8.290317709E0,-1.679830020E-3,-1.374406274E-3,-1.221694518E-3
8.300030990E0,-4.581354442E-4,-1.374406274E-3,0.000000000E0
8.309743490E0,-1.679830020E-3,-1.374406274E-3,0.000000000E0
8.319455209E0,-1.679830020E-3,-2.596100792E-3,1.221694518E-3
8.329167813E0,-4.581354442E-4,-2.596100792E-3,2.443389036E-3
8.338881146E0,-1.679830020E-3,-2.596100792E-3,2.443389036E-3
8.348593594E0,-4.581354442E-4,-1.374406274E-3,2.443389036E-3
8.358305313E0,-4.581354442E-4,-1.374406274E-3,3.665083554E-3
8.368017917E0,-4.581354442E-4,-1.374406274E-3,3.665083554E-3
8.377731250E0,-1.679830020E-3,-1.527118147E-4,3.665083554E-3
8.387443698E0,-2.901524538E-3,-1.527118147E-4,3.665083554E-3
8.397155417E0,-2.901524538E-3,-1.527118147E-4,4.886778072E-3
8.406868021E0,-2.901524538E-3,-1.374406274E-3,6.108472589E-3
8.416581355E0,-4.581354442E-4,-1.527118147E-4,4.886778072E-3
8.426293802E0,-4.581354442E-4,-1.527118147E-4,3.665083554E-3
8.436005521E0,-1.679830020E-3,1.068982761E-3,2.443389036E-3
8.445718125E0,-1.679830020E-3,1.068982761E-3,2.443389036E-3
8.455431407E0,-1.679830020E-3,-1.527118147E-4,0.000000000E0
8.465143907E0,-1.679830020E-3,-3.817795310E-3,0.000000000E0
8.474855625E0,-4.581354442E-4,-5.039489828E-3,0.000000000E0
8.484568230E0,-4.581354442E-4,-3.817795310E-3,0.000000000E0
8.494281511E0,-4.581354442E-4,-1.374406274E-3,1.221694518E-3
8.503994011E0,-1.679830020E-3,-1.527118147E-4,2.443389036E-3
8.513705730E0,-1.679830020E-3,-1.527118147E-4,2.443389036E-3
8.523418334E0,-1.679830020E-3,-1.374406274E-3,2.443389036E-3
8.533131615E0,-4.581354442E-4,-2.596100792E-3,3.665083554E-3
8.542844115E0,-1.679830020E-3,-3.817795310E-3,3.665083554E-3
8.552555834E0,-2.901524538E-3,-3.817795310E-3,2.443389036E-3
8.562268438E0,-4.123218823E-3,-3.817795310E-3,4.886778072E-3
8.571981719E0,-4.123218823E-3,-3.817795310E-3,3.665083554E-3
8.581694219E0,-4.123218823E-3,-2.596100792E-3,6.108472589E-3
8.591405938E0,-2.901524538E-3,-1.527118147E-4,4.886778072E-3
8.601118542E0,-1.679830020E-3,2.290677279E-3,3.665083554E-3
8.610831823E0,7.635590737E-4,4.734066315E-3,3.665083554E-3
8.620544323E0,1.985253533E-3,3.512371797E-3,2.443389036E-3
8.630256042E0,3.206948051E-3,-1.527118147E-4,3.665083554E-3
8.639968646E0,3.206948051E-3,-2.596100792E-3,3.665083554E-3
8.649681927E0,7.635590737E-4,-2.596100792E-3,3.665083554E-3
8.659394427E0,-1.679830020E-3,-2.596100792E-3,4.886778072E-3
8.669106146E0,-4.581354442E-4,-2.596100792E-3,2.443389036E-3
8.678818750E0,7.635590737E-4,-1.374406274E-3,2.443389036E-3
8.688532032E0,1.985253533E-3,-1.527118147E-4,2.443389036E-3
8.698244532E0,1.985253533E-3,2.290677279E-3,2.443389036E-3
8.707956250E0,1.985253533E-3,1.068982761E-3,1.221694518E-3
8.717668855E0,4.428642802E-3,-1.374406274E-3,0.000000000E0
8.727382136E0,4.428642802E-3,-1.374406274E-3,-2.443389036E-3
8.737094636E0,3.206948051E-3,-1.527118147E-4,0.000000000E0
8.746806355E0,1.985253533E-3,-1.374406274E-3,1.221694518E-3
8.756518959E0,-4.581354442E-4,-1.374406274E-3,3.665083554E-3
8.766232240E0,-2.901524538E-3,-1.374406274E-3,3.665083554E-3
8.775944740E0,-1.679830020E-3,-1.527118147E-4,3.665083554E-3
8.785656459E0,-4.581354442E-4,-1.527118147E-4,3.665083554E-3
8.795369063E0,1.985253533E-3,1.068982761E-3,4.886778072E-3
8.805082344E0,7.635590737E-4,3.512371797E-3,3.665083554E-3
8.814794844E0,-4.581354442E-4,3.512371797E-3,3.665083554E-3
8.824506563E0,-1.679830020E-3,2.290677279E-3,4.886778072E-3
8.834219167E0,-2.901524538E-3,-1.374406274E-3,4.886778072E-3
8.843932448E0,-2.901524538E-3,-2.596100792E-3,3.665083554E-3
8.853644948E0,-1.679830020E-3,-1.527118147E-4,1.221694518E-3
8.863356667E0,-4.581354442E-4,2.290677279E-3,0.000000000E0
8.873069271E0,1.985253533E-3,4.734066315E-3,-2.443389036E-3
8.882782552E0,1.985253533E-3,4.734066315E-3,-2.443389036E-3
8.892495052E0,1.985253533E-3,3.512371797E-3,-2.443389036E-3
8.902206771E0,7.635590737E-4,1.068982761E-3,-1.221694518E-3
8.911919375E0,-4.581354442E-4,-2.596100792E-3,0.000000000E0
8.921632657E0,-2.901524538E-3,-3.817795310E-3,0.000000000E0
8.931345157E0,-1.679830020E-3,-2.596100792E-3,1.221694518E-3
8.941056875E0,-1.679830020E-3,1.068982761E-3,2.443389036E-3
8.950769375E0,-1.679830020E-3,3.512371797E-3,1.221694518E-3
8.960482761E0,-1.679830020E-3,3.512371797E-3,0.000000000E0
8.970195261E0,-4.581354442E-4,1.068982761E-3,-1.221694518E-3
8.979906980E0,7.635590737E-4,-1.374406274E-3,-1.221694518E-3
8.989619480E0,1.985253533E-3,-2.596100792E-3,-1.221694518E-3
8.999332865E0,7.635590737E-4,-3.817795310E-3,1.221694518E-3
9.009045313E0,1.985253533E-3,-1.374406274E-3,4.886778072E-3
9.018757084E0,1.985253533E-3,1.068982761E-3,6.108472589E-3
9.028469584E0,7.635590737E-4,3.512371797E-3,7.330167107E-3
9.038182969E0,1.985253533E-3,2.290677279E-3,7.330167107E-3
9.047895417E0,3.206948051E-3,1.068982761E-3,7.330167107E-3
9.057607188E0,3.206948051E-3,-1.527118147E-4,4.886778072E-3
9.067319688E0,3.206948051E-3,-2.596100792E-3,3.665083554E-3
9.077033073E0,7.635590737E-4,-5.039489828E-3,2.443389036E-3
9.086745521E0,-4.581354442E-4,-5.039489828E-3,3.665083554E-3
9.096457292E0,-1.679830020E-3,-5.039489828E-3,1.221694518E-3
9.106169792E0,-1.679830020E-3,-2.596100792E-3,1.221694518E-3
9.115883177E0,-1.679830020E-3,-1.374406274E-3,1.221694518E-3
9.125595625E0,-4.581354442E-4,-1.527118147E-4,0.000000000E0
9.135307396E0,-1.679830020E-3,-1.527118147E-4,-2.443389036E-3
9.145019896E0,-2.901524538E-3,-1.527118147E-4,0.000000000E0
9.154733282E0,-4.123218823E-3,-1.374406274E-3,-1.221694518E-3
9.164445730E0,-4.123218823E-3,-2.596100792E-3,-1.221694518E-3
9.174157500E0,-2.901524538E-3,-1.374406274E-3,-1.221694518E-3
9.183870000E0,-1.679830020E-3,1.068982761E-3,-1.221694518E-3
9.193583386E0,-1.679830020E-3,2.290677279E-3,-2.443389036E-3
9.203295834E0,-1.679830020E-3,1.068982761E-3,-2.443389036E-3
9.213007605E0,-4.581354442E-4,1.068982761E-3,-2.443389036E-3
9.222720105E0,7.635590737E-4,1.068982761E-3,-2.443389036E-3
9.232433490E0,3.206948051E-3,1.068982761E-3,-2.443389036E-3
9.242145938E0,4.428642802E-3,2.290677279E-3,-2.443389036E-3
9.251857657E0,5.650337320E-3,2.290677279E-3,-1.221694518E-3
9.261570261E0,5.650337320E-3,2.290677279E-3,0.000000000E0
9.271283594E0,5.650337320E-3,-1.527118147E-4,0.000000000E0
9.280996042E0,6.872031838E-3,-2.596100792E-3,-1.221694518E-3
9.290707761E0,6.872031838E-3,-2.596100792E-3,0.000000000E0
9.300420365E0,4.428642802E-3,-1.374406274E-3,1.221694518E-3
9.310133698E0,1.985253533E-3,-1.527118147E-4,1.221694518E-3
9.319846146E0,-4.581354442E-4,1.068982761E-3,1.221694518E-3
9.329557865E0,-4.581354442E-4,2.290677279E-3,1.221694518E-3
9.339270469E0,-4.581354442E-4,3.512371797E-3,2.443389036E-3
9.348983750E0,-4.581354442E-4,2.290677279E-3,2.443389036E-3
9.358696250E0,-1.679830020E-3,2.290677279E-3,2.443389036E-3
9.368407969E0,-4.581354442E-4,2.290677279E-3,2.443389036E-3
9.378120573E0,-1.679830020E-3,1.068982761E-3,1.221694518E-3
9.387833855E0,-1.679830020E-3,1.068982761E-3,1.221694518E-3
9.397546355E0,-1.679830020E-3,1.068982761E-3,1.221694518E-3
9.407258073E0,-2.901524538E-3,1.068982761E-3,0.000000000E0
9.416970677E0,-2.901524538E-3,1.068982761E-3,-1.221694518E-3
9.426683959E0,-2.901524538E-3,2.290677279E-3,-1.221694518E-3
9.436396459E0,-2.901524538E-3,1.068982761E-3,-1.221694518E-3
9.446108177E0,-1.679830020E-3,-1.374406274E-3,-3.665083554E-3
9.455820677E0,-4.581354442E-4,-1.374406274E-3,-3.665083554E-3
9.465534063E0,7.635590737E-4,1.068982761E-3,-4.886778072E-3
9.475246563E0,7.635590737E-4,2.290677279E-3,-4.886778072E-3
9.484958282E0,-4.581354442E-4,2.290677279E-3,-4.886778072E-3
9.494670782E0,-1.679830020E-3,2.290677279E-3,-2.443389036E-3
9.504384167E0,-2.901524538E-3,2.290677279E-3,0.000000000E0
9.514096667E0,-1.679830020E-3,2.290677279E-3,2.443389036E-3
9.523808386E0,-4.581354442E-4,-1.527118147E-4,2.443389036E-3
9.533520886E0,-1.679830020E-3,-2.596100792E-3,2.443389036E-3
9.543234271E0,-1.679830020E-3,-1.374406274E-3,3.665083554E-3
9.552946719E0,7.635590737E-4,-1.374406274E-3,2.443389036E-3
9.562658490E0,-4.581354442E-4,-1.374406274E-3,2.443389036E-3
9.572370990E0,7.635590737E-4,-1.527118147E-4,3.665083554E-3
9.582084375E0,7.635590737E-4,-1.374406274E-3,4.886778072E-3
9.591796823E0,-4.581354442E-4,-1.374406274E-3,6.108472589E-3
9.601508594E0,-4.581354442E-4,-1.374406274E-3,6.108472589E-3
9.611221094E0,-4.581354442E-4,-1.527118147E-4,6.108472589E-3
9.620934427E0,-1.679830020E-3,-1.374406274E-3,4.886778072E-3
9.630646927E0,-4.581354442E-4,-1.374406274E-3,3.665083554E-3
9.640358646E0,7.635590737E-4,1.068982761E-3,2.443389036E-3
9.650071250E0,4.428642802E-3,3.512371797E-3,1.221694518E-3
9.659784532E0,4.428642802E-3,3.512371797E-3,2.443389036E-3
9.669497032E0,4.428642802E-3,-1.527118147E-4,1.221694518E-3
9.679208750E0,1.985253533E-3,-2.596100792E-3,2.443389036E-3
9.688921355E0,-4.581354442E-4,-3.817795310E-3,1.221694518E-3
9.698634636E0,-1.679830020E-3,-2.596100792E-3,0.000000000E0
9.708347136E0,-4.581354442E-4,-1.374406274E-3,-2.443389036E-3
9.718058855E0,-4.581354442E-4,2.290677279E-3,-3.665083554E-3
9.727771355E0,7.635590737E-4,3.512371797E-3,-3.665083554E-3
9.737484740E0,7.635590737E-4,1.068982761E-3,-3.665083554E-3
9.747197240E0,1.985253533E-3,1.068982761E-3,-2.443389036E-3
9.756908959E0,-4.581354442E-4,-1.374406274E-3,-1.221694518E-3
9.766621459E0,-2.901524538E-3,-2.596100792E-3,1.221694518E-3
9.776334844E0,-4.123218823E-3,-2.596100792E-3,3.665083554E-3
9.786047292E0,-5.344913341E-3,-2.596100792E-3,4.886778072E-3
9.795759063E0,-4.123218823E-3,-1.374406274E-3,4.886778072E-3
9.805471563E0,-1.679830020E-3,-1.374406274E-3,3.665083554E-3
9.815184948E0,7.635590737E-4,-1.527118147E-4,1.221694518E-3
9.824897396E0,4.428642802E-3,-1.527118147E-4,2.443389036E-3
9.834609115E0,3.206948051E-3,-2.596100792E-3,3.665083554E-3
9.844321719E0,4.428642802E-3,-2.596100792E-3,3.665083554E-3
9.854035000E0,3.206948051E-3,-3.817795310E-3,4.886778072E-3
9.863747500E0,3.206948051E-3,-5.039489828E-3,6.108472589E-3
9.873459219E0,3.206948051E-3,-5.039489828E-3,6.108472589E-3
9.883171823E0,4.428642802E-3,-2.596100792E-3,4.886778072E-3
9.892885105E0,4.428642802E-3,1.068982761E-3,4.886778072E-3
9.902597605E0,3.206948051E-3,3.512371797E-3,2.443389036E-3
9.912309323E0,1.985253533E-3,3.512371797E-3,1.221694518E-3
9.922021823E0,1.985253533E-3,1.068982761E-3,-1.221694518E-3
9.931735209E0,7.635590737E-4,-2.596100792E-3,-1.221694518E-3
9.941447657E0,-4.581354442E-4,-3.817795310E-3,-3.665083554E-3
9.951159427E0,-1.679830020E-3,-1.527118147E-4,-2.443389036E-3
9.960871927E0,-2.901524538E-3,3.512371797E-3,-1.221694518E-3
9.970585313E0,-2.901524538E-3,5.955760833E-3,0.000000000E0
9.980297761E0,-2.901524538E-3,3.512371797E-3,1.221694518E-3
9.990009532E0,-2.901524538E-3,-1.527118147E-4,1.221694518E-3
9.999722032E0,-2.901524538E-3,-2.596100792E-3,-1.221694518E-3
1.000943542E1,-2.901524538E-3,-3.817795310E-3,0.000000000E0
1.001914786E1,-2.901524538E-3,-2.596100792E-3,-1.221694518E-3
1.002885958E1,-2.901524538E-3,-1.374406274E-3,-2.443389036E-3
1.003857219E1,-2.901524538E-3,-1.374406274E-3,-2.443389036E-3
1.004828547E1,-1.679830020E-3,-1.374406274E-3,-1.221694518E-3
1.005799797E1,-2.901524538E-3,-1.374406274E-3,-1.221694518E-3
1.006770969E1,-5.344913341E-3,-1.527118147E-4,-1.221694518E-3
1.007742229E1,-6.566607859E-3,-1.374406274E-3,-2.443389036E-3
1.008713557E1,-6.566607859E-3,-3.817795310E-3,-2.443389036E-3
1.009684807E1,-5.344913341E-3,-6.261184346E-3,-1.221694518E-3
1.010655979E1,-4.123218823E-3,-6.261184346E-3,-2.443389036E-3
1.011627240E1,-2.901524538E-3,-6.261184346E-3,-1.221694518E-3
1.012598568E1,-1.679830020E-3,-2.596100792E-3,0.000000000E0
1.013569813E1,-1.679830020E-3,1.068982761E-3,0.000000000E0
1.014540990E1,-4.581354442E-4,4.734066315E-3,1.221694518E-3
1.015512240E1,-4.581354442E-4,5.955760833E-3,2.443389036E-3
1.016483578E1,7.635590737E-4,4.734066315E-3,2.443389036E-3
1.017454823E1,1.985253533E-3,2.290677279E-3,2.443389036E-3
1.018426000E1,7.635590737E-4,-1.527118147E-4,2.443389036E-3
1.019397250E1,7.635590737E-4,-1.374406274E-3,2.443389036E-3
1.020368589E1,7.635590737E-4,-2.596100792E-3,2.443389036E-3
1.021339833E1,7.635590737E-4,-1.527118147E-4,1.221694518E-3
1.022311005E1,7.635590737E-4,2.290677279E-3,1.221694518E-3
1.023282266E1,7.635590737E-4,3.512371797E-3,1.221694518E-3
1.024253594E1,-4.581354442E-4,2.290677279E-3,0.000000000E0
1.025224844E1,-4.581354442E-4,1.068982761E-3,-1.221694518E-3
1.026196016E1,-1.679830020E-3,-2.596100792E-3,-2.443389036E-3
1.027167276E1,-2.901524538E-3,-5.039489828E-3,-2.443389036E-3
1.028138604E1,-2.901524538E-3,-3.817795310E-3,-3.665083554E-3
1.029109854E1,-2.901524538E-3,-2.596100792E-3,-4.886778072E-3
1.030081026E1,-1.679830020E-3,-1.374406274E-3,-4.886778072E-3
1.031052276E1,-4.581354442E-4,-1.527118147E-4,-3.665083554E-3
1.032023615E1,7.635590737E-4,-1.527118147E-4,-2.443389036E-3
1.032994859E1,-4.581354442E-4,-1.374406274E-3,-1.221694518E-3
1.033966036E1,-1.679830020E-3,-2.596100792E-3,1.221694518E-3
1.034937287E1,-2.901524538E-3,-3.817795310E-3,2.443389036E-3
1.035908625E1,-2.901524538E-3,-3.817795310E-3,2.443389036E-3
1.036879870E1,-4.581354442E-4,-2.596100792E-3,1.221694518E-3
1.037851047E1,1.985253533E-3,-1.527118147E-4,0.000000000E0
1.038822297E1,4.428642802E-3,1.068982761E-3,-1.221694518E-3
1.039793636E1,5.650337320E-3,2.290677279E-3,-1.221694518E-3
1.040764880E1,5.650337320E-3,1.068982761E-3,-1.221694518E-3
1.041736057E1,4.428642802E-3,-1.527118147E-4,-1.221694518E-3
1.042707307E1,3.206948051E-3,1.068982761E-3,0.000000000E0
1.043678646E1,-4.581354442E-4,1.068982761E-3,0.000000000E0
1.044649891E1,-2.901524538E-3,1.068982761E-3,-1.221694518E-3
1.045621068E1,-4.581354442E-4,-1.374406274E-3,0.000000000E0
1.046592318E1,7.635590737E-4,-2.596100792E-3,1.221694518E-3
1.047563656E1,1.985253533E-3,1.068982761E-3,1.221694518E-3
1.048534901E1,7.635590737E-4,2.290677279E-3,2.443389036E-3
1.049506078E1,-1.679830020E-3,1.068982761E-3,3.665083554E-3
1.050477328E1,-1.679830020E-3,-2.596100792E-3,3.665083554E-3
1.051448667E1,-1.679830020E-3,-2.596100792E-3,3.665083554E-3
1.052419912E1,-4.581354442E-4,-1.374406274E-3,3.665083554E-3
1.053391083E1,-4.581354442E-4,-1.527118147E-4,3.665083554E-3
1.054362344E1,-4.581354442E-4,2.290677279E-3,1.221694518E-3
1.055333677E1,-1.679830020E-3,3.512371797E-3,2.443389036E-3
1.056304922E1,-1.679830020E-3,3.512371797E-3,0.000000000E0
1.057276094E1,-1.679830020E-3,1.068982761E-3,0.000000000E0
1.058247354E1,-1.679830020E-3,-1.527118147E-4,1.221694518E-3
1.059218688E1,-2.901524538E-3,-2.596100792E-3,1.221694518E-3
1.060189932E1,-2.901524538E-3,-1.374406274E-3,1.221694518E-3
1.061161104E1,-2.901524538E-3,-1.527118147E-4,0.000000000E0
1.062132365E1,-1.679830020E-3,-1.527118147E-4,1.221694518E-3
1.063103698E1,-4.581354442E-4,-1.527118147E-4,1.221694518E-3
1.064074943E1,-4.581354442E-4,1.068982761E-3,-2.443389036E-3
1.065046115E1,-4.581354442E-4,1.068982761E-3,-2.443389036E-3
1.066017375E1,-4.581354442E-4,2.290677279E-3,-2.443389036E-3
1.066988708E1,-4.581354442E-4,2.290677279E-3,-3.665083554E-3
1.067959953E1,-4.581354442E-4,1.068982761E-3,-3.665083554E-3
1.068931125E1,-4.581354442E-4,-1.527118147E-4,-3.665083554E-3
1.069902386E1,-1.679830020E-3,-1.374406274E-3,-4.886778072E-3
1.070873719E1,-4.581354442E-4,-1.374406274E-3,-3.665083554E-3
1.071844964E1,-1.679830020E-3,-1.527118147E-4,-2.443389036E-3
1.072816141E1,-4.581354442E-4,-1.527118147E-4,-1.221694518E-3
1.073787391E1,7.635590737E-4,-1.527118147E-4,0.000000000E0
1.074758729E1,1.985253533E-3,-1.527118147E-4,1.221694518E-3
1.075729974E1,1.985253533E-3,-1.527118147E-4,3.665083554E-3
1.076701151E1,1.985253533E-3,2.290677279E-3,2.443389036E-3
1.077672401E1,7.635590737E-4,2.290677279E-3,3.665083554E-3
1.078643740E1,7.635590737E-4,1.068982761E-3,2.443389036E-3
1.079614984E1,-4.581354442E-4,-1.527118147E-4,3.665083554E-3
1.080586162E1,-4.581354442E-4,-1.527118147E-4,3.665083554E-3
1.081557412E1,-4.581354442E-4,-1.374406274E-3,2.443389036E-3
1.082528750E1,-4.581354442E-4,-1.374406274E-3,1.221694518E-3
1.083499995E1,-4.581354442E-4,-2.596100792E-3,1.221694518E-3
1.084471172E1,-4.581354442E-4,-2.596100792E-3,0.000000000E0
1.085442422E1,7.635590737E-4,-3.817795310E-3,0.000000000E0
1.086413760E1,7.635590737E-4,-2.596100792E-3,1.221694518E-3
1.087385005E1,7.635590737E-4,-2.596100792E-3,0.000000000E0
1.088356182E1,1.985253533E-3,-1.374406274E-3,0.000000000E0
1.089327432E1,1.985253533E-3,1.068982761E-3,-1.221694518E-3
1.090298771E1,3.206948051E-3,3.512371797E-3,-1.221694518E-3
1.091270021E1,3.206948051E-3,4.734066315E-3,0.000000000E0
1.092241193E1,1.985253533E-3,4.734066315E-3,0.000000000E0
1.093212453E1,-4.581354442E-4,1.068982761E-3,-1.221694518E-3
1.094183781E1,-1.679830020E-3,-1.374406274E-3,0.000000000E0
1.095155031E1,-1.679830020E-3,-1.374406274E-3,1.221694518E-3
1.096126203E1,-4.581354442E-4,-1.374406274E-3,1.221694518E-3
1.097097464E1,7.635590737E-4,-5.039489828E-3,1.221694518E-3
1.098068792E1,1.985253533E-3,-3.817795310E-3,0.000000000E0
1.099040042E1,3.206948051E-3,-1.527118147E-4,0.000000000E0
1.100011214E1,1.985253533E-3,2.290677279E-3,-1.221694518E-3
1.100982474E1,7.635590737E-4,1.068982761E-3,-2.443389036E-3
1.101953802E1,7.635590737E-4,-1.374406274E-3,-2.443389036E-3
1.102925052E1,7.635590737E-4,-3.817795310E-3,-3.665083554E-3
1.103896224E1,1.985253533E-3,-2.596100792E-3,-2.443389036E-3
1.104867484E1,-4.581354442E-4,1.068982761E-3,0.000000000E0
1.105838818E1,-1.679830020E-3,4.734066315E-3,0.000000000E0
1.106810063E1,-2.901524538E-3,3.512371797E-3,0.000000000E0
1.107781234E1,-2.901524538E-3,2.290677279E-3,0.000000000E0
1.108752495E1,-2.901524538E-3,-1.527118147E-4,0.000000000E0
1.109723828E1,-4.581354442E-4,-1.527118147E-4,1.221694518E-3
1.110695073E1,7.635590737E-4,-1.374406274E-3,1.221694518E-3
1.111666250E1,7.635590737E-4,-1.527118147E-4,3.665083554E-3
1.112637500E1,7.635590737E-4,1.068982761E-3,3.665083554E-3
1.113608839E1,7.635590737E-4,1.068982761E-3,3.665083554E-3
1.114580083E1,7.635590737E-4,2.290677279E-3,2.443389036E-3
1.115551260E1,7.635590737E-4,2.290677279E-3,1.221694518E-3
1.116522511E1,-4.581354442E-4,1.068982761E-3,2.443389036E-3
1.117493849E1,-4.581354442E-4,1.068982761E-3,0.000000000E0
1.118465099E1,-4.581354442E-4,-1.527118147E-4,0.000000000E0
1.119436271E1,7.635590737E-4,-1.374406274E-3,0.000000000E0
1.120407521E1,1.985253533E-3,-2.596100792E-3,0.000000000E0
1.121378859E1,1.985253533E-3,-1.374406274E-3,0.000000000E0
1.122350109E1,7.635590737E-4,-1.374406274E-3,0.000000000E0
1.123321281E1,7.635590737E-4,-1.527118147E-4,0.000000000E0
1.124292542E1,-4.581354442E-4,-1.527118147E-4,1.221694518E-3
1.125263870E1,1.985253533E-3,-1.527118147E-4,0.000000000E0
1.126235120E1,3.206948051E-3,-1.527118147E-4,-1.221694518E-3
1.127206292E1,3.206948051E-3,-1.527118147E-4,-1.221694518E-3
1.128177552E1,3.206948051E-3,-1.527118147E-4,-2.443389036E-3
1.129148880E1,1.985253533E-3,-1.527118147E-4,-3.665083554E-3
1.130120130E1,7.635590737E-4,2.290677279E-3,-2.443389036E-3
1.131091302E1,1.985253533E-3,2.290677279E-3,-1.221694518E-3
1.132062562E1,1.985253533E-3,2.290677279E-3,0.000000000E0
1.133033891E1,7.635590737E-4,-2.596100792E-3,0.000000000E0
1.134005141E1,7.635590737E-4,-2.596100792E-3,0.000000000E0
1.134976318E1,1.985253533E-3,-1.374406274E-3,1.221694518E-3
1.135947568E1,1.985253533E-3,-2.596100792E-3,1.221694518E-3
1.136918906E1,1.985253533E-3,-3.817795310E-3,1.221694518E-3
1.137890151E1,1.985253533E-3,-1.374406274E-3,1.221694518E-3
1.138861328E1,3.206948051E-3,2.290677279E-3,0.000000000E0
1.139832578E1,1.985253533E-3,3.512371797E-3,-1.221694518E-3
1.140803917E1,7.635590737E-4,1.068982761E-3,-1.221694518E-3
1.141775162E1,7.635590737E-4,1.068982761E-3,-2.443389036E-3
1.142746339E1,7.635590737E-4,1.068982761E-3,0.000000000E0
1.143717589E1,7.635590737E-4,-1.527118147E-4,0.000000000E0
1.144688927E1,-4.581354442E-4,-1.374406274E-3,1.221694518E-3
1.145660177E1,-1.679830020E-3,-1.527118147E-4,1.221694518E-3
1.146631349E1,-4.581354442E-4,4.734066315E-3,0.000000000E0
1.147602599E1,1.985253533E-3,4.734066315E-3,1.221694518E-3
1.148573938E1,1.985253533E-3,2.290677279E-3,2.443389036E-3
1.149545188E1,1.985253533E-3,-1.527118147E-4,2.443389036E-3
1.150516359E1,-4.581354442E-4,-1.374406274E-3,3.665083554E-3
1.151487620E1,7.635590737E-4,-1.374406274E-3,2.443389036E-3
1.152458948E1,7.635590737E-4,2.290677279E-3,2.443389036E-3
1.153430198E1,1.985253533E-3,5.955760833E-3,2.443389036E-3
1.154401370E1,4.428642802E-3,7.177455351E-3,2.443389036E-3
1.155372630E1,4.428642802E-3,3.512371797E-3,2.443389036E-3
1.156343958E1,4.428642802E-3,-1.527118147E-4,1.221694518E-3
1.157315208E1,1.985253533E-3,-1.374406274E-3,0.000000000E0
1.158286380E1,-4.581354442E-4,-1.374406274E-3,-1.221694518E-3
1.159257641E1,-4.581354442E-4,-1.527118147E-4,-2.443389036E-3
1.160228974E1,7.635590737E-4,-1.374406274E-3,-2.443389036E-3
1.161200219E1,3.206948051E-3,1.068982761E-3,-1.221694518E-3
1.162171396E1,1.985253533E-3,2.290677279E-3,0.000000000E0
1.163142646E1,7.635590737E-4,2.290677279E-3,0.000000000E0
1.164113984E1,7.635590737E-4,-1.527118147E-4,0.000000000E0
1.165085229E1,7.635590737E-4,-1.374406274E-3,0.000000000E0
1.166056406E1,7.635590737E-4,-1.374406274E-3,1.221694518E-3
1.167027656E1,7.635590737E-4,1.068982761E-3,1.221694518E-3
1.167998995E1,1.985253533E-3,3.512371797E-3,1.221694518E-3
1.168970240E1,7.635590737E-4,4.734066315E-3,2.443389036E-3
1.169941417E1,7.635590737E-4,4.734066315E-3,0.000000000E0
1.170912667E1,7.635590737E-4,3.512371797E-3,1.221694518E-3
1.171884005E1,7.635590737E-4,1.068982761E-3,2.443389036E-3
1.172855255E1,-4.581354442E-4,-1.374406274E-3,2.443389036E-3
1.173826427E1,-4.581354442E-4,-1.527118147E-4,2.443389036E-3
1.174797677E1,-2.901524538E-3,1.068982761E-3,3.665083554E-3
1.175769016E1,-4.123218823E-3,-1.374406274E-3,3.665083554E-3
1.176740266E1,-1.679830020E-3,-1.527118147E-4,2.443389036E-3
1.177711438E1,7.635590737E-4,1.068982761E-3,2.443389036E-3
1.178682698E1,7.635590737E-4,-1.527118147E-4,2.443389036E-3
1.179654026E1,7.635590737E-4,-1.527118147E-4,2.443389036E-3
1.180625276E1,-4.581354442E-4,-1.527118147E-4,3.665083554E-3
1.181596448E1,-4.581354442E-4,-1.527118147E-4,3.665083554E-3
1.182567708E1,7.635590737E-4,-1.527118147E-4,3.665083554E-3
1.183539036E1,-4.581354442E-4,-1.527118147E-4,3.665083554E-3
1.184510287E1,-4.581354442E-4,-1.527118147E-4,3.665083554E-3
1.185481458E1,-4.581354442E-4,-1.527118147E-4,2.443389036E-3
1.186452719E1,-4.581354442E-4,1.068982761E-3,2.443389036E-3
1.187424052E1,7.635590737E-4,-1.527118147E-4,2.443389036E-3
1.188395297E1,1.985253533E-3,-1.527118147E-4,1.221694518E-3
1.189366469E1,1.985253533E-3,-1.374406274E-3,3.665083554E-3
1.190337729E1,7.635590737E-4,-2.596100792E-3,2.443389036E-3
1.191309062E1,-4.581354442E-4,-1.527118147E-4,3.665083554E-3
1.192280307E1,7.635590737E-4,1.068982761E-3,2.443389036E-3
1.193251484E1,-4.581354442E-4,2.290677279E-3,2.443389036E-3
1.194222734E1,-4.581354442E-4,1.068982761E-3,1.221694518E-3
1.195194073E1,-4.581354442E-4,1.068982761E-3,1.221694518E-3
1.196165318E1,7.635590737E-4,1.068982761E-3,1.221694518E-3
1.197136495E1,-4.581354442E-4,2.290677279E-3,0.000000000E0
1.198107745E1,-4.581354442E-4,-1.527118147E-4,-1.221694518E-3
1.199079083E1,-2.901524538E-3,-1.527118147E-4,0.000000000E0
1.200050328E1,-1.679830020E-3,1.068982761E-3,0.000000000E0
1.201021505E1,-4.581354442E-4,1.068982761E-3,0.000000000E0
1.201992755E1,-4.581354442E-4,2.290677279E-3,-1.221694518E-3
1.202964094E1,-4.581354442E-4,2.290677279E-3,0.000000000E0
1.203935344E1,-4.581354442E-4,2.290677279E-3,0.000000000E0
1.204906516E1,-1.679830020E-3,1.068982761E-3,0.000000000E0
1.205877776E1,-1.679830020E-3,1.068982761E-3,0.000000000E0
1.206849104E1,-4.581354442E-4,-1.374406274E-3,1.221694518E-3
1.207820354E1,-4.581354442E-4,-3.817795310E-3,0.000000000E0
1.208791526E1,-1.679830020E-3,-3.817795310E-3,1.221694518E-3
1.209762787E1,-1.679830020E-3,-2.596100792E-3,1.221694518E-3
1.210734115E1,-4.581354442E-4,-1.374406274E-3,0.000000000E0
1.211705365E1,7.635590737E-4,1.068982761E-3,1.221694518E-3
1.212676536E1,3.206948051E-3,1.068982761E-3,1.221694518E-3
1.213647797E1,5.650337320E-3,-1.374406274E-3,0.000000000E0
1.214619125E1,6.872031838E-3,-2.596100792E-3,-1.221694518E-3
1.215590375E1,4.428642802E-3,-1.374406274E-3,-1.221694518E-3
1.216561547E1,-4.581354442E-4,-1.527118147E-4,-2.443389036E-3
1.217532807E1,-1.679830020E-3,-1.374406274E-3,-1.221694518E-3
1.218504141E1,-4.581354442E-4,-2.596100792E-3,-1.221694518E-3
1.219475386E1,-4.581354442E-4,-2.596100792E-3,0.000000000E0
1.220446563E1,-1.679830020E-3,-2.596100792E-3,0.000000000E0
1.221417812E1,-4.123218823E-3,-1.374406274E-3,1.221694518E-3
1.222389151E1,-4.123218823E-3,-1.527118147E-4,1.221694518E-3
1.223360396E1,-2.901524538E-3,-1.527118147E-4,1.221694518E-3
1.224331568E1,-1.679830020E-3,-1.374406274E-3,2.443389036E-3
1.225302828E1,-1.679830020E-3,-1.527118147E-4,2.443389036E-3
1.226274162E1,-4.581354442E-4,-1.527118147E-4,3.665083554E-3
1.227245406E1,7.635590737E-4,-1.527118147E-4,2.443389036E-3
1.228216583E1,7.635590737E-4,-1.527118147E-4,1.221694518E-3
1.229187833E1,-1.679830020E-3,-1.527118147E-4,1.221694518E-3
1.230159172E1,-1.679830020E-3,-2.596100792E-3,1.221694518E-3
1.231130422E1,-1.679830020E-3,-2.596100792E-3,0.000000000E0
1.232101594E1,-2.901524538E-3,-1.527118147E-4,1.221694518E-3
1.233072844E1,-2.901524538E-3,-1.527118147E-4,0.000000000E0
1.234044182E1,-2.901524538E-3,-1.374406274E-3,1.221694518E-3
1.235015432E1,-2.901524538E-3,-1.374406274E-3,2.443389036E-3
1.235986604E1,-2.901524538E-3,-1.374406274E-3,2.443389036E-3
1.236957865E1,-2.901524538E-3,-1.374406274E-3,3.665083554E-3
1.237929193E1,-2.901524538E-3,-1.527118147E-4,2.443389036E-3
1.238900443E1,-2.901524538E-3,1.068982761E-3,3.665083554E-3
1.239871615E1,-2.901524538E-3,1.068982761E-3,3.665083554E-3
1.240842875E1,-1.679830020E-3,1.068982761E-3,3.665083554E-3
1.241814208E1,-1.679830020E-3,-1.527118147E-4,2.443389036E-3
1.242785453E1,-1.679830020E-3,-1.374406274E-3,2.443389036E-3
1.243756630E1,-1.679830020E-3,-2.596100792E-3,3.665083554E-3
1.244727880E1,-1.679830020E-3,-2.596100792E-3,2.443389036E-3
1.245699219E1,-4.581354442E-4,-1.374406274E-3,2.443389036E-3
1.246670464E1,-1.679830020E-3,-1.527118147E-4,2.443389036E-3
1.247641641E1,-1.679830020E-3,1.068982761E-3,3.665083554E-3
1.248612891E1,-1.679830020E-3,-1.527118147E-4,2.443389036E-3
1.249584229E1,-4.581354442E-4,-1.374406274E-3,1.221694518E-3
1.250555479E1,-4.581354442E-4,-2.596100792E-3,0.000000000E0
1.251526651E1,7.635590737E-4,-2.596100792E-3,0.000000000E0
1.252497912E1,-4.581354442E-4,-1.374406274E-3,0.000000000E0
1.253469240E1,-4.581354442E-4,1.068982761E-3,-1.221694518E-3
1.254440490E1,-4.581354442E-4,1.068982761E-3,1.221694518E-3
1.255411662E1,7.635590737E-4,2.290677279E-3,1.221694518E-3
1.256382922E1,7.635590737E-4,-1.527118147E-4,1.221694518E-3
1.257354255E1,7.635590737E-4,-1.374406274E-3,1.221694518E-3
1.258325500E1,7.635590737E-4,-1.374406274E-3,2.443389036E-3
1.259296672E1,7.635590737E-4,-1.374406274E-3,2.443389036E-3
1.260267932E1,-4.581354442E-4,-1.374406274E-3,2.443389036E-3
1.261239266E1,7.635590737E-4,-1.374406274E-3,1.221694518E-3
1.262210511E1,-4.581354442E-4,-1.527118147E-4,2.443389036E-3
1.263181688E1,-4.581354442E-4,-1.374406274E-3,2.443389036E-3
1.264152938E1,-4.581354442E-4,-1.374406274E-3,2.443389036E-3
1.265124276E1,1.985253533E-3,1.068982761E-3,1.221694518E-3
1.266095526E1,7.635590737E-4,1.068982761E-3,2.443389036E-3
1.267066698E1,7.635590737E-4,1.068982761E-3,2.443389036E-3
1.268037958E1,7.635590737E-4,-1.527118147E-4,2.443389036E-3
1.269009286E1,7.635590737E-4,-1.374406274E-3,2.443389036E-3
1.269980537E1,1.985253533E-3,1.068982761E-3,0.000000000E0
1.270951708E1,1.985253533E-3,2.290677279E-3,-2.443389036E-3
1.271922969E1,3.206948051E-3,3.512371797E-3,-3.665083554E-3
1.272894302E1,3.206948051E-3,-1.527118147E-4,-2.443389036E-3
1.273865547E1,4.428642802E-3,-3.817795310E-3,-1.221694518E-3
1.274836724E1,3.206948051E-3,-6.261184346E-3,-2.443389036E-3
1.275807974E1,1.985253533E-3,-5.039489828E-3,-3.665083554E-3
1.276779312E1,-4.581354442E-4,-1.374406274E-3,-6.108472589E-3
1.277750563E1,7.635590737E-4,-1.374406274E-3,-6.108472589E-3
1.278721734E1,1.985253533E-3,-1.374406274E-3,-4.886778072E-3
1.279692995E1,3.206948051E-3,-1.527118147E-4,-3.665083554E-3
1.280664323E1,7.635590737E-4,1.068982761E-3,0.000000000E0
1.281635573E1,-2.901524538E-3,-1.527118147E-4,0.000000000E0
1.282606745E1,-4.123218823E-3,-2.596100792E-3,0.000000000E0
1.283578005E1,-4.123218823E-3,-2.596100792E-3,2.443389036E-3
1.284549339E1,-2.901524538E-3,-1.374406274E-3,0.000000000E0
1.285520583E1,-1.679830020E-3,1.068982761E-3,1.221694518E-3
1.286491760E1,-4.581354442E-4,3.512371797E-3,1.221694518E-3
1.287463011E1,-4.581354442E-4,5.955760833E-3,3.665083554E-3
1.288434349E1,-1.679830020E-3,3.512371797E-3,4.886778072E-3
1.289405594E1,-2.901524538E-3,-1.527118147E-4,4.886778072E-3
1.290376771E1,-2.901524538E-3,-2.596100792E-3,4.886778072E-3
1.291348031E1,-1.679830020E-3,-3.817795310E-3,2.443389036E-3
1.292319359E1,-1.679830020E-3,-2.596100792E-3,2.443389036E-3
1.293290609E1,7.635590737E-4,-1.374406274E-3,1.221694518E-3
1.294261781E1,7.635590737E-4,-2.596100792E-3,-1.221694518E-3
1.295233042E1,7.635590737E-4,-1.374406274E-3,-1.221694518E-3
1.296204375E1,7.635590737E-4,-1.527118147E-4,-2.443389036E-3
1.297175620E1,7.635590737E-4,1.068982761E-3,-4.886778072E-3
1.298146797E1,-1.679830020E-3,1.068982761E-3,-4.886778072E-3
1.299118047E1,-4.581354442E-4,1.068982761E-3,-4.886778072E-3
1.300089386E1,-4.581354442E-4,-1.527118147E-4,-2.443389036E-3
1.301060636E1,-4.581354442E-4,-1.374406274E-3,0.000000000E0
1.302031807E1,-1.679830020E-3,-1.374406274E-3,1.221694518E-3
1.303003068E1,-4.581354442E-4,-1.527118147E-4,2.443389036E-3
1.303974396E1,-4.581354442E-4,-1.527118147E-4,3.665083554E-3
1.304945646E1,-4.581354442E-4,2.290677279E-3,4.886778072E-3
1.305916818E1,1.985253533E-3,3.512371797E-3,4.886778072E-3
1.306888078E1,3.206948051E-3,3.512371797E-3,4.886778072E-3
1.307859412E1,4.428642802E-3,1.068982761E-3,3.665083554E-3
1.308830656E1,3.206948051E-3,-1.527118147E-4,3.665083554E-3
1.309801833E1,7.635590737E-4,-1.374406274E-3,2.443389036E-3
1.310773083E1,7.635590737E-4,-2.596100792E-3,2.443389036E-3
1.311744422E1,7.635590737E-4,-2.596100792E-3,2.443389036E-3
1.312715672E1,7.635590737E-4,-1.374406274E-3,2.443389036E-3
1.313686844E1,7.635590737E-4,-1.527118147E-4,1.221694518E-3
1.314658104E1,7.635590737E-4,1.068982761E-3,0.000000000E0
1.315629432E1,7.635590737E-4,1.068982761E-3,0.000000000E0
1.316600682E1,1.985253533E-3,1.068982761E-3,0.000000000E0
1.317571859E1,1.985253533E-3,1.068982761E-3,0.000000000E0
1.318543109E1,1.985253533E-3,-1.527118147E-4,0.000000000E0
1.319514448E1,1.985253533E-3,-1.374406274E-3,0.000000000E0
1.320485698E1,7.635590737E-4,-3.817795310E-3,1.221694518E-3
1.321456870E1,-4.581354442E-4,-6.261184346E-3,3.665083554E-3
1.322428130E1,7.635590737E-4,-6.261184346E-3,3.665083554E-3
1.323399458E1,7.635590737E-4,-3.817795310E-3,3.665083554E-3
1.324370708E1,1.985253533E-3,-2.596100792E-3,2.443389036E-3
1.325341880E1,1.985253533E-3,-1.374406274E-3,0.000000000E0
1.326313141E1,1.985253533E-3,-1.527118147E-4,0.000000000E0
1.327284474E1,1.985253533E-3,-1.527118147E-4,0.000000000E0
1.328255719E1,7.635590737E-4,-1.527118147E-4,-1.221694518E-3
1.329226896E1,-4.581354442E-4,-1.527118147E-4,0.000000000E0
1.330198146E1,-2.901524538E-3,-1.374406274E-3,0.000000000E0
1.331169484E1,-4.123218823E-3,-2.596100792E-3,-1.221694518E-3
1.332140734E1,-1.679830020E-3,-2.596100792E-3,0.000000000E0
1.333111906E1,7.635590737E-4,-1.374406274E-3,0.000000000E0
1.334083167E1,3.206948051E-3,-1.527118147E-4,1.221694518E-3
1.335054495E1,4.428642802E-3,1.068982761E-3,2.443389036E-3
1.336025745E1,3.206948051E-3,1.068982761E-3,1.221694518E-3
1.336996917E1,7.635590737E-4,2.290677279E-3,-2.443389036E-3
1.337968177E1,-4.581354442E-4,-1.527118147E-4,-4.886778072E-3
1.338939510E1,7.635590737E-4,-1.527118147E-4,-6.108472589E-3
1.339910755E1,1.985253533E-3,1.068982761E-3,-6.108472589E-3
1.340881932E1,1.985253533E-3,2.290677279E-3,-4.886778072E-3
1.341853182E1,7.635590737E-4,3.512371797E-3,-2.443389036E-3
1.342824521E1,-2.901524538E-3,-1.527118147E-4,0.000000000E0
1.343795771E1,-5.344913341E-3,-1.374406274E-3,2.443389036E-3
1.344766943E1,-5.344913341E-3,-1.374406274E-3,2.443389036E-3
1.345738203E1,-4.123218823E-3,1.068982761E-3,1.221694518E-3
1.346709536E1,-1.679830020E-3,3.512371797E-3,1.221694518E-3
1.347680781E1,7.635590737E-4,4.734066315E-3,1.221694518E-3
1.348651958E1,7.635590737E-4,3.512371797E-3,2.443389036E-3
1.349623208E1,-1.679830020E-3,-1.527118147E-4,2.443389036E-3
1.350594547E1,-2.901524538E-3,-2.596100792E-3,2.443389036E-3
1.351565792E1,-2.901524538E-3,-2.596100792E-3,2.443389036E-3
1.352536969E1,-2.901524538E-3,-1.374406274E-3,1.221694518E-3
1.353508229E1,-1.679830020E-3,-1.527118147E-4,0.000000000E0
1.354479557E1,-1.679830020E-3,1.068982761E-3,-1.221694518E-3
1.355450807E1,-4.581354442E-4,2.290677279E-3,-2.443389036E-3
1.356421979E1,7.635590737E-4,2.290677279E-3,-2.443389036E-3
1.357393240E1,7.635590737E-4,2.290677279E-3,-2.443389036E-3
1.358364573E1,-4.581354442E-4,1.068982761E-3,-1.221694518E-3
1.359335818E1,-4.581354442E-4,-1.374406274E-3,0.000000000E0
1.360306995E1,-4.581354442E-4,-3.817795310E-3,1.221694518E-3
1.361278245E1,-4.581354442E-4,-2.596100792E-3,2.443389036E-3
1.362249583E1,7.635590737E-4,-1.374406274E-3,3.665083554E-3
1.363220833E1,7.635590737E-4,1.068982761E-3,2.443389036E-3
1.364192005E1,1.985253533E-3,1.068982761E-3,1.221694518E-3
1.365163266E1,7.635590737E-4,-1.527118147E-4,2.443389036E-3
1.366134594E1,-4.581354442E-4,-1.527118147E-4,1.221694518E-3
1.367105844E1,-4.581354442E-4,-1.374406274E-3,1.221694518E-3
1.368077016E1,-1.679830020E-3,-1.527118147E-4,1.221694518E-3
1.369048276E1,-2.901524538E-3,-1.527118147E-4,2.443389036E-3
1.370019609E1,-4.581354442E-4,-1.374406274E-3,3.665083554E-3
1.370990854E1,-4.581354442E-4,-1.374406274E-3,4.886778072E-3
1.371962031E1,-4.581354442E-4,-1.527118147E-4,6.108472589E-3
1.372933281E1,7.635590737E-4,1.068982761E-3,3.665083554E-3
1.373904620E1,-4.581354442E-4,1.068982761E-3,2.443389036E-3
1.374875870E1,7.635590737E-4,1.068982761E-3,1.221694518E-3
1.375847042E1,7.635590737E-4,-1.527118147E-4,0.000000000E0
1.376818302E1,7.635590737E-4,-3.817795310E-3,-1.221694518E-3
1.377789636E1,-4.581354442E-4,-5.039489828E-3,-1.221694518E-3
1.378760880E1,-4.581354442E-4,-5.039489828E-3,-1.221694518E-3
1.379732057E1,-4.581354442E-4,-2.596100792E-3,0.000000000E0
1.380703307E1,-4.581354442E-4,-1.527118147E-4,0.000000000E0
1.381674646E1,7.635590737E-4,2.290677279E-3,0.000000000E0
1.382645896E1,7.635590737E-4,1.068982761E-3,0.000000000E0
1.383617068E1,1.985253533E-3,-1.527118147E-4,0.000000000E0
1.384588328E1,1.985253533E-3,-1.374406274E-3,0.000000000E0
1.385559656E1,-4.581354442E-4,-2.596100792E-3,2.443389036E-3
1.386530906E1,-4.581354442E-4,-2.596100792E-3,2.443389036E-3
1.387502078E1,-1.679830020E-3,-2.596100792E-3,3.665083554E-3
1.388473339E1,-1.679830020E-3,-1.374406274E-3,2.443389036E-3
1.389444672E1,-4.581354442E-4,-1.527118147E-4,2.443389036E-3
1.390415917E1,-4.581354442E-4,-1.527118147E-4,1.221694518E-3
1.391387094E1,7.635590737E-4,1.068982761E-3,0.000000000E0
1.392358344E1,-4.581354442E-4,1.068982761E-3,0.000000000E0
1.393329682E1,-4.581354442E-4,-1.527118147E-4,0.000000000E0
1.394300932E1,-4.581354442E-4,-3.817795310E-3,-1.221694518E-3
1.395272104E1,-1.679830020E-3,-6.261184346E-3,-1.221694518E-3
1.396243365E1,-4.581354442E-4,-5.039489828E-3,0.000000000E0
1.397214693E1,-1.679830020E-3,-2.596100792E-3,-1.221694518E-3
1.398185943E1,-4.123218823E-3,1.068982761E-3,-1.221694518E-3
1.399157115E1,-4.123218823E-3,2.290677279E-3,-3.665083554E-3
1.400128375E1,-1.679830020E-3,1.068982761E-3,-4.886778072E-3
1.401099708E1,-4.581354442E-4,-1.527118147E-4,-3.665083554E-3
1.402070953E1,-1.679830020E-3,1.068982761E-3,-2.443389036E-3
1.403042130E1,-2.901524538E-3,2.290677279E-3,0.000000000E0
1.404013380E1,-2.901524538E-3,1.068982761E-3,-1.221694518E-3
1.404984719E1,-2.901524538E-3,-1.527118147E-4,0.000000000E0
1.405955969E1,-2.901524538E-3,-1.527118147E-4,2.443389036E-3
1.406927141E1,-1.679830020E-3,-1.527118147E-4,1.221694518E-3
1.407898401E1,-1.679830020E-3,-1.527118147E-4,0.000000000E0
1.408869729E1,-1.679830020E-3,1.068982761E-3,0.000000000E0
1.409840979E1,-1.679830020E-3,2.290677279E-3,-2.443389036E-3
1.410812151E1,-4.581354442E-4,2.290677279E-3,-3.665083554E-3
1.411783412E1,-4.581354442E-4,-1.527118147E-4,-3.665083554E-3
1.412754745E1,-1.679830020E-3,-1.374406274E-3,-2.443389036E-3
1.413725990E1,-2.901524538E-3,-1.527118147E-4,-1.221694518E-3
1.414697167E1,-4.123218823E-3,1.068982761E-3,1.221694518E-3
1.415668417E1,-5.344913341E-3,1.068982761E-3,1.221694518E-3
1.416639755E1,-2.901524538E-3,-1.527118147E-4,0.000000000E0
1.417611005E1,-4.581354442E-4,-1.374406274E-3,1.221694518E-3
1.418582177E1,7.635590737E-4,-1.374406274E-3,0.000000000E0
1.419553438E1,1.985253533E-3,-1.527118147E-4,-2.443389036E-3
1.420524771E1,1.985253533E-3,1.068982761E-3,-2.443389036E-3
1.421496016E1,1.985253533E-3,1.068982761E-3,-1.221694518E-3
1.422467188E1,7.635590737E-4,-1.527118147E-4,-2.443389036E-3
1.423438448E1,-4.581354442E-4,-1.374406274E-3,-2.443389036E-3
1.424409781E1,-1.679830020E-3,-2.596100792E-3,-1.221694518E-3
1.425381026E1,-1.679830020E-3,-5.039489828E-3,1.221694518E-3
1.426352203E1,-4.581354442E-4,-7.482878864E-3,2.443389036E-3
1.427323453E1,1.985253533E-3,-7.482878864E-3,2.443389036E-3
1.428294792E1,3.206948051E-3,-6.261184346E-3,2.443389036E-3
1.429266042E1,4.428642802E-3,-3.817795310E-3,3.665083554E-3
1.430237214E1,4.428642802E-3,-5.039489828E-3,6.108472589E-3
1.431208474E1,4.428642802E-3,-3.817795310E-3,6.108472589E-3
1.432179802E1,5.650337320E-3,-2.596100792E-3,7.330167107E-3
1.433151052E1,5.650337320E-3,-2.596100792E-3,7.330167107E-3
1.434122224E1,5.650337320E-3,-2.596100792E-3,6.108472589E-3
1.435093484E1,4.428642802E-3,-1.374406274E-3,6.108472589E-3
1.436064818E1,1.985253533E-3,-1.374406274E-3,4.886778072E-3
1.437036063E1,1.985253533E-3,-2.596100792E-3,3.665083554E-3
1.438007240E1,-4.581354442E-4,-2.596100792E-3,2.443389036E-3
1.438978490E1,-1.679830020E-3,-2.596100792E-3,0.000000000E0
1.439949828E1,-1.679830020E-3,-1.374406274E-3,-1.221694518E-3
1.440921078E1,-4.581354442E-4,-1.527118147E-4,-2.443389036E-3
1.441892250E1,-1.679830020E-3,2.290677279E-3,-2.443389036E-3
1.442863511E1,-1.679830020E-3,2.290677279E-3,-3.665083554E-3
1.443834844E1,-1.679830020E-3,3.512371797E-3,-4.886778072E-3
1.444806089E1,-1.679830020E-3,3.512371797E-3,-3.665083554E-3
1.445777260E1,-1.679830020E-3,1.068982761E-3,-3.665083554E-3
1.446748521E1,7.635590737E-4,2.290677279E-3,-2.443389036E-3
1.447719854E1,1.985253533E-3,3.512371797E-3,-1.221694518E-3
1.448691099E1,1.985253533E-3,4.734066315E-3,0.000000000E0
1.449662276E1,1.985253533E-3,4.734066315E-3,2.443389036E-3
1.450633526E1,7.635590737E-4,2.290677279E-3,3.665083554E-3
1.451604865E1,7.635590737E-4,2.290677279E-3,4.886778072E-3
1.452576115E1,1.985253533E-3,2.290677279E-3,4.886778072E-3
1.453547287E1,3.206948051E-3,3.512371797E-3,6.108472589E-3
1.454518547E1,3.206948051E-3,2.290677279E-3,6.108472589E-3
1.455489875E1,3.206948051E-3,-1.527118147E-4,4.886778072E-3
1.456461125E1,3.206948051E-3,-1.527118147E-4,6.108472589E-3
1.457432297E1,1.985253533E-3,1.068982761E-3,6.108472589E-3
1.458403557E1,7.635590737E-4,1.068982761E-3,3.665083554E-3
1.459374891E1,-4.581354442E-4,1.068982761E-3,1.221694518E-3
1.460346136E1,-4.581354442E-4,-1.374406274E-3,-1.221694518E-3
1.461317313E1,7.635590737E-4,-3.817795310E-3,-1.221694518E-3
1.462288562E1,1.985253533E-3,-1.374406274E-3,0.000000000E0
1.463259901E1,7.635590737E-4,1.068982761E-3,0.000000000E0
1.464231151E1,-4.581354442E-4,1.068982761E-3,-1.221694518E-3
1.465202323E1,-4.581354442E-4,1.068982761E-3,-1.221694518E-3
1.466173583E1,7.635590737E-4,1.068982761E-3,0.000000000E0
1.467144912E1,3.206948051E-3,1.068982761E-3,0.000000000E0
1.468116162E1,3.206948051E-3,1.068982761E-3,0.000000000E0
1.469087333E1,1.985253533E-3,1.068982761E-3,1.221694518E-3
1.470058594E1,1.985253533E-3,1.068982761E-3,0.000000000E0
1.471029927E1,-4.581354442E-4,1.068982761E-3,0.000000000E0
1.472001172E1,-4.581354442E-4,1.068982761E-3,1.221694518E-3
1.472972349E1,-4.581354442E-4,-1.527118147E-4,1.221694518E-3
1.473943599E1,-1.679830020E-3,-1.527118147E-4,1.221694518E-3
1.474914938E1,-2.901524538E-3,1.068982761E-3,2.443389036E-3
1.475886182E1,-4.123218823E-3,1.068982761E-3,1.221694518E-3
1.476857359E1,-4.123218823E-3,-1.527118147E-4,2.443389036E-3
1.477828620E1,-1.679830020E-3,-1.374406274E-3,1.221694518E-3
1.478799948E1,-1.679830020E-3,-1.374406274E-3,0.000000000E0
1.479771198E1,-1.679830020E-3,-1.527118147E-4,1.221694518E-3
1.480742370E1,-1.679830020E-3,-1.527118147E-4,0.000000000E0
1.481713630E1,-2.901524538E-3,-1.527118147E-4,1.221694518E-3
1.482684958E1,-2.901524538E-3,2.290677279E-3,1.221694518E-3
1.483656208E1,-2.901524538E-3,3.512371797E-3,1.221694518E-3
1.484627380E1,-1.679830020E-3,3.512371797E-3,1.221694518E-3
1.485598641E1,7.635590737E-4,2.290677279E-3,1.221694518E-3
1.486569974E1,7.635590737E-4,1.068982761E-3,1.221694518E-3
1.487541219E1,1.985253533E-3,-1.527118147E-4,2.443389036E-3
1.488512396E1,1.985253533E-3,-1.527118147E-4,2.443389036E-3
1.489483646E1,3.206948051E-3,-1.527118147E-4,1.221694518E-3
1.490454984E1,7.635590737E-4,1.068982761E-3,2.443389036E-3
1.491426234E1,7.635590737E-4,-1.527118147E-4,2.443389036E-3
1.492397406E1,7.635590737E-4,1.068982761E-3,2.443389036E-3
1.493368667E1,7.635590737E-4,1.068982761E-3,2.443389036E-3
1.494339995E1,7.635590737E-4,1.068982761E-3,2.443389036E-3
1.495311245E1,-4.581354442E-4,1.068982761E-3,2.443389036E-3
1.496282417E1,-1.679830020E-3,1.068982761E-3,2.443389036E-3
1.497253677E1,-2.901524538E-3,1.068982761E-3,2.443389036E-3
1.498225010E1,-1.679830020E-3,-1.527118147E-4,1.221694518E-3
1.499196255E1,-1.679830020E-3,-1.374406274E-3,1.221694518E-3
1.500167432E1,-4.581354442E-4,-2.596100792E-3,0.000000000E0
1.501138682E1,-4.581354442E-4,-2.596100792E-3,-1.221694518E-3
1.502110021E1,-1.679830020E-3,-1.374406274E-3,-1.221694518E-3
1.503081266E1,-1.679830020E-3,-1.374406274E-3,-1.221694518E-3
