"Time (s)","Acceleration x (m/s^2)","Acceleration y (m/s^2)","Acceleration z (m/s^2)"
5.334886600E-2,1.318744421E0,-3.033201694E0,-4.837689400E0
6.306261600E-2,3.672085524E0,-4.538885593E0,-6.571289062E0
7.277480300E-2,5.678467274E0,-5.903691769E0,-9.961320877E0
8.248855300E-2,5.644967556E0,-5.757729530E0,-7.511967659E0
9.220147000E-2,3.243770123E0,-6.066403389E0,3.861417472E-1
1.019136050E-1,2.676970363E-1,-6.490232468E0,7.719245911E0
1.116266260E-1,4.953143001E-1,-5.941977024E0,9.368798256E0
1.213403760E-1,2.309971094E0,-3.753740549E0,8.530412912E-1
1.310532930E-1,-3.112763166E0,-2.580659151E0,-1.564008713E1
1.407654800E-1,-1.313210964E1,-6.966702938E0,-1.346142197E1
1.504785010E-1,-1.748914146E1,-1.523121357E1,8.044968605E0
1.601922510E-1,-1.176012516E1,-2.031626129E1,8.997611046E0
1.699051160E-1,-1.475175142E0,-2.142952156E1,1.058016396E1
1.796173030E-1,4.184448719E0,-2.120190430E1,7.676175117E0
1.893303240E-1,4.414458752E0,-1.668664742E1,1.494616866E0
1.990440740E-1,1.483849168E0,-1.617189217E1,-7.869395614E-1
2.087569910E-1,-8.359923959E-1,-1.615035629E1,4.116253376E0
2.184691260E-1,-2.214856386E0,-1.580578995E1,4.295714855E0
2.281821470E-1,-3.728017569E0,-1.506820202E1,4.986044168E-1
2.378958970E-1,-5.573781013E0,-1.423041534E1,-2.003091574E0
2.476088140E-1,-5.683851242E0,-1.370369530E1,-3.415754318E0
2.573209490E-1,-5.461318493E0,-1.416820240E1,-3.461217880E0
2.670339700E-1,-4.455734730E0,-1.448644733E1,-2.637787819E0
2.767477200E-1,-1.877468467E0,-1.436680603E1,-2.364706993E0
2.864606370E-1,7.920243144E-1,-1.435484219E1,-3.693321705E0
2.961728240E-1,2.656930447E0,-1.387597847E1,-4.596014023E0
3.058858450E-1,2.489432812E0,-1.272443295E1,-5.235197067E0
3.155995430E-1,-1.561316848E-1,-1.120887852E1,-5.895915031E0
3.253124600E-1,-3.905086517E0,-9.396614075E0,-6.360421658E0
3.350246470E-1,-6.579364777E0,-8.649754524E0,-7.844869137E0
3.447376680E-1,-6.562615395E0,-8.527720451E0,-1.121815109E1
3.544514180E-1,-4.065704823E0,-8.268997192E0,-1.274088287E1
3.641643350E-1,-3.371187925E0,-7.960322857E0,-1.200090313E1
3.738764700E-1,-1.685743570E0,-7.852346420E0,-1.100489044E1
3.835894910E-1,1.103390336E0,-7.596314430E0,-1.057896805E1
3.933032410E-1,4.129413605E0,-7.040880680E0,-9.575777054E0
4.030161580E-1,6.552146435E0,-6.753442764E0,-7.538288593E0
4.127282930E-1,6.327221394E0,-6.736692905E0,-5.778666496E0
4.224413140E-1,5.343173027E0,-6.097510338E0,-3.782155275E0
4.321550640E-1,3.241078377E0,-4.632504463E0,-1.622632861E0
4.418679800E-1,-4.791627228E-1,-2.556730986E0,3.071786165E-1
4.515801680E-1,-4.606482506E0,-9.861420393E-1,1.599901080E0
4.612930850E-1,-7.132406235E0,-8.545367718E-1,4.664209366E0
4.710068870E-1,-7.953443527E0,-2.834298372E0,6.440880299E0
4.807198030E-1,-7.192226887E0,-5.877370834E0,3.886243105E0
4.904319910E-1,-5.198108196E0,-1.024666500E1,-2.058425665E0
5.001450120E-1,-2.681756020E0,-1.532453346E1,-6.812964439E0
5.098587620E-1,-1.161416292E0,-1.964088631E1,-6.207281113E0
5.195716260E-1,1.148854017E0,-2.293999100E1,-4.960022449E0
5.292838140E-1,2.171187401E0,-2.334228325E1,-5.108377457E0
5.389968350E-1,4.208376706E-1,-2.162812614E1,-5.024628639E0
5.487105850E-1,-2.511865616E0,-1.940160370E1,-6.489634037E0
5.584235010E-1,-5.585745335E0,-1.776880264E1,-6.463313103E0
5.681356370E-1,-7.489235878E0,-1.690200233E1,-4.181756496E0
5.778486580E-1,-8.609675407E0,-1.647368622E1,-2.719143867E0
5.875624080E-1,-8.655138969E0,-1.564517212E1,-2.324028969E0
5.972753240E-1,-7.007979393E0,-1.499641800E1,-2.050948143E0
6.069875120E-1,-4.872385025E0,-1.432852077E1,-1.371087432E0
6.167004280E-1,-3.694518089E0,-1.336361504E1,-8.276175261E-1
6.264142300E-1,-2.928216696E0,-1.202542973E1,-1.501496136E-1
6.361271470E-1,-2.322533369E0,-1.046680450E1,5.488536954E-1
6.458393350E-1,-1.791027784E0,-8.755039215E0,7.860422134E-1
6.555523550E-1,-1.834397674E0,-6.993024349E0,5.201398134E-1
6.652661050E-1,-2.889931440E0,-5.264508724E0,6.999006122E-2
6.749789700E-1,-3.933800459E0,-3.818346739E0,-9.352945685E-1
6.846911580E-1,-4.417449474E0,-2.819941521E0,-1.629811287E0
6.944041780E-1,-4.400700092E0,-2.175973177E0,-1.615454435E0
7.041179280E-1,-3.969692707E0,-1.891227245E0,-1.613061547E0
7.138308450E-1,-3.359223843E0,-1.599003673E0,-1.967199326E0
7.235429800E-1,-2.739183664E0,-1.400399446E0,-2.079961061E0
7.332560010E-1,-1.934896231E0,-1.376471281E0,-1.287338614E0
7.429697510E-1,-1.451246977E0,-1.163210869E0,1.585244983E-1
7.526826680E-1,-9.340981245E-1,-1.017248750E0,9.870393574E-2
7.623948550E-1,-2.446661144E-1,-1.946262121E0,-1.339980721E0
7.721077720E-1,1.057926655E0,-2.994916677E0,-2.884248495E0
7.818216260E-1,2.846262455E0,-3.825525284E0,-6.051747799E0
7.915345430E-1,4.833202839E0,-5.192724228E0,-9.051449776E0
8.012466780E-1,6.003890991E0,-6.430411816E0,-8.388339043E0
8.109596990E-1,5.096712112E0,-6.617052078E0,-3.897010803E0
8.206734490E-1,3.128615618E0,-6.657730103E0,6.086742878E-1
8.303863660E-1,3.099901676E0,-5.642574787E0,9.032905698E-1
8.400985530E-1,2.451147795E0,-3.401696444E0,1.983051777E0
8.498115740E-1,-2.842075109E0,-5.369792938E0,-1.385444283E0
8.595253240E-1,-1.329960728E1,-1.036630630E1,-6.233602047E0
8.692381890E-1,-1.507837200E1,-1.276032448E1,6.993921280E0
8.789503760E-1,-1.136530972E1,-1.870738602E1,6.833303452E0
8.886633970E-1,-3.426223040E0,-2.044308090E1,6.644270420E0
8.983771470E-1,2.120938063E0,-2.060339928E1,5.200500965E0
9.080900640E-1,2.910868645E0,-1.811127472E1,3.079562664E0
9.178022510E-1,2.221436739E0,-1.688286018E1,9.846464992E-1
9.275152720E-1,7.465606928E-1,-1.575763416E1,1.602293849E0
9.372290220E-1,-1.044167995E0,-1.460369587E1,2.028515339E0
9.469419390E-1,-2.928216696E0,-1.415384483E1,1.051645517E0
9.566540740E-1,-4.724030018E0,-1.351436329E1,-8.994022012E-1
9.663670950E-1,-5.195715427E0,-1.255214977E1,-3.023032188E0
9.760808450E-1,-5.013561726E0,-1.211874962E1,-3.853940010E0
9.857937620E-1,-4.180560112E0,-1.182891846E1,-4.328018188E0
9.955059490E-1,-2.437688112E0,-1.180259800E1,-4.770689964E0
1.005218970E0,-7.809575200E-1,-1.279143143E1,-3.985545158E0
1.014932720E0,5.982056856E-1,-1.396929836E1,-1.998306036E0
1.024645637E0,3.080759048E0,-1.494856167E1,-1.217946768E0
1.034357772E0,3.059223652E0,-1.392622757E1,-2.027019978E0
1.044070793E0,9.355936646E-1,-1.334208012E1,-4.234398842E0
1.053784595E0,7.274180651E-1,-1.259282780E1,-7.363612652E0
1.063497512E0,-3.403790295E-1,-1.206610775E1,-1.014796066E1
1.073209647E0,-2.346461773E0,-1.106530952E1,-1.216152096E1
1.082922668E0,-3.017050266E0,-9.360722542E0,-1.321466255E1
1.092636418E0,-1.949253201E0,-7.799704552E0,-1.354756355E1
1.102349335E0,6.747759581E-1,-7.433602810E0,-1.289163113E1
1.112061522E0,3.157329559E0,-7.651349545E0,-1.109611702E1
1.121774543E0,4.390530586E0,-7.928916931E0,-9.793523788E0
1.131488293E0,4.802095890E0,-7.727920055E0,-7.686942577E0
1.141201210E0,3.870988846E0,-6.523731709E0,-4.548157692E0
1.150913397E0,1.821536183E0,-4.991427898E0,-2.367099762E0
1.160626418E0,-1.170987606E0,-3.392125130E0,-1.442872047E0
1.170340168E0,-4.348057747E0,-2.429911375E0,3.813561201E-1
1.180053085E0,-6.646364212E0,-2.365305185E0,3.249453068E0
1.189765272E0,-6.780362129E0,-3.009273529E0,6.986742973E0
1.199478293E0,-5.698207855E0,-4.220640182E0,8.277072906E0
1.209192043E0,-6.366403580E0,-6.835097790E0,2.954836845E0
1.218904960E0,-6.921837807E0,-1.205175018E1,-4.117150307E0
1.228617147E0,-6.246463299E0,-1.824766541E1,-7.571788311E0
1.238330168E0,-3.428615808E0,-2.149652100E1,-7.243971348E0
1.248043918E0,1.357029557E0,-2.510908508E1,-7.804191113E0
1.257756835E0,3.585943937E0,-2.523829651E1,-6.717251301E0
1.267469022E0,2.772084951E0,-2.334946251E1,-4.658227444E0
1.277182043E0,5.862415433E-1,-2.068236160E1,-3.868296862E0
1.286895793E0,-2.581257343E0,-1.821177292E1,-3.820440531E0
1.296608710E0,-6.426224232E0,-1.619342804E1,-3.971188307E0
1.306320897E0,-1.001246738E1,-1.477867126E1,-3.779762506E0
1.316033814E0,-1.175773239E1,-1.352632713E1,-2.889034271E0
1.325747668E0,-9.646066666E0,-1.272204018E1,-2.280958176E0
1.335460585E0,-5.454140186E0,-1.242263794E1,-1.861915112E0
1.345172772E0,-2.854039192E0,-1.182174015E1,-8.419744968E-1
1.354885793E0,-1.527817249E0,-1.076381397E1,2.904288471E-1
1.364599543E0,-9.125627279E-1,-9.432506561E0,1.374975681E0
1.374312460E0,-5.294120312E-1,-7.895417213E0,1.935195327E0
1.384024647E0,-6.131607890E-1,-6.200401783E0,1.796112537E0
1.393737668E0,-1.041775107E0,-4.610969067E0,1.473081470E0
1.403451418E0,-1.815255046E0,-3.246163130E0,1.434796333E0
1.413164335E0,-2.734398127E0,-2.195115566E0,9.894321561E-1
1.422876522E0,-3.565305710E0,-1.575075507E0,3.215355575E-1
1.432589543E0,-4.132703781E0,-1.228116274E0,-5.667998791E-1
1.442303293E0,-3.912265062E0,-9.550353289E-1,-1.931306958E0
1.452016210E0,-2.942872763E0,-8.808578253E-1,-2.491526604E0
1.461728397E0,-1.434497118E0,-1.084247708E0,-2.063211441E0
1.471441418E0,5.234299600E-2,-1.129711390E0,-6.146563292E-1
1.481155168E0,1.177567840E0,-6.511468887E-1,5.225326419E-1
1.490868085E0,1.452742457E0,-1.713859200E0,1.580758452E0
1.500580272E0,1.266102314E0,-4.246961117E0,3.071786165E-1
1.510293293E0,1.424028635E0,-3.954737663E0,-1.931306958E0
1.520007043E0,1.943570137E0,-4.060320854E0,-7.210472107E0
1.529719960E0,3.315554857E0,-5.508576870E0,-1.606122398E1
1.539432147E0,3.547658682E0,-6.176473618E0,-1.681795311E1
1.549145168E0,2.286042929E0,-7.083951473E0,-1.296820164E1
1.558858918E0,-1.609173268E-1,-8.307282448E0,-6.532704830E0
1.568571835E0,-2.143071890E0,-8.999106407E0,2.531307220E0
1.578284022E0,-5.782256126E0,-1.084995556E1,1.143260765E1
1.587997043E0,-8.343772888E0,-1.365583897E1,1.106620693E1
1.597710793E0,-7.400402069E0,-1.610010719E1,3.644567966E0
1.607423710E0,-2.815753937E0,-1.509213066E1,-2.357528448E0
1.617135897E0,-2.925225794E-1,-1.540110397E1,1.444367528E0
1.626848918E0,-8.910273314E-1,-1.667229080E1,6.258726597E0
1.636562668E0,-1.802991867E0,-1.565474319E1,7.858029366E0
1.646275585E0,-1.851147413E0,-1.506341648E1,5.413761139E0
1.655987772E0,-3.081656456E0,-1.355773354E1,-2.219343036E-1
1.665700793E0,-5.430212021E0,-1.199671555E1,-3.387040377E0
1.675414595E0,-7.053442955E0,-1.206610775E1,-2.750250578E0
1.685127512E0,-6.124429703E0,-1.344018555E1,-1.450050473E0
1.694839699E0,-3.349652529E0,-1.500359631E1,-1.888236165E0
1.704552720E0,-3.667000830E-1,-1.582493210E1,-1.699203134E0
1.714266470E0,1.352243900E0,-1.533889008E1,5.982056609E-4
1.723979387E0,1.809572101E0,-1.494138241E1,1.583151340E0
1.733691574E0,6.675975323E-1,-1.527906990E1,6.589235067E-1
1.743404595E0,-1.992024779E-1,-1.517587948E1,-2.146960020E0
1.753118345E0,2.365903407E-1,-1.449123287E1,-5.216054440E0
1.762831262E0,1.514955878E0,-1.394776344E1,-6.482455730E0
1.772543449E0,-1.944168359E-1,-1.370130253E1,-6.848856449E0
1.782256470E0,-1.302891970E0,-1.251386452E1,-8.167900085E0
1.791970220E0,-8.431708813E-1,-1.142692471E1,-9.803094864E0
1.801683137E0,-2.111666054E-1,-1.023948669E1,-1.170897865E1
1.811395324E0,1.217348501E-1,-8.673683167E0,-1.252283764E1
1.821108345E0,9.188438654E-1,-7.172485828E0,-1.214207935E1
1.830822147E0,1.428814173E0,-6.121438503E0,-1.131147099E1
1.840535064E0,1.957927108E0,-5.494219780E0,-9.987641335E0
1.850247199E0,3.633800268E0,-5.448756218E0,-8.462516785E0
1.859960220E0,4.522135735E0,-5.886941910E0,-6.597609997E0
1.869674022E0,4.378566265E0,-5.774479389E0,-4.042973042E0
1.879386939E0,2.510968208E0,-4.969892502E0,-1.969592094E0
1.889099126E0,3.681955934E-1,-3.988237143E0,-1.299302697E0
1.898812147E0,-1.508674622E0,-3.308376312E0,7.956135273E-2
1.908525897E0,-2.842075109E0,-3.222234726E0,3.457628727E0
1.918238814E0,-4.221238136E0,-4.077070713E0,4.017848492E0
1.927951001E0,-5.710172176E0,-5.748157978E0,3.290131092E0
1.937664022E0,-6.897909641E0,-8.575576782E0,1.985444546E0
1.947377772E0,-7.012764931E0,-1.215703487E1,-5.548357368E-1
1.957090689E0,-6.200999737E0,-1.685653877E1,-4.318446636E0
1.966802876E0,-3.117548704E0,-2.110858345E1,-7.576573849E0
1.976515897E0,-4.241278172E-1,-2.296631241E1,-7.993224144E0
1.986229647E0,-2.255235314E-1,-2.222423744E1,-5.726024628E0
1.995942564E0,-2.327319145E0,-2.079243279E1,-5.132305622E0
2.005654751E0,-4.757529736E0,-1.933699799E1,-6.039783478E0
2.015367772E0,-6.615257263E0,-1.815913010E1,-5.915057659E0
2.025081574E0,-7.405188084E0,-1.731386566E1,-4.924129963E0
2.034794491E0,-7.843373299E0,-1.631067467E1,-3.839582920E0
2.044506678E0,-7.319046497E0,-1.527906990E1,-3.168994427E0
2.054219699E0,-5.870790482E0,-1.430459309E1,-2.314457655E0
2.063933449E0,-4.281058788E0,-1.324397469E1,-1.476371527E0
2.073646366E0,-3.440579891E0,-1.194407368E1,-2.889333367E-1
2.083358553E0,-2.387438774E0,-1.053858948E1,7.283154130E-1
2.093071574E0,-1.762313843E0,-8.563612938E0,1.317547917E0
2.102785324E0,-1.381855130E0,-6.633801460E0,1.343868971E0
2.112498241E0,-1.704886079E0,-4.907679081E0,1.130608678E0
2.122210428E0,-2.308176517E0,-3.643670797E0,8.841479421E-1
2.131923449E0,-3.196511984E0,-2.616551638E0,7.426723242E-1
2.141637199E0,-3.763910055E0,-1.907976985E0,4.004986882E-1
2.151350116E0,-3.955335855E0,-1.488933921E0,-3.343969584E-1
2.161062303E0,-3.471686602E0,-1.081854939E0,-1.316052437E0
2.170775324E0,-2.971586704E0,-8.425726891E-1,-2.300100803E0
2.180489074E0,-2.717648268E0,-6.918248534E-1,-2.640180588E0
2.190201991E0,-1.994716763E0,-6.388836503E-1,-1.986341953E0
2.199914178E0,-5.054838061E-1,-7.301099896E-1,-1.265803218E0
2.209627199E0,1.273280740E0,-7.588238716E-1,-1.313659668E0
2.219341001E0,2.697907448E0,-2.774477959E0,-8.315058798E-2
2.229053918E0,3.782155275E0,-5.123033047E0,4.127619043E-2
2.238766053E0,4.014558315E0,-4.744967461E0,-3.308077335E0
2.248479126E0,4.584349155E0,-5.326722145E0,-1.306152153E1
2.258192876E0,5.412564754E0,-6.473482609E0,-1.770838356E1
2.267905793E0,5.458028316E0,-6.190830231E0,-1.246062374E1
2.277617980E0,2.429612398E0,-6.619444847E0,-2.261815548E0
2.287331001E0,2.294118702E-1,-6.533303261E0,4.290929317E0
2.297044751E0,-2.207378894E-1,-5.118247509E0,7.446165085E0
2.306757668E0,-6.531508446E0,-7.100701332E0,1.200000525E0
2.316469855E0,-1.252881908E1,-1.010758209E1,-1.660917997E0
2.326182876E0,-1.189173031E1,-1.378265858E1,4.587639332E0
2.335896626E0,-7.568199158E0,-1.642343712E1,3.737888098E0
2.345609543E0,-1.575673699E0,-1.843430519E1,7.728816986E0
2.355321730E0,1.136889815E0,-1.941596031E1,7.898707390E0
2.365034751E0,5.096712112E-1,-1.843669891E1,2.873480797E0
2.374748501E0,-1.137488008E0,-1.787408638E1,2.497508675E-1
2.384461418E0,-2.262712955E0,-1.669382668E1,1.298106313E0
2.394173605E0,-3.256332397E0,-1.584168243E1,2.816053152E0
2.403886626E0,-4.623531342E0,-1.560927963E1,1.113858938E0
2.413600376E0,-4.218845367E0,-1.507059479E1,-1.325623751E0
2.423313293E0,-3.230011463E0,-1.489831161E1,-3.011068106E0
2.433025480E0,-2.578864574E0,-1.451516151E1,-3.868296862E0
2.442738501E0,-2.100000858E0,-1.339950752E1,-4.473979950E0
2.452452251E0,-1.003489971E0,-1.276750374E1,-4.967200756E0
2.462165272E0,-1.369891018E-1,-1.299272823E1,-5.446064472E0
2.471877355E0,8.829515576E-1,-1.358644676E1,-6.221638203E0
2.481590376E0,3.131606579E-1,-1.387837124E1,-7.756334782E0
2.491304178E0,-1.472782373E0,-1.277946758E1,-9.075378418E0
2.501017095E0,-1.836790442E0,-1.115384388E1,-9.841380119E0
2.510729230E0,-5.341976285E-1,-9.830014229E0,-1.021735287E1
2.520442251E0,-5.940182209E-1,-8.331210136E0,-1.133779144E1
2.530156053E0,-1.175474152E-1,-7.474280834E0,-1.196261787E1
2.539868970E0,3.320041299E-2,-7.071987152E0,-1.174965668E1
2.549581105E0,6.819544435E-1,-6.691229343E0,-1.106261730E1
2.559294178E0,1.721037745E0,-6.255735874E0,-9.530313492E0
2.569007928E0,3.327518940E0,-6.140581131E0,-7.138687134E0
2.578720845E0,4.081557274E0,-6.195616245E0,-4.682155609E0
2.588433033E0,3.145365477E0,-6.181259155E0,-3.183650494E0
2.598146053E0,1.570289850E0,-5.084748268E0,-2.335993052E0
2.607859803E0,-3.786641955E-1,-3.502494097E0,-9.810572863E-1
2.617572720E0,-2.435295343E0,-2.800798893E0,2.344367981E0
2.627284908E0,-4.094418526E0,-3.356232882E0,5.940481186E0
2.636997928E0,-4.640281200E0,-4.972285271E0,7.345666409E0
2.646711678E0,-4.767100811E0,-7.115057945E0,4.930111885E0
2.656424595E0,-5.719743252E0,-1.052423191E1,-2.402992249E0
2.666136783E0,-7.156334400E0,-1.508734512E1,-7.816154957E0
2.675849803E0,-6.725327015E0,-1.838166428E1,-8.143971443E0
2.685563553E0,-4.285844326E0,-2.165923309E1,-7.327720165E0
2.695276470E0,-1.278963685E0,-2.271027946E1,-6.564110756E0
2.704988658E0,-1.441675574E-1,-2.128565216E1,-5.661418438E0
2.714701678E0,-1.743171334E0,-1.942792511E1,-6.099604130E0
2.724415428E0,-3.783052683E0,-1.804188347E1,-6.049354553E0
2.734128345E0,-6.340082645E0,-1.665554047E1,-4.466801643E0
2.743840533E0,-8.923134804E0,-1.510170174E1,-3.367897987E0
2.753553553E0,-1.041236782E1,-1.349282742E1,-2.379063845E0
2.763267303E0,-9.049954414E0,-1.241067410E1,-1.256231904E0
2.772980220E0,-6.332904339E0,-1.166860008E1,-7.103692293E-1
2.782692408E0,-3.826123476E0,-1.091216850E1,-3.529413417E-2
2.792405428E0,-1.817647934E0,-9.633803368E0,8.362914920E-1
2.802119178E0,-7.450651526E-1,-8.326424599E0,1.293320656E0
2.811832095E0,-6.442674994E-1,-7.203592777E0,1.556830287E0
2.821544283E0,-9.891330600E-1,-6.090332031E0,1.305284739E0
2.831257303E0,-1.554138303E0,-5.135296345E0,1.018146038E0
2.840971053E0,-2.178964138E0,-4.282853603E0,4.722833633E-1
2.850683970E0,-2.969193697E0,-3.471387386E0,-3.248256743E-1
2.860396158E0,-3.297010422E0,-2.724228621E0,-1.215553880E0
2.870109178E0,-3.079263687E0,-2.132902384E0,-2.642573595E0
2.879822928E0,-2.437688112E0,-1.488933921E0,-2.424527645E0
2.889535845E0,-1.362712502E0,-9.502496719E-1,-8.395816684E-1
2.899247980E0,4.546363056E-1,-6.909275055E-2,-6.002993584E-1
2.908961001E0,2.305185556E0,1.120738268E0,-1.457229018E0
2.918674803E0,2.772084951E0,-2.037189484E0,-5.443671346E-2
2.928387668E0,2.582752943E0,-4.122534275E0,-8.324031830E-1
2.938099855E0,2.281257391E0,-2.879761934E0,-7.191329479E0
2.947812876E0,3.868596077E0,-3.447459221E0,-1.783310890E1
2.957526626E0,5.503791332E0,-4.634897232E0,-1.850579071E1
2.967239543E0,3.542873144E0,-4.898108006E0,-9.860523224E0
2.976951730E0,7.633104324E-1,-5.985047817E0,-3.796512127E0
2.986664751E0,-6.996015310E-1,-3.806382656E0,2.825624466E0
2.996378501E0,-3.522234917E0,-3.634099483E0,9.660722733E0
3.006091418E0,-1.138684464E1,-9.525827408E0,4.396213531E0
3.015803605E0,-1.275613785E1,-1.127827072E1,3.965206146E0
3.025516626E0,-9.296713829E0,-1.699322891E1,-1.525424421E-1
3.035230376E0,-2.693720102E0,-1.829552269E1,2.339582443E0
3.044943293E0,1.754537225E0,-2.047657967E1,6.857231617E0
3.054655480E0,1.965105653E0,-2.109183502E1,8.078468323E0
3.064368501E0,5.479564071E-1,-1.987568283E1,5.083252430E0
3.074082251E0,-8.192426562E-1,-1.832184219E1,1.959123492E0
3.083795168E0,-1.654636860E0,-1.644257927E1,1.427617788E0
3.093507355E0,-2.856431961E0,-1.587757492E1,1.834397674E0
3.103220376E0,-4.161417484E0,-1.503948879E1,9.678967595E-1
3.112934126E0,-4.410271168E0,-1.412273788E1,-1.464407444E0
3.122647043E0,-4.541876316E0,-1.373001671E1,-3.559323788E0
3.132359230E0,-4.628317356E0,-1.329183102E1,-4.366302967E0
3.142072147E0,-3.701696634E0,-1.350000668E1,-4.083651066E0
3.151786001E0,-2.612364054E0,-1.421366596E1,-3.442075491E0
3.161498918E0,-1.013061285E0,-1.486002636E1,-3.712464333E0
3.171211053E0,3.418745399E-1,-1.442901993E1,-4.344767570E0
3.180924074E0,-3.260220885E-1,-1.259522057E1,-5.481956482E0
3.190637824E0,-1.654636860E0,-1.135992527E1,-7.545466900E0
3.200350741E0,-1.879861236E0,-1.019641590E1,-9.568598747E0
3.210062928E0,-2.803789854E0,-9.138189316E0,-1.156989574E1
3.219775949E0,-3.055335522E0,-8.664112091E0,-1.322901917E1
3.229489699E0,-2.507079840E0,-7.696813107E0,-1.343270779E1
3.239202616E0,-6.131607890E-1,-6.638587475E0,-1.286530972E1
3.248914803E0,2.190330029E0,-6.138188362E0,-1.147657585E1
3.258627824E0,4.328018188E0,-6.241079807E0,-9.927821159E0
3.268341574E0,5.822036743E0,-6.087938786E0,-7.562216759E0
3.278054491E0,5.996712685E0,-5.724229813E0,-4.811367989E0
3.287766678E0,3.813561201E0,-5.106283665E0,-2.108675003E0
3.297479595E0,1.510170221E0,-4.036392689E0,-3.439682424E-1
3.307193449E0,-1.022632599E0,-3.337090254E0,2.112264156E0
3.316906314E0,-3.435794115E0,-2.949453115E0,4.472783566E0
3.326618501E0,-4.209274292E0,-3.090629578E0,7.546962738E0
3.336331522E0,-4.587339878E0,-4.507778645E0,8.425427437E0
3.346045272E0,-5.719743252E0,-6.823133945E0,4.688436985E0
3.355758189E0,-7.043871880E0,-1.012911701E1,-2.034198284E0
3.365470376E0,-7.642376423E0,-1.490309811E1,-7.753942013E0
3.375183397E0,-5.128417015E0,-1.797937012E1,-8.263912201E0
3.384897147E0,-2.332104683E0,-1.989243126E1,-8.632407188E0
3.394610064E0,-9.269196987E-1,-2.067518425E1,-9.137591362E0
3.404322251E0,-9.795617461E-1,-1.994985962E1,-7.636394501E0
3.414035272E0,-2.365604401E0,-1.882942009E1,-6.815357208E0
3.423749022E0,-4.412663937E0,-1.841755676E1,-6.152245998E0
3.433461939E0,-7.608876705E0,-1.845584106E1,-4.368695736E0
3.443174074E0,-9.981360435E0,-1.800090599E1,-2.805285454E0
3.452887095E0,-9.837791443E0,-1.690678787E1,-2.111067772E0
3.462600845E0,-7.333403111E0,-1.575284863E1,-1.433300734E0
3.472313762E0,-4.498805523E0,-1.451276875E1,-1.371087432E0
3.482025949E0,-2.715255499E0,-1.309322643E1,-7.295117974E-1
3.491738970E0,-1.539781332E0,-1.145085239E1,6.349952817E-1
3.501452720E0,-8.790631890E-1,-9.609575272E0,1.841576099E0
3.511165637E0,-5.844469070E-1,-7.615457058E0,2.239083767E0
3.520877824E0,-9.245268703E-1,-5.625824928E0,2.052443504E0
3.530590741E0,-1.733600020E0,-3.844667673E0,1.444367528E0
3.540304595E0,-2.813361168E0,-2.262114763E0,6.852445602E-1
3.550017460E0,-4.123132706E0,-9.287142754E-1,-8.554340899E-2
3.559729647E0,-4.690530777E0,4.097708687E-2,-8.180462122E-1
3.569442668E0,-4.517948151E0,8.189435601E-1,-1.804487348E0
3.579156418E0,-3.732803345E0,1.462911963E0,-1.744666815E0
3.588869335E0,-2.262712955E0,2.011167526E0,-1.983949065E0
3.598581522E0,-5.413761139E-1,2.324926376E0,-1.423729420E0
3.608294543E0,2.581257522E-1,5.772684813E-1,2.931207791E-2
3.618008293E0,-3.595215976E-1,-2.942274570E0,8.099704385E-1
3.627721158E0,4.112663865E-1,-3.985844374E0,8.410771489E-1
3.637433345E0,1.742573142E0,-4.632504463E0,-1.852343798E0
3.647146366E0,3.049652576E0,-6.329913139E0,-7.413861752E0
3.656860116E0,5.467599869E0,-7.189235687E0,-1.571665764E1
3.666573033E0,7.952845097E0,-8.048856735E0,-2.173789597E1
3.676285220E0,5.793322563E0,-6.495018005E0,-1.340160179E1
3.685998241E0,3.147758245E0,-8.261817932E0,-4.758726120E0
3.695711991E0,-7.881359458E-1,-8.735896111E0,4.999503613E0
3.705424908E0,-5.253142834E0,-9.154939651E0,1.645035744E1
3.715137043E0,-9.993324280E0,-1.127109241E1,1.224646664E1
3.724850064E0,-1.144427204E1,-1.276271820E1,-4.998307228E0
3.734563814E0,-7.556234837E0,-1.175234795E1,-4.658227444E0
3.744276730E0,-2.190928221E0,-1.286082363E1,6.639484406E0
3.753988918E0,2.198405862E-1,-1.742393684E1,1.012522888E1
3.763701939E0,-1.020239711E0,-1.867149353E1,8.681758881E0
3.773415689E0,-5.892325640E-1,-1.683500290E1,5.842375755E0
3.783128605E0,-1.041775107E0,-1.638515282E1,2.866302490E0
3.792840741E0,-1.889432549E0,-1.653350639E1,-6.194419861E-1
3.802553762E0,-3.409473181E0,-1.584646797E1,-2.443670034E0
3.812267512E0,-4.724030018E0,-1.529821205E1,-2.096710920E0
3.821980428E0,-4.848456860E0,-1.541067505E1,-2.089532375E0
3.831692616E0,-4.297808647E0,-1.525753403E1,-3.422932863E0
3.841405637E0,-3.689732552E0,-1.417059517E1,-4.414159775E0
3.851119335E0,-2.497508526E0,-1.302622700E1,-4.940879822E0
3.860832251E0,-6.299105883E-1,-1.231496048E1,-4.847260475E0
3.870544439E0,8.709874153E-1,-1.298046494E1,-4.311268330E0
3.880257460E0,1.163210869E0,-1.400279808E1,-3.576073408E0
3.889971210E0,1.790429592E0,-1.375394440E1,-3.130709410E0
3.899684126E0,3.681955934E-1,-1.278664589E1,-4.955236435E0
3.909396314E0,-8.288139701E-1,-1.210199928E1,-8.785547256E0
3.919109230E0,-8.048857450E-1,-1.162792206E1,-1.209183025E1
3.928823033E0,1.049850956E-1,-1.107966614E1,-1.297777271E1
3.938535949E0,1.194317579E0,-1.034237766E1,-1.247258759E1
3.948248137E0,1.957927108E0,-9.171689034E0,-1.118465137E1
3.957961158E0,2.994617462E0,-8.316853523E0,-1.034656525E1
3.967674908E0,3.468695641E0,-8.010572433E0,-9.297910690E0
3.977387824E0,4.225126743E0,-7.143772125E0,-7.641180038E0
3.987099960E0,4.371387959E0,-6.159723759E0,-5.184947491E0
3.996812980E0,3.171686411E0,-5.046463013E0,-2.448455811E0
4.006526730E0,-1.848455518E-1,-3.258127213E0,-5.356931686E-1
4.016239647E0,-3.804588079E0,-1.972583175E0,3.167499006E-1
4.025951835E0,-6.289534092E0,-1.388435364E0,2.770589590E0
4.035664855E0,-7.311867714E0,-1.381256819E0,6.347260952E0
4.045378605E0,-7.295117855E0,-1.723430514E0,7.654639721E0
4.055091470E0,-7.553842068E0,-2.889632463E0,4.149752617E0
4.064803658E0,-7.376473904E0,-6.602694988E0,-9.185447693E-1
4.074516678E0,-6.246463299E0,-1.189143085E1,-6.736393929E0
4.084230428E0,-4.149453640E0,-1.753191185E1,-9.728918076E0
4.093943345E0,-1.115952611E0,-2.226491547E1,-9.075378418E0
4.103655480E0,1.783251047E0,-2.450579453E1,-7.198507786E0
4.113368501E0,1.613360643E0,-2.352653122E1,-4.808975220E0
4.123082251E0,-4.624129832E-1,-2.098654938E1,-5.161019325E0
4.132795168E0,-3.806980848E0,-1.897299004E1,-6.525526524E0
4.142507355E0,-6.785147667E0,-1.805384636E1,-5.654240131E0
4.152220376E0,-9.117252350E0,-1.754626846E1,-3.284149170E0
4.161934126E0,-1.000050354E1,-1.652393532E1,-2.190030813E0
4.171646991E0,-8.149953842E0,-1.547049522E1,-2.230708838E0
4.181359178E0,-5.454140186E0,-1.434048557E1,-2.017448664E0
4.191072199E0,-3.361616611E0,-1.299751377E1,-1.296909928E0
4.200785949E0,-2.068894386E0,-1.122802162E1,-1.668993831E-1
4.210498866E0,-1.266999602E0,-9.243474007E0,7.378866673E-1
4.220211001E0,-1.063310504E0,-7.174878597E0,1.027717352E0
4.229924022E0,-7.713862062E-1,-5.226223946E0,1.094716311E0
4.239637772E0,-8.790631890E-1,-3.823132277E0,1.066002488E0
4.249350689E0,-1.657029629E0,-2.870190859E0,1.238285661E0
4.259062876E0,-2.617149830E0,-2.370090723E0,1.721935034E0
4.268775897E0,-3.454936743E0,-2.104188442E0,1.559223056E0
4.278489647E0,-4.031906128E0,-1.857727647E0,3.550350666E-1
4.288202512E0,-4.163810730E0,-1.733001828E0,-1.960020900E0
4.297914699E0,-3.960121393E0,-1.553540111E0,-3.346362352E0
4.307627720E0,-2.954836845E0,-1.488933921E0,-2.946461916E0
4.317341470E0,-6.011967063E-1,-1.481755376E0,-1.272981644E0
4.327054387E0,2.688336134E0,-1.474576950E0,2.569293380E-1
4.336766522E0,4.062414646E0,-1.450648785E0,2.215155602E0
4.346479543E0,4.165306091E0,-3.291626692E0,1.652543187E0
4.356193293E0,3.432803154E0,-3.188735247E0,-4.756333351E0
4.365906210E0,2.522932291E0,-2.831905603E0,-1.238644600E1
4.375618397E0,1.407278776E0,-3.827918053E0,-1.888624954E1
4.385331314E0,3.777668774E-1,-4.716253281E0,-1.470150185E1
4.395045116E0,1.265204996E-1,-6.049654007E0,-1.001635551E1
4.404758033E0,-1.927717686E0,-7.586743355E0,-2.075175524E0
4.414470220E0,-2.775076151E0,-8.154141426E0,5.152644634E0
4.424183241E0,-6.040680885E0,-9.810872078E0,1.229671574E1
4.433896991E0,-7.086942673E0,-1.332772255E1,7.343273640E0
4.443609908E0,-6.823432922E0,-1.682782364E1,-1.225125194E0
4.453322043E0,-9.819545746E-1,-1.627239037E1,-3.768695518E-2
4.463035064E0,2.865405083E0,-1.655025673E1,9.529116631E0
4.472748814E0,2.209472656E0,-1.841037750E1,1.056580734E1
4.482461730E0,-4.432703853E-1,-1.712961960E1,5.413761139E0
4.492173918E0,-2.775076151E0,-1.569063568E1,1.659721613E0
4.501886835E0,-4.714458942E0,-1.513520145E1,7.692924738E-1
4.511600637E0,-5.777470112E0,-1.481934929E1,7.597211599E-1
4.521313553E0,-5.130809784E0,-1.555663776E1,9.415757060E-1
4.531025741E0,-3.239582777E0,-1.646650887E1,-1.381855011E-1
4.540738762E0,-1.918146491E0,-1.694537163E1,-2.089532375E0
4.550452512E0,-8.288139701E-1,-1.650718689E1,-2.917748213E0
4.560165376E0,9.062815458E-2,-1.548006725E1,-2.896212816E0
4.569877564E0,1.261316657E0,-1.416820240E1,-2.623430967E0
4.579590585E0,2.099103689E0,-1.318654633E1,-3.466003656E0
4.589304335E0,1.967498422E0,-1.309561920E1,-4.663012981E0
4.599017251E0,-3.738785386E-1,-1.229581833E1,-5.067699432E0
4.608729387E0,-4.266701698E0,-9.918548584E0,-5.450850010E0
4.618442408E0,-7.268796921E0,-8.331210136E0,-7.193722248E0
4.628156158E0,-7.225726128E0,-7.833203793E0,-9.202198029E0
4.637869074E0,-4.283451557E0,-8.474779129E0,-1.094985580E1
4.647581262E0,-1.391426325E0,-8.908179283E0,-1.214925766E1
4.657294178E0,7.489534616E-1,-9.145368576E0,-1.211815071E1
4.667007980E0,2.393719912E0,-9.291330338E0,-1.184297657E1
4.676720897E0,4.424029827E0,-8.857930183E0,-1.202004528E1
4.686433085E0,6.128616810E0,-8.381459236E0,-1.080628586E1
4.696146105E0,7.088438034E0,-8.206783295E0,-8.251948357E0
4.705859803E0,6.087938786E0,-7.897810459E0,-6.293422699E0
4.715572720E0,3.571586847E0,-6.760621071E0,-4.660620213E0
4.725284908E0,-1.079761237E-1,-4.819144726E0,-2.807678223E0
4.734997928E0,-3.615555048E0,-3.286840916E0,-2.811566554E-2
4.744711678E0,-5.980860233E0,-2.623729944E0,3.625425339E0
4.754424595E0,-7.019943237E0,-3.217449188E0,6.806982040E0
4.764136730E0,-6.294320107E0,-4.395316124E0,9.086145401E0
4.773849751E0,-6.090929985E0,-4.443172455E0,6.201299191E0
4.783563501E0,-5.478068352E0,-6.684051037E0,-2.264208317E0
4.793276418E0,-5.485246658E0,-1.268136215E1,-1.107218838E1
4.802988553E0,-5.207679272E0,-1.890838432E1,-1.021017456E1
4.812701574E0,-2.250748873E0,-2.225534439E1,-5.409873009E0
4.822415324E0,2.123630047E-2,-2.510669136E1,-3.822833300E0
4.832128241E0,-2.709871531E-1,-2.384029007E1,-3.226721287E0
4.841840428E0,-1.774278045E0,-2.068954086E1,-5.860022545E0
4.851553345E0,-4.357629299E0,-1.802961922E1,-8.362017632E0
4.861267147E0,-6.773183823E0,-1.648086548E1,-7.100102901E0
4.870980064E0,-7.831409454E0,-1.595414543E1,-3.892225027E0
4.880692251E0,-7.900801182E0,-1.548246002E1,-1.754238129E0
4.890405272E0,-6.634399891E0,-1.461805248E1,-7.462615371E-1
4.900119022E0,-4.364807606E0,-1.380419350E1,-1.093519926E0
4.909831887E0,-2.641077995E0,-1.286560917E1,-1.339980721E0
4.919544074E0,-1.580459356E0,-1.152503014E1,-7.797610760E-1
4.929257095E0,-9.173483849E-1,-9.739087105E0,-3.768695518E-2
4.938970845E0,-9.245268703E-1,-7.677670479E0,4.339981973E-1
4.948683710E0,-1.451246977E0,-5.654539108E0,6.014958024E-1
4.958395897E0,-2.226820469E0,-3.811168194E0,5.584250093E-1
4.968108918E0,-2.803789854E0,-2.314756870E0,1.322034448E-1
4.977822668E0,-3.210868835E0,-1.187139153E0,-2.195414752E-1
4.987535533E0,-3.661018610E0,-1.746760458E-1,-7.677969933E-1
4.997247720E0,-3.852444410E0,6.969096065E-1,-1.507777333E0
5.006960741E0,-3.665804386E0,1.230808139E0,-1.627418518E0
5.016674491E0,-3.096013308E0,1.362413406E0,-1.380658627E0
5.026387408E0,-2.044965982E0,7.423732281E-1,-1.119840980E0
5.036099543E0,-7.785646915E-1,-2.751746178E-1,-7.079764009E-1
5.045812564E0,-1.103689447E-1,-1.833799481E0,-4.016951025E-1
5.055526314E0,3.825525343E-1,-4.474279404E0,-1.517348647E0
5.065239230E0,1.685145378E0,-6.068796635E0,-6.348457813E0
5.074951366E0,4.455136776E0,-6.557231426E0,-1.170658588E1
5.084664387E0,7.809275627E0,-7.689634800E0,-8.031509399E0
5.094378137E0,7.246663570E0,-8.235497475E0,2.729911566E0
5.104091053E0,5.070391178E0,-8.364709854E0,8.626724243E0
5.113803189E0,3.734298944E0,-6.339484692E0,1.135813046E1
5.123516210E0,1.144068360E0,-9.765707254E-1,-8.919844627E0
5.133229960E0,-7.922336578E0,-4.567898273E0,-1.698784447E1
5.142942876E0,-1.782204247E1,-1.090977573E1,-2.350350142E0
5.152655064E0,-1.830090523E1,-1.499641800E1,9.775876999E0
5.162367980E0,-9.871291161E0,-2.006232262E1,7.422236919E0
5.172081783E0,1.278066397E0,-2.231277275E1,5.820840359E0
5.181794699E0,5.628218174E0,-2.161855507E1,3.448057413E0
5.191506887E0,5.388636589E0,-1.872652817E1,4.100699723E-1
5.201219908E0,3.926023722E0,-1.765873146E1,-5.189434290E-1
5.210933605E0,2.075175524E0,-1.617667770E1,1.257428288E0
5.220646522E0,-9.840483218E-2,-1.501795292E1,1.808076620E0
5.230358710E0,-3.146262646E0,-1.361516094E1,-2.482553422E-1
5.240071730E0,-5.147559643E0,-1.242024517E1,-2.637787819E0
5.249785480E0,-4.824528694E0,-1.164945698E1,-4.138685703E0
5.259498345E0,-3.316153049E0,-1.092652512E1,-4.581656933E0
5.269210533E0,-1.609173179E0,-1.016261673E1,-4.820939541E0
5.278923553E0,-2.949153781E-1,-1.113470078E1,-4.560121536E0
5.288637303E0,5.312066078E-1,-1.339472198E1,-4.543372154E0
5.298350168E0,1.476670623E0,-1.540110397E1,-5.812166214E0
5.308062355E0,3.317947626E0,-1.425673676E1,-5.737988472E0
5.317775376E0,1.639681697E0,-1.335643673E1,-6.877570629E0
5.327489126E0,-2.662015148E-2,-1.235563850E1,-8.565407753E0
5.337201991E0,-1.982752681E0,-1.135992527E1,-9.542277336E0
5.346914178E0,-2.676970243E0,-1.010040379E1,-1.094746304E1
5.356627199E0,-1.472782373E0,-8.886644363E0,-1.201525974E1
5.366340949E0,8.638089895E-1,-7.672884941E0,-1.226680565E1
5.376053814E0,3.612264872E0,-7.272984505E0,-1.165394402E1
5.385766001E0,5.963212967E0,-7.536494255E0,-9.324232101E0
5.395479022E0,6.365506649E0,-8.683254242E0,-6.767500877E0
5.405192772E0,5.352744102E0,-8.558827400E0,-3.830011845E0
5.414905637E0,2.539682150E0,-6.859025955E0,-1.974377751E0
5.424617824E0,-1.695314884E0,-4.404887199E0,-1.615454435E0
5.434330845E0,-5.597709656E0,-2.551945448E0,6.134598851E-1
5.444044595E0,-7.649554729E0,-2.264507532E0,5.835196972E0
5.453757460E0,-8.489734650E0,-3.332304716E0,9.100502968E0
5.463469647E0,-1.013450146E1,-4.814359188E0,5.416153908E0
5.473182668E0,-1.131236839E1,-8.604290962E0,-2.357528448E0
5.482896418E0,-1.165484047E1,-1.371565914E1,-8.091329575E0
5.492609335E0,-7.864908695E0,-1.920539284E1,-8.845666885E0
5.502321470E0,-2.214856386E0,-2.400539589E1,-8.117650986E0
5.512034491E0,2.233400822E0,-2.543241501E1,-6.499205589E0
5.521748241E0,3.954737663E0,-2.429283333E1,-5.074877739E0
5.531461158E0,2.003390789E0,-2.194397736E1,-5.737988472E0
5.541173293E0,-6.275177598E-1,-2.011735725E1,-5.017449856E0
5.550886314E0,-3.665804386E0,-1.834098625E1,-2.881855726E0
5.560600064E0,-8.080561638E0,-1.667468452E1,-1.158126116E0
5.570312928E0,-1.106830025E1,-1.506820202E1,-7.965108156E-1
5.580025116E0,-1.087448120E1,-1.369890976E1,-1.534098387E0
5.589738137E0,-7.824231148E0,-1.274836063E1,-2.527418852E0
5.599451887E0,-4.539483547E0,-1.236999607E1,-2.932105064E0
5.609164751E0,-2.188535452E0,-1.175713444E1,-2.278565407E0
5.618876939E0,-8.958129883E-1,-1.073719311E1,-1.009771109E0
5.628589960E0,-9.870393202E-3,-9.075976372E0,1.441675574E-1
5.638303710E0,2.389831543E-1,-7.191628456E0,6.014958024E-1
5.648016574E0,1.336989701E-1,-5.235795021E0,8.123632669E-1
5.657728762E0,-4.265206456E-1,-3.476173162E0,1.066002488E0
5.667441783E0,-1.106381416E0,-2.087438583E0,6.206383705E-1
5.677155533E0,-2.006680965E0,-9.119645357E-1,-3.176472187E-1
5.686868397E0,-2.643470764E0,-1.124626622E-1,-1.447657704E0
5.696580585E0,-3.151048422E0,5.198407173E-1,-2.292922258E0
5.706293605E0,-3.330509901E0,1.012762189E0,-1.881057739E0
5.716007355E0,-2.609971285E0,1.635494232E0,-1.565205097E0
5.725720220E0,-7.713862062E-1,2.188535452E0,-5.261218548E-1
5.735432408E0,8.709874153E-1,1.070489049E0,7.764709592E-1
5.745145324E0,1.814357758E0,-1.838585138E0,8.506484628E-1
5.754859126E0,2.927618504E0,-3.803989887E0,1.401296735E0
5.764572043E0,4.363910198E0,-4.206283092E0,4.387838542E-1
5.774284230E0,4.782953262E0,-4.993820667E0,-5.694917679E0
5.783997147E0,6.281757832E0,-5.561218739E0,-1.329392433E1
5.793710949E0,7.339983463E0,-5.930012703E0,-8.903095245E0
5.803423866E0,4.246662140E0,-5.668895721E0,-4.806582451E0
5.813136053E0,-1.166201949E0,-5.788836002E0,-3.229114056E0
5.822848970E0,-6.885945320E0,-3.693919897E0,-4.588835716E0
5.832562772E0,-1.198534966E1,-7.048058987E0,-1.866700768E0
5.842275689E0,-1.275374508E1,-1.315543938E1,7.649854183E0
5.851987824E0,-1.051047325E1,-1.703151321E1,1.272772312E1
5.861700845E0,-3.917050600E0,-1.977039719E1,4.918148041E0
5.871414595E0,2.403291225E0,-2.140320015E1,4.216751575E0
5.881127512E0,2.300399780E0,-1.948535347E1,5.294120312E0
5.890839647E0,1.081854939E0,-1.669861221E1,4.245465755E0
5.900552668E0,-4.145565331E-1,-1.685653877E1,4.092025757E0
5.910266418E0,-2.291426897E0,-1.605703545E1,4.235894203E0
5.919979335E0,-5.025525570E0,-1.496531105E1,5.608177781E-1
5.929691470E0,-7.165905476E0,-1.440030575E1,-4.160520434E-1
5.939404491E0,-7.436593533E0,-1.426630783E1,-1.229910851E0
5.949118241E0,-5.676672459E0,-1.468056488E1,-1.991127491E0
5.958831158E0,-3.375973701E0,-1.549920940E1,-2.091925144E0
5.968543293E0,-1.302891970E0,-1.563799286E1,-3.399004459E0
5.978256314E0,5.048855543E-1,-1.528864098E1,-4.555335999E0
5.987970064E0,1.814357758E0,-1.510409451E1,-4.746761799E0
5.997682980E0,2.152044773E0,-1.521416473E1,-4.715655327E0
6.007395116E0,8.997012973E-1,-1.461087418E1,-4.950450897E0
6.017108137E0,-1.896611094E0,-1.264068413E1,-5.651846886E0
6.026821887E0,-3.912265062E0,-1.045244789E1,-8.093722343E0
6.036534751E0,-4.589733124E0,-8.778966904E0,-1.142632675E1
6.046246939E0,-4.419842720E0,-7.409674644E0,-1.278634644E1
6.055959855E0,-3.234797001E0,-6.847062111E0,-1.331785297E1
6.065673658E0,-1.805384636E0,-6.686443806E0,-1.310459232E1
6.075386574E0,1.409671664E0,-6.856633186E0,-1.243191051E1
6.085098762E0,4.941178799E0,-6.978667259E0,-1.083500004E1
6.094811678E0,6.906583309E0,-6.480660915E0,-9.094520569E0
6.104525480E0,7.383054256E0,-6.049654007E0,-8.033902168E0
6.114238397E0,5.625824928E0,-5.796014786E0,-6.621538639E0
6.123950533E0,3.578765392E0,-5.219045162E0,-3.741178274E0
6.133663553E0,1.565504193E0,-4.902893543E0,-1.174875975E0
6.143377303E0,-8.910273314E-1,-4.550849438E0,1.566401482E0
6.153090220E0,-3.699303865E0,-4.086641788E0,3.967599154E0
6.162802355E0,-5.686244011E0,-4.888536453E0,6.797410965E0
6.172515376E0,-7.647161961E0,-6.361020088E0,9.431011200E0
6.182229126E0,-9.363713264E0,-7.821239948E0,7.970492363E0
6.191941991E0,-9.559925079E0,-1.180259800E1,-7.701897621E-1
6.201654178E0,-8.221738815E0,-1.766830254E1,-9.480064392E0
6.211367199E0,-3.194119215E0,-2.171665955E1,-1.131147099E1
6.221080897E0,-4.815555736E-2,-2.436222458E1,-1.010249710E1
6.230793814E0,7.082754970E-1,-2.401735878E1,-8.311768532E0
6.240506001E0,-3.930211067E-1,-2.237259293E1,-7.976474285E0
6.250218918E0,-2.705684185E0,-2.077089691E1,-8.589336395E0
6.259932720E0,-6.019145489E0,-1.949492455E1,-7.095317364E0
6.269645637E0,-9.143573761E0,-1.820459557E1,-4.426123619E0
6.279357824E0,-1.066600704E1,-1.651197243E1,-2.228316069E0
6.289070741E0,-8.195417404E0,-1.446012592E1,-8.706883192E-1
6.298784543E0,-4.920241356E0,-1.250189972E1,-5.237290859E-1
6.308497460E0,-3.385545015E0,-1.123998547E1,-1.854437590E-2
6.318209595E0,-2.329711914E0,-9.686445236E0,5.775675774E-1
6.327922616E0,-1.558923960E0,-8.053643227E0,1.166501045E0
6.337636366E0,-1.144666553E0,-6.428019047E0,1.729113460E0
6.347349230E0,-1.264606714E0,-4.902893543E0,2.193620205E0
6.357061418E0,-1.444068432E0,-3.457030535E0,2.832803011E0
6.366774439E0,-1.762313843E0,-2.449054003E0,3.448057413E0
6.376488137E0,-2.614757061E0,-1.821835399E0,2.741875648E0
6.386201053E0,-3.325724363E0,-8.521439433E-1,1.430010676E0
6.395913241E0,-3.383152008E0,-3.349951804E-1,-6.744768620E-1
6.405626158E0,-3.146262646E0,9.361918271E-2,-2.050948143E0
6.415339960E0,-2.367997169E0,3.161516786E-1,-2.019841433E0
6.425052876E0,-7.447660714E-2,7.016952634E-1,-1.031306505E0
6.434765012E0,1.074676514E0,1.788634896E0,-9.511470050E-2
6.444478033E0,-3.475574851E-1,1.230808139E0,2.691925503E-2
6.454191783E0,-6.681957245E-1,-1.199103236E0,-5.931209326E-1
6.463904699E0,7.010970116E-1,-2.327019930E0,-2.563311338E0
6.473616835E0,1.859821439E0,-3.404089212E0,-7.308577538E0
6.483329855E0,3.032902718E0,-4.294817448E0,-1.534786320E1
6.493043605E0,3.018545866E0,-5.882156372E0,-1.811067581E1
6.502756470E0,1.800000787E0,-6.514160633E0,-1.087567806E1
6.512468658E0,6.245267391E-1,-8.633005142E0,-4.861617565E0
6.522181574E0,-1.697707653E0,-1.009561825E1,4.168895245E0
6.531895376E0,-4.659423828E0,-1.090499020E1,1.103988552E1
6.541608293E0,-6.670292377E0,-1.383769321E1,3.357130051E0
6.551320428E0,-7.587341309E0,-1.732822418E1,-1.203589797E0
6.561033449E0,-3.749552965E0,-1.625324821E1,-3.530609846E0
6.570747199E0,-1.489532143E-1,-1.497248936E1,6.495915413E0
6.580460064E0,-1.369891018E-1,-1.623171234E1,1.303400421E1
6.590172251E0,-2.586043119E0,-1.827398682E1,8.621937752E0
6.599885272E0,-2.782254457E0,-1.648804283E1,3.129812002E0
6.609599022E0,-2.818146944E0,-1.603550148E1,2.411366940E0
6.619311887E0,-3.419044495E0,-1.552313805E1,1.140179992E0
6.629024074E0,-4.276273251E0,-1.523121357E1,5.823532343E-1
6.638736991E0,-4.046263218E0,-1.536281872E1,5.802594870E-2
6.648450793E0,-3.026621580E0,-1.574806309E1,-1.208375454E0
6.658163710E0,-1.767099500E0,-1.635643768E1,-2.688037157E0
6.667875845E0,-1.537388563E-1,-1.652632904E1,-4.172185421E0
6.677588866E0,1.443171144E0,-1.632981873E1,-4.749154568E0
6.687302616E0,2.496611357E0,-1.597568035E1,-3.971188307E0
6.697015480E0,2.130509377E0,-1.533171177E1,-3.245863914E0
6.706727668E0,5.072783828E-1,-1.431416416E1,-3.763012648E0
6.716440689E0,-2.624328136E0,-1.262393379E1,-5.424229622E0
6.726154387E0,-4.948955536E0,-8.982357025E0,-8.417053223E0
6.735867303E0,-7.254439831E0,-6.473482609E0,-1.090678501E1
6.745579491E0,-6.981658459E0,-5.475077152E0,-1.216152096E1
6.755292408E0,-6.143572330E0,-5.005784988E0,-1.168983555E1
6.765006210E0,-4.858027935E0,-4.936393261E0,-1.061725330E1
6.774719126E0,-2.950051308E0,-5.183153152E0,-1.017428207E1
6.784431262E0,1.265204996E-1,-5.688038349E0,-1.038006496E1
6.794144283E0,3.001796007E0,-5.779264927E0,-1.055982590E1
6.803858033E0,5.168497086E0,-5.731408596E0,-9.293125153E0
6.813570897E0,6.245865345E0,-5.927619934E0,-7.078567505E0
6.823283085E0,5.290530682E0,-6.207580090E0,-4.732405186E0
6.832996105E0,3.337090254E0,-5.307579517E0,-2.029412746E0
6.842709803E0,7.130611539E-1,-4.134498596E0,-4.187439568E-3
6.852422720E0,-2.152642965E0,-3.217449188E0,2.018944025E0
6.862134855E0,-5.027918816E0,-3.291626692E0,4.681258202E0
6.871847876E0,-7.771588802E0,-4.704289436E0,5.772684574E0
6.881561626E0,-1.017757225E1,-6.499803543E0,4.829613209E0
6.891274491E0,-1.124297619E1,-1.026819992E1,1.298106313E0
6.900986678E0,-1.117358398E1,-1.492941856E1,-4.007080555E0
6.910699699E0,-5.568995476E0,-2.069672012E1,-6.923034191E0
6.920413397E0,1.548455358E0,-2.599741936E1,-8.586943626E0
6.930126314E0,5.376672268E0,-2.756292343E1,-8.271090508E0
6.939838449E0,4.670490742E0,-2.649781799E1,-6.381957054E0
6.949551470E0,2.077568293E0,-2.391446686E1,-6.930212498E0
6.959265220E0,-1.087238789E0,-2.136700821E1,-7.049853802E0
6.968978137E0,-4.824528694E0,-1.956431580E1,-4.950450897E0
6.978690272E0,-9.576674461E0,-1.771376610E1,-2.211566210E0
6.988403293E0,-1.196142101E1,-1.568824291E1,-3.296113312E-1
6.998117043E0,-1.037168980E1,-1.436441326E1,-1.884347796E-1
7.007829908E0,-7.039085865E0,-1.349282742E1,-1.118644550E-1
7.017542095E0,-4.479662895E0,-1.236042404E1,3.526422381E-1
7.027255012E0,-2.540579557E0,-1.072522926E1,1.068395257E0
7.036968814E0,-1.465603828E0,-8.857930183E0,1.820040703E0
7.046681730E0,-1.180558920E0,-6.973881721E0,2.217548370E0
7.056393866E0,-1.281356573E0,-5.094319344E0,2.476272345E0
7.066106887E0,-1.446461320E0,-3.277269602E0,2.593520641E0
7.075820637E0,-2.107179403E0,-1.661217093E0,2.459522486E0
7.085533501E0,-3.301796198E0,-1.986042857E-1,1.896910191E0
7.095245689E0,-4.283451557E0,9.577272534E-1,1.111466169E0
7.104958605E0,-4.666602135E0,1.537089467E0,-4.471587241E-1
7.114672408E0,-4.319344044E0,1.958525300E0,-2.027019978E0
7.124385324E0,-3.701696634E0,2.262712955E0,-1.950449586E0
7.134097460E0,-1.906182289E0,2.600100994E0,-1.430907965E0
7.143810480E0,-1.444068432E0,1.704886079E0,4.435695112E-1
7.153524230E0,-2.406581402E0,-2.065903187E0,6.637091637E-1
7.163237095E0,-1.487139225E0,-3.985844374E0,-8.443672657E-1
7.172949283E0,1.227817178E0,-5.369792938E0,-4.021437645E0
7.182662199E0,3.131008387E0,-6.174080849E0,-7.117151737E0
7.192376001E0,4.450351238E0,-7.186842918E0,-1.469432354E1
7.202088918E0,6.253043652E0,-8.357531548E0,-1.930529404E1
7.211801053E0,6.073582172E0,-7.524529934E0,-8.838488579E0
7.221514074E0,4.380959034E0,-8.321639061E0,-2.087139606E0
7.231227772E0,1.800000787E0,-9.808479309E0,7.379166126E0
7.240940689E0,-1.250249892E-1,-1.029930687E1,1.629243088E1
7.250652876E0,-5.537889004E0,-1.213789177E1,5.607579708E0
7.260365793E0,-8.935098648E0,-1.121605682E1,-6.164210320E0
7.270079595E0,-8.240880966E0,-1.180499077E1,-1.955235243E0
7.279792512E0,-5.142774105E0,-1.299033546E1,4.192823410E0
7.289504647E0,-2.981158018E0,-1.488634777E1,9.067003250E0
7.299217668E0,-1.353141189E0,-1.546810246E1,8.463712692E0
7.308931366E0,-1.609173268E-1,-1.412273788E1,3.692424536E0
7.318644283E0,-5.796613097E-1,-1.355055428E1,2.579163790E0
7.328356470E0,-3.352045536E0,-1.504427433E1,1.741077542E0
7.338069387E0,-5.461318493E0,-1.525992775E1,1.417747438E-1
7.347783189E0,-5.825326920E0,-1.619581985E1,-1.177268744E0
7.357496105E0,-4.415056705E0,-1.738565063E1,-2.381456852E0
7.367208241E0,-2.660220623E0,-1.822852325E1,-2.209173441E0
7.376921158E0,-1.266999602E0,-1.821416664E1,-1.995913148E0
7.386634960E0,-3.643072546E-1,-1.717747498E1,-2.956033230E0
7.396347876E0,1.010070205E0,-1.561885071E1,-5.067699432E0
7.406060012E0,2.259721994E0,-1.428784275E1,-6.070889950E0
7.415773033E0,1.254138112E0,-1.365344620E1,-5.290231705E0
7.425486783E0,-2.404188633E0,-1.265264797E1,-4.828117847E0
7.435199647E0,-4.968098164E0,-1.023709393E1,-5.603990555E0
7.444911835E0,-6.670292377E0,-8.819644928E0,-9.367601395E0
7.454624751E0,-6.191428661E0,-8.010572433E0,-1.178554916E1
7.464338553E0,-3.795016766E0,-7.904988766E0,-1.269512081E1
7.474051470E0,-1.609173179E0,-8.221140862E0,-1.258505058E1
7.483763605E0,8.015955687E-1,-8.477172852E0,-1.192433262E1
7.493476626E0,2.937189817E0,-8.621041298E0,-1.123729324E1
7.503190376E0,5.017749310E0,-8.381459236E0,-1.026281643E1
7.512903241E0,6.154938221E0,-7.636992455E0,-9.044271469E0
7.522615428E0,5.491827011E0,-6.748657227E0,-7.629215717E0
7.532328345E0,3.547658682E0,-6.004190445E0,-5.826523304E0
7.542042147E0,1.268495083E0,-4.902893543E0,-3.113959551E0
7.551755012E0,-1.422533035E0,-3.875774384E0,1.202393398E-1
7.561467199E0,-3.601198196E0,-3.231806040E0,3.589533091E0
7.571180116E0,-4.041477680E0,-3.413660526E0,7.060920715E0
7.580893918E0,-3.536591768E0,-4.577469826E0,8.978468895E0
7.590606835E0,-3.921836376E0,-6.028118610E0,6.663413048E0
7.600318970E0,-4.738387108E0,-8.240283012E0,8.626125455E-1
7.610031991E0,-5.904289722E0,-1.293978691E1,-5.556134224E0
7.619745741E0,-6.440581322E0,-1.776162338E1,-7.449754238E0
7.629458605E0,-3.775874138E0,-2.139811516E1,-8.086544037E0
7.639170793E0,-1.506281853E0,-2.350020981E1,-9.044271469E0
7.648883710E0,-4.145565331E-1,-2.219313049E1,-7.097710133E0
7.658597512E0,-7.235297561E-1,-1.912852287E1,-6.042176247E0
7.668310428E0,-2.545365095E0,-1.672493362E1,-6.465705872E0
7.678022564E0,-4.850849628E0,-1.530060482E1,-5.199304581E0
7.687735585E0,-7.237690449E0,-1.458694553E1,-3.633501291E0
7.697449283E0,-9.677472115E0,-1.414427376E1,-2.010270119E0
7.707162199E0,-1.021107197E1,-1.357926846E1,-9.379864931E-1
7.716874335E0,-7.843373299E0,-1.277707481E1,-8.850452900E-1
7.726587355E0,-5.051846981E0,-1.219771290E1,-1.074377418E0
7.736301105E0,-3.177369356E0,-1.136710358E1,-5.955137610E-1
7.746013970E0,-1.805384636E0,-1.023709393E1,-9.272187948E-2
7.755726158E0,-1.087238789E0,-8.944071770E0,2.353939265E-1
7.765439074E0,-9.556335211E-1,-7.636992455E0,5.560321808E-1
7.775152876E0,-1.484746456E0,-6.260521412E0,6.373881102E-1
7.784865793E0,-2.367997169E0,-5.044070244E0,1.104287624E0
7.794577928E0,-3.129513025E0,-3.715455294E0,9.583254457E-1
7.804290949E0,-3.596412420E0,-2.621337175E0,4.845465720E-2
7.814004647E0,-3.646661758E0,-1.946262121E0,-7.247261405E-1
7.823717564E0,-3.050549746E0,-1.438684583E0,-1.969592094E0
7.833429699E0,-1.903789520E0,-1.110568762E0,-2.613560438E0
7.843142720E0,-4.145565331E-1,-8.162516356E-1,-1.158126116E0
7.852856470E0,1.721037745E0,-4.761717021E-1,2.258226424E-1
7.862569335E0,3.294019461E0,-4.953143001E-1,-5.404788256E-1
7.872281522E0,4.098307133E0,-2.611765862E0,-5.261218548E-1
7.881994439E0,4.703989983E0,-3.976273060E0,-2.376671076E0
7.891708241E0,5.161318302E0,-3.928416491E0,-8.692227364E0
7.901421158E0,7.023831844E0,-5.082355499E0,-1.840529251E1
7.911133293E0,7.751848221E0,-6.243472576E0,-1.818485451E1
7.920846314E0,4.091128349E0,-5.793622017E0,-6.899106026E0
7.930560012E0,-1.353141189E0,-6.887740135E0,1.386939883E0
7.940272928E0,-3.603590965E0,-4.955535889E0,4.156930923E0
7.949985064E0,-4.170989037E0,-4.225425720E0,5.133502007E0
7.959698085E0,-8.564210892E0,-7.129415035E0,-1.004985452E0
7.969411835E0,-1.291406345E1,-1.010040379E1,5.225326419E-1
7.979124699E0,-1.220788193E1,-1.740240097E1,4.743471622E0
7.988836887E0,-6.421438694E0,-1.937049675E1,5.679364681E0
7.998549803E0,-1.417747438E-1,-2.017957115E1,9.742377281E0
8.008263605E0,2.882154942E0,-1.969831467E1,9.783055305E0
8.017976470E0,2.341077805E0,-1.757019806E1,3.436093330E0
8.027688658E0,5.048855543E-1,-1.701954842E1,3.211168051E0
8.037401574E0,-1.958824396E0,-1.626042557E1,3.831208229E0
8.047115376E0,-4.288237095E0,-1.483849144E1,2.090728760E0
8.056828293E0,-6.081358910E0,-1.364626789E1,-3.367897868E-1
8.066540428E0,-6.742076874E0,-1.318415356E1,-1.806880236E0
8.076253449E0,-7.204190731E0,-1.300469208E1,-3.506681681E0
8.085967147E0,-6.734898567E0,-1.330618763E1,-4.368695736E0
8.095680064E0,-4.278666019E0,-1.390469265E1,-4.344767570E0
8.105392199E0,-6.514459848E-1,-1.422562981E1,-4.289433479E0
8.115105220E0,2.683550596E0,-1.436441326E1,-4.304089546E0
8.124818970E0,4.165306091E0,-1.404347610E1,-4.808975220E0
8.134531835E0,3.463909864E0,-1.360319710E1,-5.979663849E0
8.144244022E0,3.155534863E-1,-1.229103279E1,-7.279863834E0
8.153956939E0,-3.390330553E0,-9.611968994E0,-8.450551987E0
8.163670741E0,-5.423033237E0,-7.893024445E0,-1.024128056E1
8.173383658E0,-5.686244011E0,-6.550053120E0,-1.157707405E1
8.183095793E0,-5.195715427E0,-5.839085579E0,-1.256590843E1
8.192808814E0,-3.253939629E0,-5.963512421E0,-1.370070457E1
8.202522512E0,2.341975123E-1,-6.334698677E0,-1.370309734E1
8.212235428E0,3.475873947E0,-6.777370930E0,-1.144546890E1
8.221947564E0,6.355935097E0,-7.143772125E0,-8.656334877E0
8.231660585E0,7.555337429E0,-7.455138206E0,-5.984449387E0
8.241374335E0,6.509075642E0,-7.613064289E0,-4.203291893E0
8.251087199E0,4.055236340E0,-6.569195271E0,-2.233101845E0
8.260799387E0,6.293123364E-1,-5.403292656E0,2.736790776E-1
8.270512303E0,-2.016252279E0,-4.675575256E0,3.120240688E0
8.280226105E0,-4.012763500E0,-4.807180882E0,6.481558323E0
8.289939022E0,-5.501996517E0,-5.542076111E0,9.007183075E0
8.299651158E0,-5.545067310E0,-7.038487911E0,7.357630730E0
8.309364178E0,-5.222036362E0,-1.073719311E1,-1.406979680E0
8.319077876E0,-5.521139145E0,-1.580578995E1,-7.586144924E0
8.328790793E0,-2.789433002E0,-2.028276062E1,-7.818548203E0
8.338502928E0,-5.916253924E-1,-2.367518616E1,-7.899903774E0
8.348215949E0,-7.235297561E-1,-2.374936295E1,-7.126723289E0
8.357929699E0,-1.946860313E0,-2.209502602E1,-5.788238049E0
8.367642564E0,-3.744767427E0,-2.013171387E1,-5.929414749E0
8.377354751E0,-5.284249783E0,-1.828834343E1,-4.543372154E0
8.387067668E0,-6.404688835E0,-1.701476288E1,-2.304886341E0
8.396781470E0,-8.667102814E0,-1.537956810E1,-1.625025630E0
8.406494387E0,-9.016454697E0,-1.350239944E1,-1.940878272E0
8.416206522E0,-7.412366390E0,-1.188185978E1,-1.787737608E0
8.425919543E0,-5.662315845E0,-1.035912704E1,-1.292124271E0
8.435633241E0,-4.733601570E0,-9.473184586E0,-8.252246976E-1
8.445346158E0,-3.775874138E0,-8.814859390E0,-2.243271172E-1
8.455058345E0,-2.775076151E0,-7.977072716E0,4.220340848E-1
8.464771262E0,-2.219642162E0,-6.782156467E0,5.344967842E-1
8.474485064E0,-2.231606245E0,-5.561218739E0,3.622135222E-1
8.484197928E0,-2.504687071E0,-4.673182487E0,4.890331328E-1
8.493910116E0,-2.851646423E0,-3.622135162E0,6.900302172E-1
8.503623033E0,-3.139084101E0,-2.872583628E0,2.931207791E-2
8.513336835E0,-3.194119215E0,-2.458625317E0,-8.994022012E-1
8.523049751E0,-3.253939629E0,-2.099402666E0,-2.211566210E0
8.532761887E0,-3.096013308E0,-1.872084618E0,-2.603989124E0
8.542474908E0,-2.557329178E0,-2.044367790E0,-1.871486425E0
8.552188658E0,-6.538388133E-1,-2.487339020E0,-8.156534433E-1
8.561901522E0,2.017747641E0,-2.501696110E0,-2.075773627E-1
8.571613658E0,3.710370541E0,-2.286042929E0,6.281159073E-2
8.581326678E0,4.617848396E0,-4.079463482E0,-3.152543902E-1
8.591040428E0,4.495814800E0,-4.483850479E0,-3.032603502E0
8.600753345E0,3.995415688E0,-3.849453449E0,-7.509574890E0
8.610465480E0,4.715954304E0,-5.113461971E0,-1.304237938E1
8.620178501E0,3.885345697E0,-5.872584820E0,-1.409821224E1
8.629892199E0,1.115354419E0,-5.063212872E0,-1.432313728E1
8.639605116E0,-4.360022068E0,-5.252544880E0,-4.677370071E0
8.649317251E0,-8.434700012E0,-6.126224041E0,7.467700481E0
8.659030272E0,-1.049372387E1,-7.684848785E0,1.280907917E1
8.668744022E0,-1.040040398E1,-1.159920788E1,7.364809036E0
8.678456887E0,-5.540281773E0,-1.519262886E1,1.540080428E0
8.688169074E0,2.420041084E0,-1.710329819E1,1.721935034E0
8.697881991E0,5.582754135E0,-1.874327850E1,6.550950050E0
8.707595793E0,3.430410385E0,-1.912134552E1,1.021615601E1
8.717308710E0,-5.270192027E-1,-1.925803566E1,5.801697731E0
8.727020845E0,-2.521436930E0,-1.799612045E1,1.947159410E0
8.736733866E0,-4.226023674E0,-1.685175323E1,-1.692921966E-1
8.746447616E0,-4.965705395E0,-1.645454407E1,-5.213362575E-1
8.756160480E0,-4.920241356E0,-1.629153252E1,-1.094716340E-1
8.765872668E0,-3.845266104E0,-1.608814240E1,-8.180462122E-1
8.775585585E0,-2.044965982E0,-1.534846210E1,-3.018246651E0
8.785299387E0,-1.151545867E-1,-1.368933868E1,-5.220839977E0
8.795012303E0,1.112961650E0,-1.195364475E1,-6.520740986E0
8.804724439E0,1.201496124E0,-1.070847988E1,-6.350850582E0
8.814437460E0,-7.208377868E-2,-9.964012146E0,-5.283053398E0
8.824151210E0,-2.222034931E0,-9.942477226E0,-4.270291328E0
8.833864074E0,-3.838087559E0,-9.806086540E0,-4.316053867E0
8.843576262E0,-3.984049797E0,-9.360722542E0,-6.049354553E0
8.853289178E0,-3.522234917E0,-9.303294182E0,-9.599705696E0
8.863002980E0,-2.432902336E0,-9.370293617E0,-1.247019482E1
8.872715897E0,-1.398604870E0,-9.607182503E0,-1.279352570E1
8.882428033E0,2.557329237E-1,-9.703194618E0,-1.142154026E1
8.892141053E0,2.664108992E0,-9.159725189E0,-1.016471100E1
8.901854803E0,5.032105923E0,-8.453244209E0,-9.273982048E0
8.911567668E0,6.011069775E0,-7.739883900E0,-8.251948357E0
8.921279855E0,5.546862125E0,-7.452745438E0,-7.507182121E0
8.930992772E0,4.646562576E0,-6.954739094E0,-5.438885689E0
8.940706574E0,2.886940479E0,-6.064010620E0,-2.747857809E0
8.950419491E0,5.623133183E-1,-5.199902534E0,-1.371087432E0
8.960131626E0,-2.155035973E0,-4.502993107E0,3.358924687E-1
8.969844647E0,-4.178167343E0,-4.541278362E0,4.310071945E0
8.979558397E0,-4.726422787E0,-5.321936607E0,8.794221878E0
8.989271262E0,-5.978467464E0,-5.264508724E0,8.181359291E0
8.998983449E0,-7.299903870E0,-5.700301647E0,3.479164124E0
9.008696366E0,-8.121239662E0,-8.924929619E0,-2.503490686E0
9.018410168E0,-8.068597794E0,-1.568345737E1,-7.203293324E0
9.028123085E0,-5.003990173E0,-1.899213219E1,-7.490432262E0
9.037835220E0,-1.683350682E0,-2.235584259E1,-8.922237396E0
9.047548241E0,-1.992024779E-1,-2.279402924E1,-7.904689789E0
9.057261991E0,-4.025924206E-1,-2.126172447E1,-5.623133183E0
9.066974855E0,-2.272284269E0,-1.915992928E1,-4.572085857E0
9.076687043E0,-4.953741074E0,-1.710329819E1,-3.585644722E0
9.086399960E0,-7.824231148E0,-1.581775379E1,-2.690429926E0
9.096113762E0,-9.136395454E0,-1.524317741E1,-3.049353361E0
9.105826678E0,-8.504091263E0,-1.463001633E1,-3.085245609E0
9.115538814E0,-6.361618042E0,-1.381137276E1,-2.484348059E0
9.125251835E0,-3.957728624E0,-1.322483158E1,-2.228316069E0
9.134965585E0,-2.064108610E0,-1.211874962E1,-1.517348647E0
9.144678449E0,-1.166201949E0,-1.072044373E1,-5.835496187E-1
9.154390637E0,-5.461617708E-1,-9.176474571E0,2.736790776E-1
9.164103658E0,-7.666005492E-1,-7.409674644E0,7.836494446E-1
9.173817355E0,-1.441675663E0,-5.858228207E0,1.099501967E0
9.183530272E0,-2.516651154E0,-4.632504463E0,1.432403445E0
9.193242408E0,-3.399901867E0,-3.155235767E0,1.492223978E0
9.202955428E0,-4.151846409E0,-2.346162558E0,2.736790776E-1
9.212669178E0,-4.319344044E0,-1.723430514E0,-9.137591720E-1
9.222382095E0,-4.613960266E0,-1.201795220E0,-2.173281193E0
9.232094230E0,-4.312165737E0,-8.234301209E-1,-2.843570709E0
9.241807251E0,-3.684946775E0,-7.229315639E-1,-2.101496458E0
9.251521001E0,-2.119143486E0,-5.718846321E-1,-7.606185079E-1
9.261233866E0,2.126621157E-1,-2.632105052E-1,-1.823629975E0
9.270946053E0,1.828714728E0,-1.302293777E0,-2.170888424E0
9.280659074E0,3.705585003E0,-4.560420990E0,-2.513062000E0
9.290372772E0,4.284946918E0,-4.785645485E0,-6.992425919E0
9.300085689E0,4.634598255E0,-4.474279404E0,-1.702373695E1
9.309797876E0,5.664110184E0,-5.803193092E0,-1.705723572E1
9.319510793E0,5.173282623E0,-6.523731709E0,-1.053829002E1
9.329224595E0,1.874178290E0,-7.569993496E0,-8.515457511E-1
9.338937512E0,8.446664214E-1,-7.603493214E0,4.436891556E0
9.348649647E0,-3.643072546E-1,-6.947560310E0,1.453998661E1
9.358362668E0,-6.469295025E0,-1.007886791E1,6.711269379E0
9.368076418E0,-1.115922737E1,-8.838788033E0,-2.637787819E0
9.377789335E0,-1.013928699E1,-1.207089329E1,4.140181541E0
9.387501470E0,-3.921836376E0,-1.721815300E1,7.757531166E0
9.397214491E0,1.744965911E0,-1.930110550E1,6.713662148E0
9.406928241E0,2.637787819E0,-1.753909111E1,3.395415306E0
9.416641158E0,-6.705885530E-1,-1.657896996E1,3.909274042E-1
9.426353293E0,-4.264308929E0,-1.565952873E1,7.091727853E-1
9.436066314E0,-6.246463299E0,-1.483370590E1,8.985049129E-1
9.445780064E0,-6.529115677E0,-1.489352608E1,1.334297776E0
9.455492928E0,-4.453341961E0,-1.542503166E1,1.590329766E0
9.465205116E0,-3.194119215E0,-1.567149258E1,-6.290132403E-1
9.474918137E0,-2.736790895E0,-1.519262886E1,-2.587239504E0
9.484631887E0,-1.992323995E0,-1.440987682E1,-3.265006542E0
9.494344751E0,-1.556531072E0,-1.378744411E1,-2.908176899E0
9.504056939E0,-5.246263742E-1,-1.359601784E1,-2.764607430E0
9.513769960E0,3.729812205E-1,-1.413948822E1,-3.080460072E0
9.523483658E0,5.527420044E-1,-1.447926903E1,-3.635894060E0
9.533196574E0,-7.115656137E-1,-1.342582893E1,-5.117948532E0
9.542908762E0,-2.885145903E0,-1.078056335E1,-7.346862793E0
9.552621783E0,-3.924229145E0,-9.154939651E0,-9.932606697E0
9.562335480E0,-1.903789520E0,-9.504291534E0,-1.010249710E1
9.572048397E0,2.150549293E-1,-1.038544846E1,-1.040638542E1
9.581760585E0,2.336292267E0,-1.075902748E1,-1.132582760E1
9.591473605E0,3.861417532E0,-9.751050949E0,-1.223330593E1
9.601187303E0,5.400600910E0,-8.204390526E0,-1.245583820E1
9.610900220E0,6.667301178E0,-6.832705021E0,-1.146700478E1
9.620612408E0,6.360720634E0,-6.207580090E0,-1.018146038E1
9.630325428E0,5.431707382E0,-5.903691769E0,-7.998009682E0
9.640039178E0,3.430410385E0,-5.027320385E0,-4.155435562E0
9.649752043E0,4.594219327E-1,-4.225425720E0,2.569293380E-1
9.659464230E0,-3.287439108E0,-3.224627733E0,2.207977057E0
9.669177251E0,-6.045466423E0,-2.556730986E0,5.557330608E0
9.678891001E0,-7.063014030E0,-3.559921980E0,1.089153004E1
9.688603866E0,-7.453343391E0,-5.024927616E0,1.144696426E1
9.698316053E0,-8.032705307E0,-6.538088799E0,5.310869694E0
9.708029074E0,-7.766803265E0,-9.999904633E0,-4.495515347E0
9.717742824E0,-5.906682491E0,-1.454866123E1,-1.039442158E1
9.727455689E0,-2.576471806E0,-1.901366806E1,-9.862915993E0
9.737167876E0,2.024926186E0,-2.358874512E1,-8.809774399E0
9.746880897E0,3.463909864E0,-2.455843544E1,-5.919843197E0
9.756594647E0,1.649253011E0,-2.288974190E1,-3.521038532E0
9.766307564E0,-1.630708575E0,-2.044308090E1,-3.568894863E0
9.776019699E0,-6.057430744E0,-1.794347763E1,-2.908176899E0
9.785732720E0,-9.155537605E0,-1.637558174E1,-2.589632273E0
9.795446470E0,-1.004357433E1,-1.567867088E1,-2.678465843E0
9.805159387E0,-8.597710609E0,-1.498923969E1,-1.974377751E0
9.814871522E0,-5.470890045E0,-1.434287834E1,-1.150947690E0
9.824584543E0,-3.270689487E0,-1.403869057E1,-4.519443810E-1
9.834298293E0,-2.178964138E0,-1.309322643E1,1.585244983E-1
9.844011210E0,-2.186142683E0,-1.170209885E1,6.637091637E-1
9.853723345E0,-2.289033890E0,-1.005733299E1,9.990034699E-1
9.863436366E0,-1.752742529E0,-8.221140862E0,9.678967595E-1
9.873150116E0,-1.652244091E0,-6.317949295E0,4.292125702E-1
9.882863033E0,-2.023430586E0,-4.711467743E0,5.802594870E-2
9.892575220E0,-2.667398930E0,-3.188735247E0,-5.596213937E-1
9.902288137E0,-3.194119215E0,-1.979761600E0,-1.004985452E0
9.912001939E0,-3.534198999E0,-1.062712312E0,-1.644168258E0
9.921714855E0,-3.076870918E0,-3.230310678E-1,-2.755036116E0
9.931427043E0,-2.461616278E0,3.735794425E-1,-2.958425999E0
9.941140064E0,-1.345962763E0,4.525425732E-1,-2.166102648E0
9.950853814E0,5.952146277E-2,9.361918271E-2,-4.471587241E-1
9.960566678E0,1.012463093E0,-7.301099896E-1,2.808575630E-1
9.970278866E0,1.141675472E0,-2.877369165E0,-6.936194897E-1
9.979991887E0,1.582253933E0,-5.113461971E0,-2.838784933E0
9.989705637E0,2.219043970E0,-6.451947212E0,-4.658227444E0
9.999418553E0,3.926023722E0,-7.931309700E0,-8.708976746E0
1.000913069E1,6.815656185E0,-9.298508644E0,-1.468953800E1
1.001884371E1,7.617550850E0,-8.546863556E0,-8.912666321E0
1.002855746E1,6.451648235E0,-8.939286232E0,-1.038485050E0
1.003827038E1,2.855833769E0,-7.426424026E0,9.809376717E0
1.004798251E1,-8.982058167E-1,-5.597111225E0,1.508106422E1
1.005769553E1,-6.136393547E0,-1.644467354E0,-3.969094455E-1
1.006740928E1,-1.420469284E1,-5.312066078E-1,-6.436992168E0
1.007712220E1,-1.567448425E1,-4.010071754E0,-4.294219494E0
1.008683439E1,-1.191117191E1,-1.050748253E1,3.630211115E0
1.009654741E1,-3.337688446E0,-1.640190125E1,5.566901684E0
1.010626110E1,2.688336134E0,-1.920299911E1,5.767899036E0
1.011597402E1,2.460718870E0,-1.935374832E1,3.919742584E0
1.012568621E1,1.936391711E0,-1.825723648E1,1.492223978E0
1.013539923E1,-2.991028305E-4,-1.870499420E1,1.523330688E0
1.014511298E1,-9.939187169E-1,-1.825723648E1,2.227119684E0
1.015482590E1,-9.652048349E-1,-1.798415565E1,1.990230203E0
1.016453803E1,1.289133132E-1,-1.769223213E1,1.137787223E0
1.017425105E1,-4.648058116E-1,-1.687807274E1,-7.630113363E-1
1.018396480E1,-1.896611094E0,-1.537478256E1,-2.424527645E0
1.019367772E1,-2.305783749E0,-1.376590824E1,-3.509074450E0
1.020338986E1,-1.958824396E0,-1.215942764E1,-4.457230568E0
1.021310288E1,-1.415354609E0,-1.111316586E1,-4.840082169E0
1.022281663E1,-2.178964138E0,-1.125434208E1,-4.540979385E0
1.023252954E1,-3.021835804E0,-1.165663528E1,-3.983152390E0
1.024224173E1,-3.962514400E0,-1.076859951E1,-4.648656368E0
1.025195475E1,-3.670589924E0,-1.014108181E1,-7.001997471E0
1.026166850E1,-2.382653236E0,-1.045962620E1,-9.707382202E0
1.027138137E1,-7.378866673E-1,-1.170449162E1,-1.000917721E1
1.028109355E1,6.173482537E-1,-1.290867996E1,-1.053350449E1
1.029080657E1,1.666002750E0,-1.253300667E1,-1.164197922E1
1.030052032E1,2.156830549E0,-1.064387321E1,-1.220459175E1
1.031023324E1,2.587538481E0,-8.458029747E0,-1.186451244E1
1.031994538E1,2.841476917E0,-7.031309128E0,-1.044945621E1
1.032965840E1,2.846262455E0,-6.205187321E0,-7.998009682E0
1.033937215E1,2.501396894E0,-5.321936607E0,-5.575276852E0
1.034908506E1,3.370888829E-1,-4.601397991E0,-3.559323788E0
1.035879720E1,-2.260320187E0,-3.301198006E0,-1.095912814E0
1.036851022E1,-4.159024715E0,-2.413161755E0,2.306082845E-1
1.037822397E1,-5.032704353E0,-2.465803623E0,2.854338408E0
1.038793689E1,-4.728815556E0,-3.748954773E0,6.402595043E0
1.039764907E1,-4.036691666E0,-5.666502953E0,6.364310265E0
1.040736210E1,-3.728017569E0,-8.776574135E0,-1.668993831E-1
1.041707585E1,-4.584947109E0,-1.363669586E1,-8.086544037E0
1.042678871E1,-5.133202553E0,-1.798415565E1,-8.941379547E0
1.043650090E1,-2.373081923E0,-2.278924370E1,-5.704489231E0
1.044621392E1,2.389831543E-1,-2.492962265E1,-3.525824070E0
1.045592767E1,-4.456632137E-1,-2.278684998E1,-2.510669231E0
1.046564059E1,-2.681756020E0,-1.932264137E1,-5.306981564E0
1.047535272E1,-5.552245617E0,-1.659093475E1,-7.662715435E0
1.048506574E1,-8.092526436E0,-1.496291828E1,-7.080960274E0
1.049477949E1,-9.789935112E0,-1.465873051E1,-4.646263599E0
1.050449241E1,-1.032383347E1,-1.475474262E1,-2.465205431E0
1.051420460E1,-8.499305725E0,-1.450319672E1,-1.837986946E0
1.052391751E1,-4.977669239E0,-1.399083424E1,-1.656132340E0
1.053363131E1,-2.344068766E0,-1.348804188E1,-1.658525229E0
1.054334423E1,-7.905287743E-1,-1.232213974E1,-5.261218548E-1
1.055305642E1,-1.848455518E-1,-1.079970551E1,6.613163352E-1
1.056276944E1,1.025922745E-1,-8.989535332E0,1.571187139E0
1.057248319E1,1.097707376E-1,-7.306483746E0,2.095514536E0
1.058219605E1,-6.610172391E-1,-5.755336761E0,2.248655081E0
1.059190824E1,-2.035394669E0,-4.424029827E0,2.404188633E0
1.060162126E1,-3.407080412E0,-3.337090254E0,1.875374794E0
1.061133501E1,-4.465306282E0,-2.693121910E0,7.283154130E-1
1.062104793E1,-4.874777794E0,-2.271686077E0,-8.898309469E-1
1.063076006E1,-4.594518661E0,-2.020439625E0,-2.829213619E0
1.064047308E1,-3.926621914E0,-1.793121457E0,-3.403790236E0
1.065018684E1,-2.696112871E0,-1.689931035E0,-2.872284412E0
1.065989975E1,-8.192426562E-1,-1.400399446E0,-1.957628012E0
1.066961194E1,8.111668825E-1,-6.870391965E-1,-2.099103689E0
1.067932486E1,1.435992718E0,-1.074676514E0,-1.983949065E0
1.068903866E1,1.409671664E0,-3.370589733E0,-2.209173441E0
1.069875157E1,6.652047038E-1,-4.967499733E0,-4.689334393E0
1.070846376E1,9.978070259E-1,-3.820739508E0,-1.077278709E1
1.071817678E1,2.479861498E0,-4.637290478E0,-1.427767372E1
1.072789053E1,3.624228954E0,-5.207081318E0,-7.713263988E0
1.073760340E1,2.336292267E0,-6.207580090E0,-1.888236165E0
1.074731558E1,2.324328184E0,-5.609075546E0,5.153541565E-1
1.075702860E1,1.335494161E0,-2.817548752E0,2.916551590E0
1.076674236E1,-2.662015259E-1,-6.214758396E0,3.309273720E0
1.077645527E1,-9.006883621E0,-1.295653629E1,-7.866404533E0
1.078616741E1,-1.021585751E1,-1.259522057E1,2.260619164E0
1.079588043E1,-7.520342350E0,-1.779273033E1,3.644567966E0
1.080559418E1,-2.186142683E0,-1.909023857E1,8.150253296E0
1.081530710E1,2.484647274E0,-2.012692833E1,8.921041489E0
1.082501928E1,3.696013689E0,-1.786930084E1,4.113561153E0
1.083473220E1,2.582752943E0,-1.689721680E1,-3.050848842E-2
1.084444600E1,-1.776670814E-1,-1.579143333E1,2.332403898E0
1.085415892E1,-3.318545818E0,-1.490549088E1,2.868695259E0
1.086387111E1,-5.564209938E0,-1.442184162E1,1.995015889E-1
1.087358413E1,-6.486044884E0,-1.393579865E1,-1.138983607E0
1.088329788E1,-5.626423359E0,-1.392862034E1,-3.451646566E0
1.089301074E1,-3.471686602E0,-1.412752438E1,-4.658227444E0
1.090272293E1,-1.695314884E0,-1.363908863E1,-4.869094849E0
1.091243595E1,2.270190418E-1,-1.316261864E1,-4.462016106E0
1.092214970E1,2.032104731E0,-1.295892906E1,-3.229114056E0
1.093186262E1,2.604288340E0,-1.234367466E1,-2.527418852E0
1.094157475E1,1.938784599E0,-1.284407330E1,-3.159423113E0
1.095128777E1,-1.245165110E0,-1.323200989E1,-5.326124191E0
1.096100152E1,-4.704887390E0,-8.324031830E0,-6.157031536E0
1.097071444E1,-6.629614353E0,-7.481459141E0,-9.700203896E0
1.098042657E1,-6.373582363E0,-7.541279793E0,-1.341117287E1
1.099013960E1,-5.748756409E0,-7.907381535E0,-1.489292812E1
1.099985334E1,-3.835694790E0,-8.051250458E0,-1.459621811E1
1.100956626E1,-6.610172391E-1,-8.319246292E0,-1.291077328E1
1.101927845E1,2.889333248E0,-8.297710419E0,-1.080150032E1
1.102899137E1,5.767001629E0,-8.484351158E0,-8.740083694E0
1.103870517E1,7.775776386E0,-8.290532112E0,-6.547360897E0
1.104841809E1,8.412566185E0,-7.581957817E0,-4.395017147E0
1.105813027E1,6.001498222E0,-7.210771084E0,-1.356730461E0
1.106784329E1,2.384148598E0,-5.592325687E0,2.124228239E0
1.107755704E1,-1.453639746E0,-3.770490170E0,4.475176334E0
1.108726991E1,-4.154239178E0,-2.302792788E0,4.997110844E0
1.109698210E1,-5.777470112E0,-1.268794179E0,4.219144344E0
1.110669512E1,-7.134799004E0,-1.259222865E0,1.666900039E0
1.111640887E1,-8.602496147E0,-3.667598963E0,-4.267898083E0
1.112612178E1,-8.961420059E0,-8.359924316E0,-8.076972961E0
1.113583392E1,-8.944669724E0,-1.313868999E1,-7.006783009E0
1.114554694E1,-6.483652115E0,-1.759651947E1,-4.473979950E0
1.115526069E1,-3.857230186E0,-2.183869362E1,-3.525824070E0
1.116497360E1,-1.008275628E0,-2.378525543E1,-3.396611691E0
1.117468574E1,4.351946115E-1,-2.383550453E1,-4.205684662E0
1.118439876E1,6.191428751E-2,-2.192004967E1,-5.927021503E0
1.119411251E1,-1.508674622E0,-1.954756546E1,-7.061817646E0
1.120382543E1,-3.450151205E0,-1.849173355E1,-6.274280071E0
1.121353762E1,-5.281857014E0,-1.728754616E1,-4.617549419E0
1.122325053E1,-5.789434433E0,-1.540110397E1,-2.781357288E0
1.123296434E1,-4.927420139E0,-1.335643673E1,-1.794916034E0
1.124267725E1,-4.060919285E0,-1.107488060E1,-1.809273005E0
1.125238944E1,-4.226023674E0,-9.099904060E0,-1.663310885E0
1.126210246E1,-4.594518661E0,-7.488637447E0,-9.233304262E-1
1.127181621E1,-4.494019985E0,-6.305984974E0,-3.607180119E-1
1.128152907E1,-3.646661758E0,-5.235795021E0,-8.554340899E-2
1.129124126E1,-2.562114954E0,-4.124927044E0,-1.621137410E-1
1.130095428E1,-2.176571369E0,-3.258127213E0,-2.506481707E-1
1.131066803E1,-1.910967946E0,-3.054737091E0,-2.554338276E-1
1.132038090E1,-1.901396751E0,-2.963809967E0,-6.218347549E-1
1.133009309E1,-2.217249393E0,-2.750549555E0,-8.970093727E-1
1.133980611E1,-2.636292458E0,-2.592623234E0,-1.246660590E0
1.134951986E1,-1.934896231E0,-2.700300455E0,-1.981556296E0
1.135923277E1,-2.925225794E-1,-2.980559587E0,-2.280958176E0
1.136894491E1,2.331506491E0,-3.516851187E0,-1.656132340E0
1.137865793E1,4.407280445E0,-3.693919897E0,-2.084746838E0
1.138837168E1,4.780560493E0,-4.215854168E0,-2.146960020E0
1.139808460E1,3.626621723E0,-4.859822750E0,-1.339980721E0
1.140779673E1,2.271686077E0,-4.407280445E0,-2.422134638E0
1.141750975E1,2.570788860E0,-4.416851521E0,-7.471289635E0
1.142722350E1,3.983451605E0,-4.713860512E0,-1.488096428E1
1.143693642E1,2.554039001E0,-3.818346739E0,-1.075364399E1
1.144664860E1,-1.197308660E0,-3.813561201E0,-5.936593056E0
1.145636152E1,-4.841278553E0,-3.662813187E0,8.410771489E-1
1.146607532E1,-7.156334400E0,-3.059522867E0,3.263810158E0
1.147578824E1,-8.343772888E0,-3.492922783E0,-8.826524615E-1
1.148550043E1,-1.155194950E1,-8.700003624E0,-3.190829039E0
1.149521335E1,-7.852944851E0,-1.439312744E1,2.928216755E-1
1.150492720E1,-1.151844978E0,-1.957388687E1,5.904589176E0
1.151464006E1,4.821238518E0,-1.956910133E1,8.339285851E0
1.152435225E1,5.259424210E0,-1.947099686E1,9.969695091E0
1.153406527E1,1.723430514E0,-1.702433395E1,4.484747887E0
1.154377902E1,-1.087238789E0,-1.516630840E1,6.520441920E-2
1.155349189E1,-3.428615808E0,-1.489831161E1,5.313262463E0
1.156320407E1,-3.780659676E0,-1.509452343E1,5.028217793E0
1.157291710E1,-3.955335855E0,-1.500598907E1,1.681257010E0
1.158263084E1,-4.604089737E0,-1.487438393E1,-1.573280841E-1
1.159234371E1,-4.443770885E0,-1.459412479E1,-1.426122308E0
1.160205590E1,-3.495913982E0,-1.409372520E1,-2.688037157E0
1.161176892E1,-1.939681888E0,-1.341865063E1,-2.369492531E0
1.162148267E1,-5.700899959E-1,-1.294935799E1,-1.593919039E0
1.163119553E1,7.561319470E-1,-1.267896938E1,-2.484348059E0
1.164090772E1,1.718644857E0,-1.225274754E1,-4.502694130E0
1.165062074E1,1.354636669E0,-1.213071346E1,-6.571289062E0
1.166033449E1,-1.690529227E0,-1.193928814E1,-7.828119278E0
1.167004741E1,-4.692923546E0,-1.106052399E1,-8.661120415E0
1.167975954E1,-5.013561726E0,-1.081645584E1,-1.078953648E1
1.168947256E1,-2.904288530E0,-1.137906837E1,-1.190279675E1
1.169918631E1,-4.887340367E-1,-1.231735325E1,-1.279113293E1
1.170889923E1,1.256531000E0,-1.226949692E1,-1.337049484E1
1.171861137E1,1.555633783E0,-1.123519993E1,-1.305673599E1
1.172832439E1,2.357827663E0,-9.782157898E0,-1.205833054E1
1.173803814E1,3.631407499E0,-8.537292480E0,-9.702596664E0
1.174775105E1,3.530908823E0,-7.713562965E0,-6.894320011E0
1.175746319E1,2.147259235E0,-7.368697166E0,-4.301397800E0
1.176717621E1,9.786644578E-1,-6.013761520E0,-2.759821892E0
1.177688996E1,-1.393819153E-1,-4.627718925E0,-2.211566210E0
1.178660288E1,-1.518245935E0,-3.725026608E0,-8.898309469E-1
1.179631501E1,-2.736790895E0,-3.607778311E0,4.070490360E0
1.180602803E1,-2.794218540E0,-4.359423637E0,1.005105114E1
1.181574178E1,-2.827718258E0,-4.730610371E0,9.775876999E0
1.182545470E1,-3.993621111E0,-4.594219685E0,1.016949583E-2
1.183516684E1,-6.143572330E0,-7.368697166E0,-8.598907471E0
1.184487986E1,-8.724530220E0,-1.139821053E1,-9.139984131E0
1.185459361E1,-8.078168869E0,-1.570259953E1,-6.896713257E0
1.186430652E1,-4.271487713E0,-2.076611137E1,-6.513562202E0
1.187401866E1,-2.064108610E0,-2.292324066E1,-4.849653244E0
1.188373168E1,-1.645065546E0,-2.278924370E1,-2.654537678E0
1.189344543E1,-2.641077995E0,-2.090280151E1,-3.269792080E0
1.190315835E1,-3.981656790E0,-1.849651909E1,-5.165804863E0
1.191287053E1,-4.611268520E0,-1.648086548E1,-5.424229622E0
1.192258345E1,-5.346463203E0,-1.528146267E1,-3.870689631E0
1.193229725E1,-6.155536175E0,-1.398844147E1,-1.971984982E0
1.194201017E1,-6.009573936E0,-1.246840096E1,-5.667998791E-1
1.195172236E1,-4.388735771E0,-1.099831009E1,-2.027917206E-1
1.196143527E1,-2.966800928E0,-1.020359421E1,-2.338984162E-1
1.197114907E1,-2.126322031E0,-9.142974854E0,2.952145040E-1
1.198086199E1,-2.253141642E0,-7.907381535E0,8.937192559E-1
1.199057418E1,-2.590828657E0,-6.734300137E0,1.166501045E0
1.200028710E1,-3.093620539E0,-5.616253853E0,1.290927768E0
1.201000090E1,-3.265903711E0,-4.575077057E0,6.589235067E-1
1.201971381E1,-3.459722519E0,-3.624528170E0,-8.300103545E-1
1.202942600E1,-3.615555048E0,-2.901596546E0,-1.861915112E0
1.203913892E1,-3.387937784E0,-2.542374134E0,-2.575275421E0
1.204885272E1,-2.758326292E0,-2.171187401E0,-3.489931822E0
1.205856564E1,-1.848754644E0,-1.915155411E0,-4.426123619E0
1.206827777E1,-5.820540786E-1,-1.527219057E0,-4.641477585E0
1.207799079E1,1.005284667E0,-1.060319543E0,-3.786941051E0
1.208770454E1,1.981855392E0,-8.880363107E-1,-2.678465843E0
1.209741746E1,2.161616087E0,-2.609373093E0,-1.569990754E0
1.210712960E1,1.522134304E0,-4.531706810E0,-1.567597985E0
1.211684262E1,1.203888893E0,-4.261318207E0,-2.285743713E0
1.212655637E1,2.005783558E0,-4.776073933E0,-7.708477974E0
1.213626928E1,3.135794163E0,-5.932405472E0,-1.097378349E1
1.214598142E1,4.028914928E0,-5.712265968E0,-8.517551422E0
1.215569444E1,2.046461582E0,-5.788836002E0,-3.267399311E0
1.216540819E1,-1.048953652E0,-5.558825970E0,3.837489188E-1
1.217512110E1,-1.989931107E0,-3.358625650E0,-8.515457511E-1
1.218483324E1,-7.417151928E0,-4.747360229E0,1.329512119E0
1.219454626E1,-1.467368603E1,-1.192253780E1,-3.751048565E0
1.220426001E1,-1.023529911E1,-1.372044468E1,5.973980904E0
1.221397293E1,-2.732005358E0,-1.869302940E1,7.324131012E0
1.222368512E1,3.923630953E0,-2.038086700E1,9.684650421E0
1.223339803E1,4.222733974E0,-1.905434608E1,6.388238430E0
1.224311184E1,9.212366939E-1,-1.675125313E1,2.148156643E0
1.225282475E1,-1.271785259E0,-1.558056545E1,9.655039310E-1
1.226253689E1,-3.670589924E0,-1.503231049E1,2.899801970E0
1.227224991E1,-5.595316887E0,-1.508016682E1,2.988336325E0
1.228196366E1,-6.914659023E0,-1.480738449E1,1.080359459E0
1.229167657E1,-5.753541946E0,-1.454866123E1,-1.213161111E0
1.230138871E1,-2.657827854E0,-1.438834190E1,-2.977568626E0
1.231110173E1,2.198405862E-1,-1.410329628E1,-2.939283609E0
1.232081548E1,1.191924810E0,-1.381137276E1,-1.948056698E0
1.233052840E1,4.857429862E-1,-1.378744411E1,-1.974377751E0
1.234024053E1,-1.025025368E0,-1.317218971E1,-3.231507063E0
1.234995355E1,-1.355534077E0,-1.293978691E1,-6.039783478E0
1.235966730E1,-2.329711914E0,-1.307647705E1,-8.292626381E0
1.236938022E1,-3.364009619E0,-1.195364475E1,-6.760322094E0
1.237909236E1,-4.192524433E0,-1.170927715E1,-6.240780354E0
1.238880538E1,-3.577269793E0,-1.106770229E1,-7.624430180E0
1.239851913E1,-1.781456470E0,-1.069412231E1,-1.134497070E1
1.240823204E1,-1.992024779E-1,-1.022273636E1,-1.415563965E1
1.241794418E1,1.596610904E0,-9.521040916E0,-1.420349598E1
1.242765720E1,3.267698526E0,-8.604290962E0,-1.191954708E1
1.243737095E1,4.881059170E0,-7.701598644E0,-8.900702477E0
1.244708381E1,5.723930836E0,-6.978667259E0,-6.111567974E0
1.245679600E1,5.400600910E0,-5.913262844E0,-3.774976730E0
1.246650902E1,2.625823736E0,-4.321138382E0,-3.367897987E0
1.247622277E1,-9.340981245E-1,-2.595016241E0,-3.470789194E0
1.248593564E1,-2.796611547E0,-2.080260277E0,-1.118644550E-1
1.249564782E1,-3.902693748E0,-2.630908489E0,3.922135353E0
1.250536084E1,-4.168596268E0,-3.085843801E0,5.282155991E0
1.251507460E1,-3.826123476E0,-3.595814228E0,3.261417150E0
1.252478746E1,-4.850849628E0,-5.017749310E0,-1.253839016E0
1.253449965E1,-5.873183250E0,-8.221140862E0,-6.054140568E0
1.254421267E1,-7.706982613E0,-1.315065384E1,-7.792226791E0
1.255392637E1,-8.212167740E0,-1.859941101E1,-5.015057087E0
1.256363928E1,-4.182952881E0,-2.153480530E1,-2.977568626E0
1.257335147E1,-9.269196987E-1,-2.370389938E1,-2.860320330E0
1.258306439E1,3.849453330E-1,-2.258106804E1,-2.666501760E0
1.259277819E1,1.313061416E-1,-2.059861374E1,-3.262613773E0
1.260249110E1,-1.637887120E0,-1.892991829E1,-4.579264164E0
1.261220329E1,-4.953741074E0,-1.762523270E1,-4.684548378E0
1.262191621E1,-8.382058144E0,-1.664357758E1,-3.837190151E0
1.263163001E1,-9.840184212E0,-1.536281872E1,-3.312862873E0
1.264134293E1,-8.214560509E0,-1.409611797E1,-2.886641502E0
1.265105512E1,-5.272285461E0,-1.315065384E1,-2.534597397E0
1.266076803E1,-3.074477911E0,-1.226471138E1,-2.168495417E0
1.267048184E1,-1.939681888E0,-1.074706364E1,-1.091127157E0
1.268019475E1,-1.688136339E0,-8.953642845E0,9.870393574E-2
1.268990689E1,-1.444068432E0,-7.371089935E0,1.233500123E0
1.269961991E1,-1.350748420E0,-5.937191010E0,1.889731646E0
1.270933366E1,-1.255035520E0,-4.666004181E0,2.234298229E0
1.271904657E1,-1.515853167E0,-3.591028690E0,1.870589137E0
1.272875871E1,-1.994716763E0,-2.803191662E0,7.019943595E-1
1.273847173E1,-2.686541557E0,-2.116152525E0,-4.184448719E-1
1.274818548E1,-3.332902908E0,-1.615753531E0,-1.931306958E0
1.275789840E1,-3.488436222E0,-1.340578914E0,-3.341576815E0
1.276761053E1,-3.213261604E0,-1.374078393E0,-4.205684662E0
1.277732355E1,-1.743171334E0,-1.596610904E0,-3.729214191E0
1.278703730E1,1.695913076E-1,-1.453041553E0,-2.977568626E0
1.279675022E1,1.467099428E0,-1.117747307E0,-3.082852840E0
1.280646236E1,1.699502230E0,-2.305185556E0,-3.027817965E0
1.281617538E1,1.213460207E0,-4.816751957E0,-4.109972000E0
1.282588913E1,1.917249203E0,-4.301996231E0,-7.126723289E0
1.283560199E1,2.819941521E0,-4.867001057E0,-1.047607708E1
1.284531418E1,3.545265913E0,-5.963512421E0,-8.507980347E0
1.285502720E1,2.635395050E0,-6.126224041E0,-4.936093807E0
1.286474090E1,1.737787485E0,-5.331508160E0,8.913264424E-2
1.287445381E1,-8.886345029E-1,-3.183949709E0,2.040479422E0
1.288416600E1,-7.034300327E0,-5.250152111E0,7.980063558E-1
1.289387892E1,-1.375214958E1,-1.003818989E1,-1.406979680E0
1.290359272E1,-1.312971687E1,-1.169013500E1,5.837589741E0
1.291330564E1,-7.364510059E0,-1.679911041E1,4.305285931E0
1.292301782E1,1.294816136E0,-1.856112480E1,7.175776005E0
1.293273074E1,5.491827011E0,-1.987089729E1,6.969993114E0
1.294244454E1,3.585943937E0,-1.721815300E1,3.922135353E0
1.295215746E1,8.709874153E-1,-1.500598907E1,8.602197170E-1
1.296186960E1,-2.324926376E0,-1.385204983E1,1.858325839E0
1.297158262E1,-5.063810825E0,-1.295414352E1,2.346760750E0
1.298129637E1,-6.909873486E0,-1.277946758E1,5.847460628E-1
1.299100928E1,-6.045466423E0,-1.313151169E1,-7.630113363E-1
1.300072142E1,-2.842075109E0,-1.442423439E1,-2.137388945E0
1.301043444E1,-1.740778446E0,-1.542024612E1,-3.688536167E0
1.302014819E1,-2.279462576E0,-1.579143333E1,-5.091627598E0
1.302986110E1,-2.033001900E0,-1.595893097E1,-5.096413136E0
1.303957324E1,-5.557330847E-1,-1.593978786E1,-4.837689400E0
1.304928626E1,1.376172066E0,-1.541306782E1,-4.421338081E0
1.305900001E1,2.192722797E0,-1.492224026E1,-4.095614910E0
1.306871288E1,9.068797827E-1,-1.331336594E1,-5.055735111E0
1.307842506E1,-8.479565382E-1,-1.090020466E1,-6.556932449E0
1.308813808E1,-1.987538338E0,-9.324830055E0,-9.202198029E0
1.309785178E1,-2.837289333E0,-8.161319733E0,-1.157707405E1
1.310756470E1,-2.748754978E0,-7.514958382E0,-1.347099304E1
1.311727689E1,-1.668993831E0,-7.383353233E0,-1.377009583E1
1.312698980E1,2.174477577E-1,-7.421638489E0,-1.239841080E1
1.313670361E1,2.319542408E0,-7.443173885E0,-1.015035343E1
1.314641652E1,4.584349155E0,-7.409674644E0,-8.100900650E0
1.315612866E1,5.726323605E0,-7.392924786E0,-5.716453075E0
1.316584168E1,4.390530586E0,-7.550850868E0,-3.320041418E0
1.317555543E1,2.448754787E0,-6.859025955E0,-1.253839016E0
1.318526834E1,3.705884218E-1,-5.549254894E0,2.234298140E-1
1.319498048E1,-9.101698995E-1,-4.529314041E0,2.564806700E0
1.320469350E1,-2.088036776E0,-4.139284134E0,5.435296535E0
1.321440725E1,-3.919443607E0,-4.435994148E0,5.686542988E0
1.322412017E1,-6.208178520E0,-5.649753571E0,3.615854025E0
1.323383230E1,-7.450950623E0,-8.522934914E0,5.656034350E-1
1.324354532E1,-6.646364212E0,-1.256411362E1,-3.198007345E0
1.325325907E1,-4.948955536E0,-1.625564003E1,-5.639883041E0
1.326297194E1,-2.672184706E0,-1.926999855E1,-6.712465763E0
1.327268413E1,-1.910967946E0,-2.120429611E1,-7.169794083E0
1.328239715E1,-2.214856386E0,-2.112294006E1,-6.329315186E0
1.329211090E1,-2.595614433E0,-1.987328911E1,-5.493920803E0
1.330182376E1,-3.694518089E0,-1.868824387E1,-5.232803822E0
1.331153595E1,-5.044668198E0,-1.738565063E1,-4.236791611E0
1.332124887E1,-6.134000778E0,-1.613121414E1,-3.051746130E0
1.333096267E1,-6.232106686E0,-1.475713539E1,-2.577668190E0
1.334067559E1,-5.317749023E0,-1.321047497E1,-2.381456852E0
1.335038777E1,-4.587339878E0,-1.179063320E1,-1.861915112E0
1.336010069E1,-4.192524433E0,-1.059840965E1,-8.539385796E-1
1.336981449E1,-3.984049797E0,-9.583254814E0,-4.486542568E-2
1.337952741E1,-3.426223040E0,-8.654540062E0,4.746761918E-1
1.338923954E1,-2.933301449E0,-7.639385223E0,5.584250093E-1
1.339895256E1,-2.454437733E0,-6.576374054E0,2.617149651E-1
1.340866631E1,-2.296212435E0,-5.518147945E0,-8.973085321E-3
1.341837923E1,-2.581257343E0,-4.587040901E0,-1.310070455E-1
1.342809137E1,-3.086441994E0,-3.870988846E0,-4.471587241E-1
1.343780439E1,-3.273082256E0,-3.301198006E0,-1.107876897E0
1.344751814E1,-3.194119215E0,-2.824727058E0,-2.163709879E0
1.345723100E1,-3.141477108E0,-2.219043970E0,-3.726821184E0
1.346694319E1,-2.767897606E0,-1.668395638E0,-4.328018188E0
1.347665621E1,-1.695314884E0,-1.610967875E0,-1.873879194E0
1.348636991E1,3.320041299E-2,-1.314257860E0,-2.937189937E-1
1.349608282E1,8.422735929E-1,-1.017248750E0,-7.821539044E-1
1.350579501E1,1.225424290E0,-3.018844843E0,-3.777668774E-1
1.351550793E1,1.156032443E0,-5.022534847E0,-2.084746838E0
1.352522173E1,9.188438654E-1,-3.957130432E0,-6.659823418E0
1.353493465E1,2.012962103E0,-4.077070713E0,-1.672224045E1
1.354464678E1,3.691227913E0,-4.546063900E0,-1.624816322E1
1.355435980E1,4.481457710E0,-5.075176716E0,-7.203293324E0
1.356407355E1,2.810370207E0,-6.909275532E0,4.746761918E-1
1.357378647E1,1.606182218E0,-5.839085579E0,5.890232086E0
1.358349860E1,-1.120738268E0,-4.587040901E0,8.573782921E0
1.359321163E1,-1.119033432E1,-9.470791817E0,-1.742274046E0
1.360292538E1,-1.269392395E1,-1.005733299E1,-2.513062000E0
1.361263824E1,-9.449854851E0,-1.449601841E1,2.897409201E0
1.362235043E1,-2.296212435E0,-1.786930084E1,5.842375755E0
1.363206345E1,2.372184515E0,-1.928674889E1,9.392725945E0
1.364177715E1,2.281257391E0,-1.740958023E1,6.649055958E0
1.365149006E1,1.166501082E-2,-1.577677727E1,1.995015860E0
1.366120225E1,-2.734398127E0,-1.493659687E1,1.669292927E0
1.367091517E1,-4.791028976E0,-1.457737446E1,2.847159863E0
1.368062897E1,-5.492425442E0,-1.459412479E1,2.210369855E-1
1.369034189E1,-4.362414837E0,-1.507059479E1,-1.107876897E0
1.370005402E1,-3.201297522E0,-1.558056545E1,-2.702394009E0
1.370976704E1,-2.126322031E0,-1.619342804E1,-4.083651066E0
1.371948079E1,-1.182951689E0,-1.627956963E1,-4.524229527E0
1.372919371E1,2.581257522E-1,-1.570020676E1,-4.991128922E0
1.373890585E1,1.833500385E0,-1.514955807E1,-5.501099110E0
1.374861887E1,2.494218588E0,-1.501795292E1,-5.455635548E0
1.375833262E1,1.280459166E0,-1.383769321E1,-5.105984211E0
1.376804548E1,-1.786242127E0,-1.177149105E1,-5.196911812E0
1.377775767E1,-3.613162279E0,-9.166903496E0,-6.436992168E0
1.378747069E1,-4.462913513E0,-7.615457058E0,-7.880761147E0
1.379718439E1,-4.063312054E0,-6.724729061E0,-9.391530037E0
1.380689730E1,-3.574877024E0,-6.068796635E0,-1.168026447E1
1.381660949E1,-2.133500576E0,-5.774479389E0,-1.253480148E1
1.382632241E1,-7.686942816E-2,-6.044867992E0,-1.131625652E1
1.383603621E1,2.195115566E0,-6.731907368E0,-9.233304024E0
1.384574913E1,4.313661098E0,-7.347161770E0,-7.080960274E0
1.385546126E1,5.393422127E0,-7.325626373E0,-5.297410011E0
1.386517428E1,4.656133652E0,-7.167700291E0,-3.741178274E0
1.387488803E1,3.049652576E0,-6.583552361E0,-2.290529490E0
1.388460095E1,1.340279818E0,-5.453541756E0,-7.845467329E-1
1.389431308E1,-4.863412082E-1,-4.069892406E0,7.645068169E-1
1.390402611E1,-2.360818624E0,-2.942274570E0,2.545664072E0
1.391373980E1,-3.991228104E0,-3.116950512E0,5.583651543E0
1.392345272E1,-5.676672459E0,-4.004986763E0,6.694519520E0
1.393316491E1,-7.366902828E0,-5.494219780E0,2.705983400E0
1.394287782E1,-8.643174171E0,-8.697610855E0,-4.330410957E0
1.395259163E1,-9.148359299E0,-1.405304718E1,-9.120841980E0
1.396230454E1,-7.299903870E0,-1.735693741E1,-8.708976746E0
1.397201668E1,-3.833301783E0,-2.043590164E1,-8.484051704E0
1.398172970E1,-9.508479238E-1,-2.175255203E1,-8.139185905E0
1.399144345E1,6.675975323E-1,-2.131436729E1,-6.269494534E0
1.400115637E1,4.881358147E-1,-1.971506310E1,-5.311767101E0
1.401086850E1,-1.422533035E0,-1.812084579E1,-4.641477585E0
1.402058152E1,-4.369593143E0,-1.669382668E1,-3.607180119E0
1.403029527E1,-6.452545166E0,-1.571217060E1,-2.831606388E0
1.404000814E1,-6.756433964E0,-1.465633774E1,-2.767000198E0
1.404972032E1,-5.571388245E0,-1.351197052E1,-2.592025042E0
1.405943324E1,-3.905086517E0,-1.246122169E1,-2.302493572E0
1.406914704E1,-3.222832918E0,-1.112512970E1,-1.816451430E0
1.407885996E1,-2.933301449E0,-9.765408516E0,-1.165304661E0
1.408857215E1,-2.499901533E0,-8.324031830E0,-6.242275834E-1
1.409828506E1,-1.939681888E0,-7.024130821E0,-1.549352705E-1
1.410799887E1,-1.815255046E0,-5.671288967E0,-3.768695518E-2
1.411771178E1,-2.231606245E0,-4.670789719E0,2.904288471E-1
1.412742392E1,-2.468794823E0,-3.763311863E0,3.837489188E-1
1.413713694E1,-2.950051308E0,-3.119343519E0,-6.161518395E-2
1.414685069E1,-3.263510942E0,-2.745764017E0,-5.117649436E-1
1.415656355E1,-3.189333439E0,-2.453839540E0,-1.404586911E0
1.416627574E1,-2.657827854E0,-2.398804665E0,-1.696810365E0
1.417598876E1,-1.764706731E0,-2.520838737E0,-1.280160069E0
1.418570246E1,-6.035895348E-1,-2.633301258E0,-8.252246976E-1
1.419541538E1,3.418745399E-1,-2.573480844E0,-1.663310885E0
1.420512756E1,1.038784146E0,-3.274876833E0,-2.570489645E0
1.421484048E1,1.587039590E0,-4.534099579E0,-4.042973042E0
1.422455428E1,2.245364904E0,-5.089533806E0,-9.041878700E0
1.423426720E1,3.447160006E0,-5.491827011E0,-1.328913879E1
1.424397934E1,4.632205486E0,-6.133402824E0,-1.043509960E1
1.425369236E1,4.060021877E0,-6.131010056E0,-3.320041418E0
1.426340611E1,1.957927108E0,-6.056832314E0,3.194418192E0
1.427311897E1,4.977070987E-1,-4.910071850E0,6.483951092E0
1.428283116E1,-4.480560422E-1,-2.537588358E0,1.140179992E0
1.429254418E1,-9.145966530E0,-3.957130432E0,-1.222732425E0
1.430225788E1,-1.598585033E1,-8.841180801E0,-4.045365810E0
1.431197079E1,-1.318953705E1,-1.137189007E1,4.570889473E0
1.432168298E1,-6.862017155E0,-1.500359631E1,4.247858524E0
1.433139590E1,7.369893789E-1,-1.752473450E1,6.151049614E0
1.434110970E1,3.059223652E0,-1.818545151E1,6.397809505E0
1.435082262E1,2.649751902E0,-1.636840248E1,4.709972382E0
1.436053475E1,1.512562990E0,-1.564277935E1,1.860718727E0
1.437024777E1,-9.628120065E-1,-1.603789330E1,6.876373887E-1
1.437996152E1,-2.526222467E0,-1.599242973E1,-1.788634956E-1
1.438967439E1,-3.682554007E0,-1.704586983E1,-2.650051117E-1
1.439938657E1,-2.607578516E0,-1.782383728E1,1.947159469E-1
1.440909960E1,-1.135095239E0,-1.789801407E1,-1.405783296E-1
1.441881329E1,-1.063310504E0,-1.669143295E1,-1.344766378E0
1.442852621E1,-1.479960799E0,-1.475234985E1,-4.121936321E0
1.443823840E1,-1.740778446E0,-1.335882950E1,-6.961319447E0
1.444795131E1,-1.980359793E0,-1.306690502E1,-7.744370461E0
1.445766512E1,-2.090429783E0,-1.307408428E1,-6.398706913E0
1.446737803E1,-2.511865616E0,-1.255454254E1,-5.048556805E0
1.447709017E1,-2.583650351E0,-1.140778160E1,-4.938487053E0
1.448680319E1,-2.308176517E0,-9.885049820E0,-6.604788780E0
1.449651694E1,-2.162214279E0,-9.039784431E0,-9.870094299E0
1.450622980E1,-1.927717686E0,-8.044071198E0,-1.228355503E1
1.451594199E1,-1.700100541E0,-7.330412388E0,-1.356909943E1
1.452565501E1,-1.281356573E0,-6.887740135E0,-1.308066368E1
1.453536871E1,4.037888348E-2,-6.774978161E0,-1.164676476E1
1.454508163E1,1.922034740E0,-6.873383045E0,-9.496813774E0
1.455479381E1,3.657728434E0,-6.952346325E0,-7.260721207E0
1.456450673E1,4.119842529E0,-7.107879639E0,-5.094020367E0
1.457422053E1,3.614657640E0,-7.558029652E0,-3.700500250E0
1.458393345E1,2.417648077E0,-6.861418724E0,-2.319243431E0
1.459364558E1,3.586242795E-1,-5.642574787E0,-7.438687682E-1
1.460335860E1,-1.733600020E0,-4.723432064E0,3.031706333E0
1.461307236E1,-3.000300407E0,-5.046463013E0,7.453343391E0
1.462278522E1,-3.964907169E0,-4.471886635E0,7.831708431E0
1.463249741E1,-5.525924683E0,-4.560420990E0,3.120240688E0
1.464221043E1,-7.479664326E0,-6.629015923E0,-3.233899832E0
1.465192413E1,-9.593423843E0,-1.088106155E1,-8.359624863E0
1.466163704E1,-7.771588802E0,-1.544656754E1,-8.833703041E0
1.467134923E1,-3.737588882E0,-2.042393684E1,-7.828119278E0
1.468106215E1,-3.116651475E-1,-2.424019051E1,-6.283851147E0
1.469077595E1,1.479063511E0,-2.414178658E1,-2.182852507E0
1.470048887E1,9.140582681E-1,-2.157069778E1,-1.311266780E0
1.471020100E1,-7.402794957E-1,-1.942313957E1,-4.167399883E0
1.471991402E1,-2.710469961E0,-1.739761543E1,-5.979663849E0
1.472962777E1,-4.517948151E0,-1.605942917E1,-5.065306664E0
1.473934064E1,-5.262714386E0,-1.505384541E1,-2.951247692E0
1.474905282E1,-5.161916733E0,-1.340190029E1,-1.055234790E0
1.475876585E1,-4.757529736E0,-1.203260803E1,-6.026921868E-1
1.476847960E1,-4.108775616E0,-1.067498016E1,-5.715855360E-1
1.477819246E1,-3.522234917E0,-9.430113792E0,-2.315055877E-1
1.478790465E1,-2.870789051E0,-8.235497475E0,3.909274042E-1
1.479761756E1,-2.152642965E0,-7.205985546E0,1.334297776E0
1.480733137E1,-1.894218206E0,-5.987440586E0,2.073979139E0
1.481704428E1,-2.248355865E0,-4.630111694E0,2.124228239E0
1.482675647E1,-2.954836845E0,-3.430410385E0,1.786541224E0
1.483646939E1,-3.775874138E0,-2.382055044E0,6.038886309E-1
1.484618319E1,-4.125525475E0,-1.737787485E0,-1.040877819E0
1.485589611E1,-3.876372576E0,-1.275972724E0,-3.049353361E0
1.486560824E1,-3.442972660E0,-1.048355460E0,-4.524229527E0
1.487532126E1,-2.942872763E0,-1.194317579E0,-4.335196495E0
1.488503501E1,-1.707278967E0,-1.785943031E0,-2.625823736E0
1.489474793E1,3.514458239E-1,-2.425125837E0,-1.485942841E0
1.490446006E1,1.471885085E0,-2.774477959E0,-1.574776411E0
1.491417309E1,1.440778375E0,-3.957130432E0,-2.544168711E0
1.492388684E1,2.844468057E-1,-5.510969639E0,-5.764309883E0
1.493359975E1,4.426721931E-1,-5.575575829E0,-1.034656525E1
1.494331189E1,2.616252422E0,-6.150152206E0,-1.429920864E1
1.495302491E1,5.350351334E0,-7.479066372E0,-1.032742214E1
1.496273866E1,6.073582172E0,-8.664112091E0,-1.359123230E0
1.497245152E1,5.094319344E0,-8.393424034E0,3.917349815E0
1.498216371E1,4.081557274E0,-6.621837616E0,6.696912289E0
1.499187673E1,1.692323804E0,-4.412065983E0,4.200001717E0
1.500159048E1,-8.614460945E0,-7.735098362E0,-9.037093163E0
1.501130335E1,-1.412303734E1,-7.888238907E0,-3.726821184E0
1.502101553E1,-1.394118309E1,-1.116580772E1,4.915754795E0
1.503072855E1,-9.658030510E0,-1.479781342E1,7.678567886E0
1.504044230E1,-3.594019651E0,-1.772094536E1,1.027119160E1
1.505015522E1,1.241276711E-1,-1.822373772E1,5.909374714E0
1.505986736E1,1.538884044E0,-1.595893097E1,2.100300074E0
1.506958038E1,3.969094455E-1,-1.584407520E1,3.550350666E-1
