"Time (s)","Gyroscope x (rad/s)","Gyroscope y (rad/s)","Gyroscope z (rad/s)"
1.748073030E-1,1.549261332E0,-3.588727713E-1,1.609124422E0
1.845203240E-1,1.557813168E0,-1.441294074E0,1.040883780E0
1.942340740E-1,1.119224906E0,-2.578844309E0,4.019374847E-1
2.039469910E-1,8.113578558E-1,-2.704679012E0,6.474980712E-2
2.136591260E-1,1.096012712E0,-2.275711536E0,-1.014006436E-1
2.233721470E-1,1.654327035E0,-1.572015405E0,-2.223484069E-1
2.330858970E-1,2.070924997E0,-9.269607067E-1,-2.712161839E-1
2.427988140E-1,2.354357958E0,-5.140279531E-1,-2.296785712E-1
2.525109490E-1,2.656116486E0,-5.589252338E-2,-1.185043678E-1
2.622239700E-1,2.959096909E0,3.118375242E-1,8.307522535E-2
2.719377200E-1,3.186331987E0,4.682144225E-1,3.017585576E-1
2.816506370E-1,3.293841124E0,3.814741075E-1,4.092676640E-1
2.913628240E-1,3.226647854E0,1.627907902E-1,3.384093940E-1
3.010758450E-1,3.048280478E0,-3.756710514E-2,1.123958975E-1
3.107895430E-1,2.857696295E0,-9.254335612E-2,-1.221694499E-1
3.205024600E-1,2.712314606E0,-3.023693897E-2,-1.820324808E-1
3.302146470E-1,2.596253633E0,8.215895295E-2,8.551862091E-3
3.399276680E-1,2.370239973E0,2.470877171E-1,3.310792148E-1
3.496414180E-1,1.847354770E0,3.387148082E-1,5.754181147E-1
3.593543350E-1,1.093569279E0,3.118375242E-1,6.817055345E-1
3.690664700E-1,2.750339806E-1,2.214321345E-1,8.283088803E-1
3.787794910E-1,-4.836383164E-1,2.983988822E-1,9.382613897E-1
3.884932410E-1,-1.189777732E0,5.977140665E-1,9.223793745E-1
3.982061580E-1,-1.823989868E0,9.923213720E-1,7.391251922E-1
4.079182930E-1,-2.341988325E0,1.336839199E0,4.019374847E-1
4.176313140E-1,-2.762251377E0,1.515206575E0,2.687728032E-2
4.273450640E-1,-3.043241024E0,1.493216157E0,-4.117110670E-1
4.370579800E-1,-3.224051714E0,1.250098944E0,-8.099834919E-1
4.467701680E-1,-3.464725733E0,6.759024858E-1,-1.005454540E0
4.564830850E-1,-3.827569008E0,-1.243074164E-1,-9.370396733E-1
4.661968870E-1,-4.068242550E0,-9.245173335E-1,-6.804838181E-1
4.759098030E-1,-4.081681252E0,-1.300799251E0,-2.895416021E-1
4.856219910E-1,-3.965620518E0,-8.878664970E-1,2.186833173E-1
4.953350120E-1,-3.848337650E0,1.139230132E-1,6.768187881E-1
5.050487620E-1,-3.766484261E0,1.044854283E0,9.614735842E-1
5.147616260E-1,-3.608885527E0,1.226886749E0,1.000567794E0
5.244738140E-1,-3.450065374E0,7.699729800E-1,6.071822047E-1
5.341868350E-1,-3.409749508E0,-5.589252338E-2,7.330167107E-3
5.439005850E-1,-3.330339193E0,-7.742488980E-1,-4.129327536E-1
5.536135010E-1,-3.132424831E0,-8.548807502E-1,-5.497625470E-1
5.633256370E-1,-2.790350199E0,-4.541649222E-1,-4.446968138E-1
5.730386580E-1,-2.306559324E0,3.329117596E-2,-2.626643181E-1
5.827524080E-1,-1.847202063E0,3.081724346E-1,-1.160609797E-1
5.924653240E-1,-1.525896430E0,2.360924631E-1,-5.497625470E-2
6.021775120E-1,-1.277739763E0,1.053711548E-1,-9.895725548E-2
6.118904280E-1,-1.005301833E0,1.481304616E-1,-1.722589284E-1
6.216042300E-1,-6.778877378E-1,3.240544796E-1,-2.015796006E-1
6.313171470E-1,-3.138227761E-1,5.268557668E-1,-2.162399292E-1
6.410293350E-1,5.268557742E-2,6.868977547E-1,-2.565558553E-1
6.507423550E-1,3.874298632E-1,7.211052179E-1,-3.457395434E-1
6.604561050E-1,7.038487792E-1,6.575770974E-1,-4.434750974E-1
6.701689700E-1,1.014159203E0,6.209262609E-1,-4.679090083E-1
6.798811580E-1,1.296370625E0,6.551336646E-1,-3.958290219E-1
6.895941780E-1,1.556591511E0,7.149966955E-1,-2.797680497E-1
6.993079280E-1,1.799708724E0,7.198835015E-1,-1.649287641E-1
7.090208450E-1,2.002510071E0,6.453601122E-1,-9.651386738E-2
7.187329800E-1,2.130787849E0,5.231906772E-1,-5.741964281E-2
7.284460010E-1,2.178434134E0,4.083513916E-1,-1.343864016E-2
7.381597510E-1,2.196759462E0,3.020639718E-1,4.153761268E-2
7.478726680E-1,2.213863134E0,2.006633282E-1,1.429382563E-1
7.575848550E-1,2.162552118E0,2.214321345E-1,2.834331393E-1
7.672977720E-1,2.002510071E0,4.352286756E-1,3.933856487E-1
7.770116260E-1,1.765501261E0,6.380299330E-1,4.019374847E-1
7.867245430E-1,1.423426867E0,7.174401283E-1,2.553341687E-1
7.964366780E-1,1.041036487E0,7.443174124E-1,-6.841489673E-2
8.061496990E-1,7.392778993E-1,4.853181541E-1,-4.642439187E-1
8.158634490E-1,6.684195995E-1,-6.444438547E-2,-7.415685654E-1
8.255763660E-1,8.541171551E-1,-5.100574717E-2,-8.686248064E-1
8.352885530E-1,9.799517393E-1,6.807892919E-1,-9.602518678E-1
8.450015740E-1,8.932114244E-1,5.207473040E-1,-1.060430884E0
8.547153240E-1,3.556658030E-1,-3.674246371E-1,-9.736905098E-1
8.644281890E-1,-1.171299592E-1,-5.433486104E-1,-3.799470067E-1
8.741403760E-1,3.800997138E-1,-1.152974248E0,3.836120665E-1
8.838533970E-1,1.005607247E0,-1.090667725E0,9.981244206E-1
8.935671470E-1,1.486954927E0,-7.583668828E-1,1.180156946E0
9.032800640E-1,1.598129153E0,-1.107771516E0,9.138274789E-1
9.129922510E-1,1.387997627E0,-1.889655948E0,5.241069198E-1
9.227052720E-1,1.164427638E0,-2.229287148E0,1.539335102E-1
9.324190220E-1,1.227955699E0,-2.002051830E0,-1.429382563E-1
9.421319390E-1,1.566365123E0,-1.408308387E0,-3.176405728E-1
9.518440740E-1,2.006175041E0,-8.732061386E-1,-4.007157981E-1
9.615570950E-1,2.416664362E0,-4.248442650E-1,-3.860554695E-1
9.712708450E-1,2.788059711E0,8.704573661E-2,-2.748812735E-1
9.809837620E-1,3.138685942E0,5.916055441E-1,-7.941014320E-2
9.906959490E-1,3.397685051E0,1.021642089E0,1.808107942E-1
1.000408970E0,3.455104828E0,1.295301557E0,4.495835900E-1
1.010122720E0,3.363477707E0,1.303853512E0,6.242858768E-1
1.019835637E0,3.280402422E0,1.101052165E0,6.157340407E-1
1.029547772E0,3.251081705E0,8.506048322E-1,3.811686933E-1
1.039260793E0,3.204657316E0,5.537330508E-1,1.905843467E-1
1.048974595E0,3.039728642E0,3.436015844E-1,1.221694499E-1
1.058687512E0,2.668333530E0,3.240544796E-1,7.818844914E-2
1.068399647E0,2.022057056E0,2.922904193E-1,1.209477559E-1
1.078112668E0,1.108229637E0,9.804098308E-2,2.687727809E-1
1.087826418E0,2.947338112E-2,-3.075616062E-1,4.459185004E-1
1.097539335E0,-1.065164924E0,-6.997255087E-1,5.827482939E-1
1.107251522E0,-1.995027184E0,-8.206732869E-1,5.913001299E-1
1.116964543E0,-2.675510883E0,-6.887302995E-1,4.727957845E-1
1.126678293E0,-3.186179399E0,-3.552076817E-1,2.895416021E-1
1.136391210E0,-3.564904690E0,3.329117596E-2,5.741964281E-2
1.146103397E0,-3.820238829E0,2.153236568E-1,-2.064663768E-1
1.155816418E0,-4.037700176E0,1.249182671E-1,-4.385883212E-1
1.165530168E0,-4.362670898E0,-3.197785318E-1,-5.436540842E-1
1.175243085E0,-4.767052174E0,-1.139535546E0,-4.923428893E-1
1.184955272E0,-5.068810463E0,-2.039924383E0,-2.809897363E-1
1.194668293E0,-5.043155193E0,-2.498212576E0,-3.298575059E-2
1.204382043E0,-4.627779007E0,-2.025264025E0,1.832541823E-1
1.214094960E0,-4.129327297E0,-4.663818777E-1,5.363239050E-1
1.223807147E0,-3.764040709E0,1.279419541E0,9.944593310E-1
1.233520168E0,-3.557574511E0,2.020988226E0,1.371962905E0
1.243233918E0,-3.425631523E0,1.813300133E0,1.345085621E0
1.252946835E0,-3.461060524E0,1.252542257E0,7.733326554E-1
1.262659022E0,-3.511150122E0,5.537330508E-1,7.330167294E-2
1.272372043E0,-3.364546776E0,-4.489727318E-2,-4.740174711E-1
1.282085793E0,-3.017585516E0,-1.988307834E-1,-8.246437907E-1
1.291798710E0,-2.582662106E0,5.405998230E-2,-9.309312105E-1
1.301510897E0,-2.161177635E0,4.144598544E-1,-8.087617755E-1
1.311223814E0,-1.776343822E0,7.088882327E-1,-5.008947253E-1
1.320937668E0,-1.412278891E0,8.603783846E-1,-1.050657257E-1
1.330650585E0,-1.133579850E0,8.090671897E-1,1.600419879E-1
1.340362772E0,-9.320002198E-1,6.209262609E-1,2.113531530E-1
1.350075793E0,-7.096518278E-1,4.376720488E-1,1.685938388E-1
1.359789543E0,-4.213318825E-1,3.411581814E-1,1.087308154E-1
1.369502460E0,-6.826218218E-2,3.118375242E-1,3.176405653E-2
1.379214647E0,3.214583695E-1,2.922904193E-1,-8.674030751E-2
1.388927668E0,7.172874212E-1,2.922904193E-1,-2.211267054E-1
1.398641418E0,1.122889996E0,3.326063454E-1,-3.408527672E-1
1.408354335E0,1.566365123E0,4.278984964E-1,-4.056025743E-1
1.418066522E0,2.009840250E0,5.720584393E-1,-3.848337829E-1
1.427779543E0,2.394674063E0,7.345438004E-1,-2.797680497E-1
1.437493293E0,2.651229858E0,8.640434742E-1,-1.148392856E-1
1.447206210E0,2.720866442E0,9.251281619E-1,7.574506104E-2
1.456918397E0,2.631682634E0,8.640434742E-1,2.455606014E-1
1.466631418E0,2.454536915E0,6.099309921E-1,3.457395434E-1
1.476345168E0,2.320150614E0,3.057290614E-1,3.848337829E-1
1.486058085E0,2.285943270E0,2.092151791E-1,4.153761268E-1
1.495770272E0,2.338475943E0,3.289412558E-1,4.043808877E-1
1.505483293E0,2.338475943E0,5.891621709E-1,3.298575282E-1
1.515197043E0,2.227301836E0,7.211052179E-1,2.162399292E-1
1.524909960E0,1.791156888E0,5.757235289E-1,7.085828483E-2
1.534622147E0,9.200887084E-1,2.483094037E-1,-1.502684206E-1
1.544335168E0,1.284306347E-1,-4.187358022E-1,-3.555130959E-1
1.554048918E0,-2.857238054E-1,-5.225798488E-1,-4.752391577E-1
1.563761835E0,-3.602471650E-1,-5.589252338E-2,-4.947862923E-1
1.573474022E0,-3.649812192E-2,1.579040140E-1,-4.837910235E-1
1.583187043E0,5.303681493E-1,-1.536280811E-1,-3.445178568E-1
1.592900793E0,8.956547976E-1,-7.339329720E-1,-6.108472496E-2
1.602613710E0,7.832589149E-1,-1.267813444E0,2.028012872E-1
1.612325897E0,5.376983285E-1,-9.978190064E-1,3.579564989E-1
1.622038918E0,5.902311802E-1,-6.264238358E-1,4.569137394E-1
1.631752668E0,7.649334669E-1,-7.681404352E-1,4.947862923E-1
1.641465585E0,9.152019024E-1,-1.355775476E0,3.872771561E-1
1.651177772E0,1.016602516E0,-1.911646485E0,1.075091213E-1
1.660890793E0,1.097234368E0,-1.912868142E0,-1.136175916E-1
1.670604595E0,1.347681761E0,-1.238492846E0,-6.719319522E-2
1.680317512E0,1.875453830E0,-2.428117841E-1,2.101314515E-1
1.690029699E0,2.554715872E0,7.638645172E-1,4.776825607E-1
1.699742720E0,3.121582270E0,1.566517830E0,5.473191738E-1
1.709456470E0,3.524741411E0,2.013658047E0,4.483618736E-1
1.719169387E0,3.848490477E0,2.174921751E0,3.445178568E-1
1.728881574E0,4.081986904E0,2.049087048E0,3.188622594E-1
1.738594595E0,4.086873531E0,1.709456086E0,4.043808877E-1
1.748308345E0,3.789849043E0,1.208561301E0,5.302154422E-1
1.758021262E0,3.268185616E0,6.062659025E-1,5.815265775E-1
1.767733449E0,2.715979576E0,-9.132166207E-2,5.326588154E-1
1.777446470E0,2.221193314E0,-7.608102560E-1,5.473191738E-1
1.787160220E0,1.704416513E0,-1.210393786E0,6.047387719E-1
1.796873137E0,1.137550354E0,-1.413195133E0,6.145123243E-1
1.806585324E0,5.083776116E-1,-1.283695459E0,6.108472347E-1
1.816298345E0,-1.672194302E-1,-9.648332596E-1,6.462764144E-1
1.826012147E0,-8.403730989E-1,-6.007682681E-1,6.902574301E-1
1.835725064E0,-1.477028728E0,-2.122694254E-1,7.061394453E-1
1.845437199E0,-2.042673349E0,1.640124917E-1,6.462764144E-1
1.855150220E0,-2.565558434E0,4.938700199E-1,4.495835900E-1
1.864864022E0,-3.031024218E0,7.027797699E-1,1.429382563E-1
1.874576939E0,-3.370655060E0,7.247702479E-1,-2.186833173E-1
1.884289126E0,-3.614994049E0,6.380299330E-1,-5.070032477E-1
1.894002147E0,-3.881323576E0,5.158604980E-1,-6.902574301E-1
1.903715897E0,-4.163535118E0,2.507528067E-1,-8.173136115E-1
1.913428814E0,-4.285704136E0,-2.257080674E-1,-9.407047629E-1
1.923141001E0,-4.304029942E0,-5.250232220E-1,-9.712471366E-1
1.932854022E0,-4.279595852E0,-5.054761171E-1,-8.234221339E-1
1.942567772E0,-4.214846134E0,-4.175141156E-1,-5.253286362E-1
1.952280689E0,-4.109780312E0,-4.211791754E-1,-1.294996142E-1
1.961992876E0,-3.941186428E0,-3.271087110E-1,2.577775419E-1
1.971705897E0,-3.695626020E0,4.550812021E-2,3.469612300E-1
1.981419647E0,-3.452508688E0,2.971771955E-1,1.319430023E-1
1.991132564E0,-3.186179399E0,1.078145429E-1,-1.539335102E-1
2.000844751E0,-2.958944082E0,-2.733541429E-1,-3.628432751E-1
2.010557772E0,-2.776911736E0,-4.553866386E-1,-4.239279926E-1
2.020271574E0,-2.520355701E0,-2.696890533E-1,-3.396310806E-1
2.029984491E0,-2.164842606E0,1.579040140E-1,-1.979145110E-1
2.039696678E0,-1.812994719E0,4.755446017E-1,-5.986303091E-2
2.049409699E0,-1.543000221E0,5.231906772E-1,2.076880634E-2
2.059123449E0,-1.309503794E0,4.071297050E-1,1.466033421E-2
2.068836366E0,-1.045617819E0,2.983988822E-1,-2.443389036E-2
2.078548553E0,-6.730009913E-1,3.301629424E-1,-3.542914242E-2
2.088261574E0,-2.063136548E-1,4.486673176E-1,-6.474980712E-2
2.097975324E0,2.811424434E-1,5.842754245E-1,-1.136175916E-1
2.107688241E0,7.417212725E-1,7.174401283E-1,-1.856975704E-1
2.117400428E0,1.179087877E0,8.200624585E-1,-2.480039895E-1
2.127113449E0,1.610346079E0,8.933641315E-1,-2.761029601E-1
2.136827199E0,2.030608892E0,9.483403563E-1,-2.247917950E-1
2.146540116E0,2.381235361E0,9.813261032E-1,-1.038440317E-1
2.156252303E0,2.584036589E0,9.483403563E-1,2.443389036E-2
2.165965324E0,2.619465828E0,8.090671897E-1,1.123958975E-1
2.175679074E0,2.527838707E0,5.390726924E-1,1.771457046E-1
2.185391991E0,2.387343884E0,1.554606259E-1,2.589992285E-1
2.195104178E0,2.273726225E0,-2.696890533E-1,3.518480062E-1
2.204817199E0,2.230966806E0,-3.967452943E-1,4.569137394E-1
2.214531001E0,2.222414970E0,-6.444438547E-2,5.607577562E-1
2.224243918E0,2.244405508E0,4.071297050E-1,5.241069198E-1
2.233956053E0,2.208976507E0,7.956285477E-1,3.249707520E-1
2.243669126E0,1.874232054E0,7.846332788E-1,8.429691941E-2
2.253382876E0,1.008050680E0,3.179459870E-1,-1.930277348E-1
2.263095793E0,1.137702987E-1,7.635590620E-3,-5.302154422E-1
2.272807980E0,-2.063136548E-1,2.840439789E-2,-7.635591030E-1
2.282521001E0,6.612421572E-2,4.987567961E-1,-7.965448499E-1
2.292234751E0,3.959817290E-1,6.343649030E-1,-8.661814332E-1
2.301947668E0,5.596888065E-1,-3.686463237E-1,-1.066539288E0
2.311659855E0,2.334963679E-1,-1.105328083E0,-9.822424054E-1
2.321372876E0,5.268557742E-2,-1.335006714E0,-4.556920528E-1
2.331086626E0,4.338542521E-1,-1.223832488E0,3.139754832E-1
2.340799543E0,9.115368128E-1,-5.738909841E-1,9.309312105E-1
2.350511730E0,1.370893955E0,-2.550287247E-1,1.111742020E0
2.360224751E0,1.497950196E0,-1.018587828E0,8.979454637E-1
2.369938501E0,1.249946237E0,-2.041146040E0,5.131117105E-1
2.379651418E0,1.047144890E0,-2.446748734E0,2.052446753E-1
2.389363605E0,1.240172625E0,-2.096122265E0,6.597150117E-2
2.399076626E0,1.722741961E0,-1.389982939E0,1.050657257E-1
2.408790376E0,2.158886909E0,-8.512156606E-1,2.101314515E-1
2.418503293E0,2.470418930E0,-4.651601911E-1,2.443388999E-1
2.428215480E0,2.704984426E0,-1.634016484E-1,2.015796006E-1
2.437928501E0,2.858917952E0,6.627693027E-2,1.734806150E-1
2.447642251E0,2.917559147E0,2.825168669E-1,2.162399292E-1
2.457355272E0,2.862582922E0,4.437805414E-1,2.773246467E-1
2.467067355E0,2.726974964E0,5.317425132E-1,3.090887070E-1
2.476780376E0,2.555937529E0,5.415160656E-1,2.589992285E-1
2.486494178E0,2.349471331E0,4.914266169E-1,2.357870489E-1
2.496207095E0,2.099023819E0,4.608842432E-1,3.323009014E-1
2.505919230E0,1.743510842E0,4.083513916E-1,4.495835900E-1
2.515632251E0,1.230399132E0,2.666348219E-1,4.825693369E-1
2.525346053E0,5.352548957E-1,1.701209545E-1,5.204418898E-1
2.535058970E0,-2.808370292E-1,1.432436854E-1,5.607577562E-1
2.544771105E0,-1.143353343E0,1.102579311E-1,6.108472347E-1
2.554484178E0,-1.988918662E0,4.795150831E-2,6.413896084E-1
2.564197928E0,-2.721935272E0,2.229592577E-2,6.352811456E-1
2.573910845E0,-3.259480953E0,5.894676223E-2,5.509842038E-1
2.583623033E0,-3.578343153E0,8.948912472E-2,3.677300513E-1
2.593336053E0,-3.761597395E0,7.605048269E-2,1.270562261E-1
2.603049803E0,-3.958290339E0,-1.255291104E-1,-1.160609797E-1
2.612762720E0,-4.227063179E0,-5.885513425E-1,-3.042019308E-1
2.622474908E0,-4.428642750E0,-1.174964666E0,-4.080459774E-1
2.632187928E0,-4.412760735E0,-1.546359777E0,-4.080459774E-1
2.641901678E0,-4.191633701E0,-1.410751700E0,-3.103103936E-1
2.651614595E0,-3.908200741E0,-7.229377031E-1,-1.270562261E-1
2.661326783E0,-3.776257753E0,2.312056869E-1,1.661504507E-1
2.671039803E0,-3.722503185E0,8.591566682E-1,5.448757410E-1
2.680753553E0,-3.542914152E0,9.862129092E-1,8.112051487E-1
2.690466470E0,-3.268032789E0,8.530482054E-1,7.098045349E-1
2.700178658E0,-2.995594978E0,5.781669021E-1,3.176405728E-1
2.709891678E0,-2.751255989E0,2.617480457E-1,-1.185043678E-1
2.719605428E0,-2.498365402E0,2.263189107E-1,-4.410317242E-1
2.729318345E0,-2.161177635E0,5.158604980E-1,-6.206207871E-1
2.739030533E0,-1.727476001E0,8.677085042E-1,-6.365028620E-1
2.748743553E0,-1.338824511E0,1.003316641E0,-4.776825607E-1
2.758457303E0,-9.784246087E-1,1.049741030E0,-2.357870489E-1
2.768170220E0,-6.082511544E-1,1.074174881E0,-5.008947477E-2
2.777882408E0,-2.661767006E-1,1.097387075E0,4.886778072E-2
2.787595428E0,6.612421572E-2,1.127929449E0,7.696675509E-2
2.797309178E0,4.191939235E-1,1.203674555E0,3.298575059E-2
2.807022095E0,7.722636461E-1,1.323400617E0,-4.398100078E-2
2.816734283E0,1.114338160E0,1.416249394E0,-1.185043678E-1
2.826447303E0,1.411209822E0,1.404032469E0,-1.612636745E-1
2.836161053E0,1.662878990E0,1.240325332E0,-1.722589284E-1
2.845873970E0,1.868123651E0,9.495620728E-1,-1.466033459E-1
2.855586158E0,2.033052444E0,6.416950226E-1,-8.551861346E-2
2.865299178E0,2.169882059E0,3.582619131E-1,-2.443389036E-2
2.875012928E0,2.283499718E0,1.408002973E-1,1.710372418E-2
2.884725845E0,2.433768272E0,-7.788302749E-2,6.108472496E-2
2.894437980E0,2.599918604E0,-3.625378609E-1,1.343863904E-1
2.904151001E0,2.675663710E0,-3.564293683E-1,2.443388999E-1
2.913864803E0,2.604805470E0,-1.218640283E-1,3.323009014E-1
2.923577668E0,2.422772884E0,-1.084253863E-1,2.040229887E-1
2.933289855E0,2.068481445E0,-2.305948436E-1,-5.986303091E-2
2.943002876E0,1.363563776E0,-2.538070381E-1,-2.553341687E-1
2.952716626E0,4.240806997E-1,1.627907902E-1,-4.446968138E-1
2.962429543E0,-1.977618039E-1,4.388937652E-1,-5.998520255E-1
2.972141730E0,-2.930539846E-1,2.629697323E-1,-6.010736823E-1
2.981854751E0,-2.270824611E-1,4.242334068E-1,-6.609367132E-1
2.991568501E0,1.359135192E-2,3.411581814E-1,-7.928797603E-1
3.001281418E0,3.996468186E-1,-6.691831946E-1,-8.075400591E-1
3.010993605E0,4.900522232E-1,-1.066233873E0,-4.556920528E-1
3.020706626E0,7.539382577E-1,-1.185959935E0,1.612636745E-1
3.030420376E0,9.811733961E-1,-8.732061386E-1,7.305732965E-1
3.040133293E0,1.276823521E0,-3.429907262E-1,1.001789451E0
3.049845480E0,1.588355541E0,-4.016320705E-1,8.918370008E-1
3.059558501E0,1.739845753E0,-1.195733547E0,5.314370990E-1
3.069272251E0,1.622563004E0,-2.002051830E0,1.649287641E-1
3.078985168E0,1.452747464E0,-2.312362194E0,-1.331647038E-1
3.088697355E0,1.540709496E0,-1.918976665E0,-3.029802442E-1
3.098410376E0,1.888892412E0,-1.207950473E0,-3.408527672E-1
3.108124126E0,2.315263748E0,-5.335750580E-1,-2.883199155E-1
3.117837043E0,2.642678022E0,1.527118147E-3,-1.918060333E-1
3.127549230E0,2.830818892E0,3.301629424E-1,-3.665083647E-2
3.137262147E0,2.910228968E0,4.486673176E-1,2.003578991E-1
3.146976001E0,2.921224356E0,4.242334068E-1,4.556920528E-1
3.156688918E0,2.888238668E0,3.032856584E-1,6.438329816E-1
3.166401053E0,2.797833204E0,1.933331639E-1,6.707102656E-1
3.176114074E0,2.651229858E0,-9.162708884E-4,5.656445622E-1
3.185827824E0,2.394674063E0,-3.490992188E-1,4.898995161E-1
3.195540741E0,1.982962966E0,-6.801784039E-1,4.593571424E-1
3.205252928E0,1.456412554E0,-7.803573608E-1,4.361449480E-1
3.214965949E0,8.333483934E-1,-5.922164321E-1,4.984513521E-1
3.224679699E0,8.567132801E-2,-3.600944579E-1,6.340594292E-1
3.234392616E0,-7.463026643E-1,-2.415900975E-1,8.112051487E-1
3.244104803E0,-1.555217147E0,-9.865183383E-2,9.272661209E-1
3.253817824E0,-2.255248070E0,1.078145429E-1,9.003888369E-1
3.263531574E0,-2.823336124E0,4.120164812E-1,7.464553714E-1
3.273244491E0,-3.238712072E0,7.247702479E-1,4.813476503E-1
3.282956678E0,-3.508706570E0,1.002094984E0,1.637070626E-1
3.292669595E0,-3.695626020E0,1.121821046E0,-1.246128380E-1
3.302383449E0,-3.921639442E0,9.446752667E-1,-3.799470067E-1
3.312096314E0,-4.195299149E0,2.666348219E-1,-5.754181147E-1
3.321808501E0,-4.428642750E0,-7.302678823E-1,-6.780404449E-1
3.331521522E0,-4.410317421E0,-1.530477762E0,-6.914790869E-1
3.341235272E0,-4.136657715E0,-1.656312346E0,-5.876350403E-1
3.350948189E0,-3.820238829E0,-9.550597072E-1,-3.005368412E-1
3.360660376E0,-3.655309916E0,-3.390202299E-2,1.319430023E-1
3.370373397E0,-3.552687645E0,6.392516494E-1,5.815265775E-1
3.380087147E0,-3.264367819E0,9.422318935E-1,7.941014171E-1
3.389800064E0,-2.906411171E0,1.086391807E0,6.291726828E-1
3.399512251E0,-2.745147467E0,8.799254894E-1,2.602209449E-1
3.409225272E0,-2.692614794E0,3.387148082E-1,-8.918370306E-2
3.418939022E0,-2.559449911E0,1.985253580E-2,-3.432961702E-1
3.428651939E0,-2.206380367E0,2.422009408E-1,-4.471401870E-1
3.438364074E0,-1.682273388E0,6.856760383E-1,-3.420744538E-1
3.448077095E0,-1.187334418E0,9.263498783E-1,-1.087308154E-1
3.457790845E0,-8.098307252E-1,9.593356252E-1,7.452336699E-2
3.467503762E0,-5.129590034E-1,8.884773254E-1,1.099525094E-1
3.477215949E0,-3.028275371E-1,7.638645172E-1,6.352811307E-2
3.486928970E0,-9.880454093E-2,6.734591126E-1,-2.443389036E-3
3.496642720E0,1.882936656E-1,6.807892919E-1,-1.038440317E-1
3.506355637E0,5.645755529E-1,7.479824424E-1,-2.321219593E-1
3.516067824E0,9.885035753E-1,8.249492049E-1,-3.726168275E-1
3.525780741E0,1.406323075E0,8.750386834E-1,-4.789042473E-1
3.535494595E0,1.767944694E0,8.725953102E-1,-5.277720094E-1
3.545207460E0,2.042825937E0,8.115105629E-1,-4.996730685E-1
3.554919647E0,2.219971657E0,6.978929639E-1,-3.799470067E-1
3.564632668E0,2.304268599E0,5.451811552E-1,-2.028012872E-1
3.574346418E0,2.317707300E0,3.680354655E-1,-9.773556143E-3
3.584059335E0,2.334810972E0,1.408002973E-1,1.624853760E-1
3.593771522E0,2.370239973E0,-4.245388508E-2,3.005368412E-1
3.603484543E0,2.496074677E0,-4.245388508E-2,4.740174711E-1
3.613198293E0,2.704984426E0,1.566823274E-1,6.157340407E-1
3.622911158E0,2.858917952E0,3.985778391E-1,6.584933400E-1
3.632623345E0,2.856474400E0,4.828747511E-1,5.900784731E-1
3.642336366E0,2.629239321E0,5.415160656E-1,4.141544402E-1
3.652050116E0,2.100245476E0,5.256340504E-1,1.979145110E-1
3.661763033E0,1.235285878E0,7.137750387E-1,-1.246128380E-1
3.671475220E0,3.043546379E-1,5.244123936E-1,-5.509842038E-1
3.681188241E0,-7.803573459E-2,-3.878879920E-2,-8.478559852E-1
3.690901991E0,-4.749337584E-2,4.755446017E-1,-1.001789451E0
3.700614908E0,2.591519356E-1,8.506048322E-1,-9.797990322E-1
3.710327043E0,8.736643195E-1,-4.001049697E-2,-7.953231335E-1
3.720040064E0,8.895463347E-1,-1.215280652E0,-4.337015450E-1
3.729753814E0,-6.581879407E-2,-1.818797708E0,1.209477559E-1
3.739466730E0,-5.887040496E-1,-1.733279109E0,6.413896084E-1
3.749178918E0,-1.696628332E-1,-1.338671803E0,9.199360013E-1
3.758891939E0,5.059342384E-1,-9.159654379E-1,9.773555994E-1
3.768605689E0,9.213103652E-1,-9.611681700E-1,8.955020905E-1
3.778318605E0,9.689564705E-1,-1.452289343E0,6.450546980E-1
3.788030741E0,9.323056340E-1,-2.027707577E0,2.822114229E-1
3.797743762E0,1.059361815E0,-2.009382010E0,-4.886778072E-2
3.807457512E0,1.473516345E0,-1.370435834E0,-1.539335102E-1
3.817170428E0,2.186985970E0,-4.028537571E-1,-6.230641901E-2
3.826882616E0,2.858917952E0,3.057290614E-1,4.275930673E-2
3.836595637E0,3.237643242E0,6.001574397E-1,1.221694499E-1
3.846309335E0,3.356147528E0,6.685723066E-1,2.431172132E-1
3.856022251E0,3.304836273E0,7.088882327E-1,4.202629030E-1
3.865734439E0,3.126468897E0,6.832326651E-1,5.534276366E-1
3.875447460E0,2.895568609E0,5.854970813E-1,5.534276366E-1
3.885161210E0,2.745300293E0,4.596625566E-1,4.520269632E-1
3.894874126E0,2.686658859E0,2.861819267E-1,3.103103936E-1
3.904586314E0,2.526617050E0,1.456870735E-1,2.761029601E-1
3.914299230E0,2.094137192E0,7.727217674E-2,3.249707520E-1
3.924013033E0,1.396549582E0,6.139015034E-2,3.933856487E-1
3.933725949E0,5.694623590E-1,-3.512371704E-2,4.031592011E-1
3.943438137E0,-2.637332976E-1,-2.134911120E-1,3.481829464E-1
3.953151158E0,-1.057834744E0,-3.515425920E-1,2.699944973E-1
3.962864908E0,-1.803221107E0,-2.965663373E-1,1.478250325E-1
3.972577824E0,-2.470266342E0,-8.399149776E-2,-2.443389036E-2
3.982289960E0,-3.032245874E0,1.640124917E-1,-2.699944973E-1
3.992002980E0,-3.445178509E0,3.057290614E-1,-5.986303091E-1
4.001716730E0,-3.722503185E0,1.676775664E-1,-9.431481957E-1
4.011429647E0,-3.942408323E0,-3.283303976E-1,-1.142284393E0
4.021141835E0,-4.189190388E0,-9.892671108E-1,-1.148392797E0
4.030854855E0,-4.354119301E0,-1.686854720E0,-9.724688530E-1
4.040568605E0,-4.291812897E0,-2.245169163E0,-6.927008033E-1
4.050281470E0,-4.059690952E0,-2.262272835E0,-3.371876776E-1
4.059993658E0,-3.887431860E0,-1.611109614E0,1.588202864E-1
4.069706678E0,-3.841007471E0,-7.864658237E-1,6.682668924E-1
4.079420428E0,-3.884988546E0,-1.670667231E-1,1.070204377E0
4.089133345E0,-3.827569008E0,6.872031838E-2,1.290109396E0
4.098845480E0,-3.536805630E0,1.114796251E-1,1.165496588E0
4.108558501E0,-3.183735847E0,3.817795217E-2,6.951441765E-1
4.118272251E0,-2.894194365E0,-2.232646793E-1,2.028012872E-1
4.127985168E0,-2.704831600E0,-2.330382317E-1,-1.123958975E-1
4.137697355E0,-2.589992285E0,9.437590092E-2,-2.052446753E-1
4.147410376E0,-2.393299580E0,4.596625566E-1,-1.575985998E-1
4.157124126E0,-2.054890156E0,6.746807694E-1,-3.909422457E-2
4.166836991E0,-1.749466538E0,5.659499764E-1,8.796200156E-2
4.176549178E0,-1.503905892E0,3.668137789E-1,1.050657257E-1
4.186262199E0,-1.248419046E0,2.605263591E-1,3.909422457E-2
4.195975949E0,-9.442171454E-1,2.385358512E-1,-5.253286287E-2
4.205688866E0,-5.557183027E-1,3.313846290E-1,-1.478250325E-1
4.215401001E0,-1.073564067E-1,5.390726924E-1,-2.333436459E-1
4.225114022E0,3.336753249E-1,7.968502641E-1,-2.956500649E-1
4.234827772E0,7.368345261E-1,1.036302328E0,-3.518480062E-1
4.244540689E0,1.096012712E0,1.207339644E0,-3.921639323E-1
4.254252876E0,1.438087106E0,1.251320601E0,-3.799470067E-1
4.263965897E0,1.776496530E0,1.121821046E0,-3.054236174E-1
4.273679647E0,2.058707952E0,8.554915786E-1,-1.954711229E-1
4.283392512E0,2.227301836E0,5.476245880E-1,-7.941014320E-2
4.293104699E0,2.251735687E0,2.751866877E-1,2.321219631E-2
4.302817720E0,2.204089642E0,4.306473210E-2,1.136175916E-1
4.312531470E0,2.202867985E0,-1.462979168E-1,1.856975704E-1
4.322244387E0,2.315263748E0,-2.354816198E-1,2.076880634E-1
4.331956522E0,2.541277409E0,-1.679829881E-2,1.661504507E-1
4.341669543E0,2.819823742E0,3.240544796E-1,6.963659078E-2
4.351383293E0,2.921224356E0,6.404733658E-1,-1.527118087E-1
4.361096210E0,2.555937529E0,8.603783846E-1,-3.884988427E-1
4.370808397E0,1.752062678E0,9.287932515E-1,-5.632011890E-1
4.380521314E0,7.172874212E-1,7.345438004E-1,-6.340594292E-1
4.390235116E0,1.236965694E-2,-2.168507688E-2,-6.108472347E-1
4.399948033E0,-2.686200738E-1,-3.527642787E-1,-5.241069198E-1
4.409660220E0,-2.527380586E-1,-2.257080674E-1,-3.457395434E-1
4.419373241E0,9.926267900E-3,-4.517215490E-1,-2.492256761E-1
4.429086991E0,4.949389994E-1,-1.150530815E0,-1.563768983E-1
4.438799908E0,5.450284481E-1,-1.605001211E0,-8.551862091E-3
4.448512043E0,2.127275616E-1,-1.710066915E0,2.211267054E-1
4.458225064E0,3.886515796E-1,-1.063790560E0,3.555130959E-1
4.467938814E0,1.045923233E0,-5.225798488E-1,4.715740979E-1
4.477651730E0,1.475959659E0,-6.019899845E-1,4.483618736E-1
4.487363918E0,1.417318344E0,-1.143200636E0,2.834331393E-1
4.497076835E0,1.183974743E0,-1.784590244E0,1.099525094E-1
4.506790637E0,1.231620789E0,-1.994721770E0,3.298575059E-2
4.516503553E0,1.629893184E0,-1.575680494E0,1.075091213E-1
4.526215741E0,2.240740538E0,-7.718055248E-1,1.966928244E-1
4.535928762E0,2.814936876E0,6.383354217E-2,1.759240031E-1
4.545642512E0,3.122803926E0,5.268557668E-1,5.864133686E-2
4.555355376E0,3.213209391E0,5.793886185E-1,-8.551861346E-2
4.565067564E0,3.238864899E0,5.464028716E-1,-1.832541823E-1
4.574780585E0,3.268185616E0,5.195255876E-1,-2.235700935E-1
4.584494335E0,3.236421585E0,5.476245880E-1,-2.724378705E-1
4.594207251E0,3.120360613E0,6.209262609E-1,-3.579564989E-1
4.603919387E0,2.952988386E0,5.635066032E-1,-3.384093940E-1
4.613632408E0,2.708649397E0,3.057290614E-1,-7.696675509E-2
4.623346158E0,2.299381733E0,-3.268032894E-2,3.665083647E-1
4.633059074E0,1.760614514E0,-2.904578745E-1,7.794411182E-1
4.642771262E0,1.157097459E0,-3.564293683E-1,1.003011227E0
4.652484178E0,5.047125220E-1,-2.257080674E-1,1.077534556E0
4.662197980E0,-1.757712960E-1,-1.194206402E-1,1.050657272E0
4.671910897E0,-8.953493834E-1,-2.290677279E-2,9.333745837E-1
4.681623085E0,-1.639514089E0,2.092151791E-1,7.012526393E-1
4.691336105E0,-2.298007488E0,4.877615273E-1,3.799470067E-1
4.701049803E0,-2.814784050E0,6.771242023E-1,-1.099525020E-2
4.710762720E0,-3.235047102E0,7.809682488E-1,-3.921639323E-1
4.720474908E0,-3.596668720E0,7.040014863E-1,-6.780404449E-1
4.730187928E0,-4.015709877E0,2.104368806E-1,-8.087617755E-1
4.739901678E0,-4.456741810E0,-6.178719997E-1,-7.867712975E-1
4.749614595E0,-4.743839741E0,-1.498713732E0,-6.132906675E-1
4.759326730E0,-4.804924488E0,-2.109560966E0,-3.726168275E-1
4.769039751E0,-4.625335217E0,-2.190192938E0,-1.404948682E-1
4.778753501E0,-4.418869019E0,-1.611109614E0,2.186833173E-1
4.788466418E0,-4.387104988E0,-4.333961308E-1,6.609367132E-1
4.798178553E0,-4.550812244E0,7.870767117E-1,1.123958945E0
4.807891574E0,-4.504387856E0,1.296523333E0,1.404948711E0
4.817605324E0,-4.070686340E0,1.298966646E0,1.216807723E0
4.827318241E0,-3.585673332E0,1.038745761E0,6.633801460E-1
4.837030428E0,-3.155637026E0,4.865398407E-1,1.600419879E-1
4.846743345E0,-2.831887960E0,2.299840003E-1,-1.160609797E-1
4.856457147E0,-2.641303539E0,4.266768098E-1,-1.368297935E-1
4.866170064E0,-2.429950476E0,8.139539957E-1,-2.076880634E-2
4.875882251E0,-2.131856918E0,1.019198656E0,8.796200156E-2
4.885595272E0,-1.770235300E0,1.083948493E0,1.734806150E-1
4.895309022E0,-1.375627995E0,1.076618314E0,2.040229887E-1
4.905021887E0,-1.026070714E0,9.739959836E-1,1.588202864E-1
4.914734074E0,-6.754443645E-1,9.019159675E-1,6.963659078E-2
4.924447095E0,-2.612899244E-1,8.774821162E-1,-4.764608666E-2
4.934160845E0,1.870719790E-1,8.554915786E-1,-1.795890927E-1
4.943873710E0,6.427640319E-1,8.518264890E-1,-3.005368412E-1
4.953585897E0,1.072800517E0,8.396095634E-1,-3.884988427E-1
4.963298918E0,1.469851255E0,8.408312798E-1,-4.178195298E-1
4.973012668E0,1.827807665E0,8.787037730E-1,-3.982724249E-1
4.982725533E0,2.146669865E0,9.483403563E-1,-3.432961702E-1
4.992437720E0,2.388565540E0,9.862129092E-1,-2.516690791E-1
5.002150741E0,2.530282021E0,1.008203387E0,-1.233911440E-1
5.011864491E0,2.574263096E0,1.016755223E0,3.542914242E-2
5.021577408E0,2.552272558E0,9.336800575E-1,2.064663768E-1
5.031289543E0,2.503404856E0,7.675296068E-1,3.542914093E-1
5.041002564E0,2.469197273E0,5.952706337E-1,4.691306949E-1
5.050716314E0,2.417886257E0,4.352286756E-1,5.558710098E-1
5.060429230E0,2.227301836E0,2.312056869E-1,5.803049207E-1
5.070141366E0,1.657992125E0,-3.087832928E-1,4.813476503E-1
5.079854387E0,9.323056340E-1,-5.848862529E-1,1.429382563E-1
5.089568137E0,8.003626466E-1,-1.646233350E-1,-3.494046330E-1
5.099281053E0,1.369672298E0,2.385358512E-1,-6.707102656E-1
5.108993189E0,2.119792700E0,6.429167390E-1,-9.199360013E-1
5.118706210E0,2.464310646E0,-2.513636351E-1,-1.264453769E0
5.128419960E0,1.398992896E0,-1.469393134E0,-1.579650998E0
5.138132876E0,3.923166394E-1,-6.826218367E-1,-1.210699320E0
5.147845064E0,6.989619732E-1,9.315420687E-2,-1.148392856E-1
5.157557980E0,1.577360392E0,-1.801999472E-2,1.100746751E0
5.167271783E0,2.068481445E0,-2.782409191E-1,1.683647752E0
5.176984699E0,2.101467371E0,-9.782719016E-1,1.357302666E0
5.186696887E0,1.825364351E0,-2.279376507E0,6.829272509E-1
5.196409908E0,1.610346079E0,-2.749881744E0,1.453816444E-1
5.206123605E0,1.697086453E0,-2.121778011E0,-1.710372269E-1
5.215836522E0,2.092915535E0,-1.264148355E0,-3.567348123E-1
5.225548710E0,2.573041439E0,-5.909947157E-1,-4.923428893E-1
5.235261730E0,2.901677132E0,-2.086043358E-1,-5.241069198E-1
5.244975480E0,3.108143568E0,1.359135211E-1,-4.300364852E-1
5.254688345E0,3.280402422E0,5.940489769E-1,-2.626643181E-1
5.264400533E0,3.429449320E0,1.030193925E0,-5.131116882E-2
5.274113553E0,3.514967918E0,1.419914484E0,2.015796006E-1
5.283827303E0,3.540623426E0,1.674026966E0,4.385883212E-1
5.293540168E0,3.428227425E0,1.687465549E0,5.387672782E-1
5.303252355E0,3.133799076E0,1.405254126E0,4.422534108E-1
5.312965376E0,2.755073786E0,8.335011005E-1,2.394521236E-1
5.322679126E0,2.252957344E0,3.057290614E-1,9.773556143E-2
5.332391991E0,1.588355541E0,-4.001049697E-2,1.001789495E-1
5.342104178E0,8.028060198E-1,-2.929012477E-1,2.675510943E-1
5.351817199E0,-1.049130186E-1,-4.920374751E-1,5.033381581E-1
5.361530949E0,-1.094485521E0,-6.264238358E-1,6.780404449E-1
5.371243814E0,-2.085432529E0,-6.948387623E-1,7.305732965E-1
5.380956001E0,-2.988264799E0,-7.156075835E-1,6.377245188E-1
5.390669022E0,-3.677300453E0,-7.033905983E-1,4.178195298E-1
5.400382772E0,-4.115888596E0,-6.533011198E-1,1.014006436E-1
5.410095637E0,-4.277152538E0,-6.630746722E-1,-2.932066917E-1
5.419807824E0,-4.332128525E0,-7.852441669E-1,-6.022953987E-1
5.429520845E0,-4.556920528E0,-1.117545009E0,-6.817055345E-1
5.439234595E0,-4.867230892E0,-1.710066915E0,-5.277720094E-1
5.448947460E0,-4.918541908E0,-2.259829521E0,-2.614426315E-1
5.458659647E0,-4.632665634E0,-2.157207012E0,4.764608666E-2
5.468372668E0,-4.319911957E0,-1.201841950E0,5.338805318E-1
5.478086418E0,-4.194077492E0,7.849387079E-2,1.191152096E0
5.487799335E0,-4.141544342E0,9.532271624E-1,1.859571815E0
5.497511470E0,-3.982724190E0,1.291636586E0,2.110019207E0
5.507224491E0,-3.788474798E0,1.281862974E0,1.737402320E0
5.516938241E0,-3.617437363E0,9.654440880E-1,1.026223421E0
5.526651158E0,-3.408527613E0,6.905628443E-1,3.188622594E-1
5.536363293E0,-3.181292534E0,8.102889061E-1,-2.064663768E-1
5.546076314E0,-2.892972708E0,1.072953224E0,-5.534276366E-1
5.555790064E0,-2.448275805E0,1.351499557E0,-7.379034758E-1
5.565502928E0,-1.882631302E0,1.594616771E0,-6.536065936E-1
5.575215116E0,-1.293621778E0,1.820630312E0,-3.469612300E-1
5.584928137E0,-8.196043372E-1,1.961125135E0,-1.099525020E-2
5.594641887E0,-5.386145711E-1,1.870719671E0,1.881409585E-1
5.604354751E0,-3.883461356E-1,1.590951681E0,2.309002578E-1
5.614066939E0,-2.478512824E-1,1.251320601E0,1.954711229E-1
5.623779960E0,-4.260659590E-2,9.507837296E-1,1.294996142E-1
5.633493710E0,2.457133085E-1,7.430956960E-1,3.665083647E-2
5.643206574E0,5.780141950E-1,6.355865598E-1,-6.841489673E-2
5.652918762E0,9.371923804E-1,6.013791561E-1,-1.734806150E-1
5.662631783E0,1.318361044E0,5.928272605E-1,-2.467822880E-1
5.672345533E0,1.679982662E0,5.903838873E-1,-2.687727809E-1
5.682058397E0,1.971967697E0,6.001574397E-1,-2.333436459E-1
5.691770585E0,2.160108566E0,5.793886185E-1,-1.527118087E-1
5.701483605E0,2.243183851E0,4.779879749E-1,-2.443389036E-2
5.711197355E0,2.267617702E0,2.605263591E-1,1.441599578E-1
5.720910220E0,2.229745150E0,-5.100574717E-2,2.968717813E-1
5.730622408E0,2.196759462E0,-4.016320705E-1,4.056025743E-1
5.740335324E0,2.200424433E0,-6.349757314E-1,5.082249045E-1
5.750049126E0,2.160108566E0,-5.702258945E-1,5.289937258E-1
5.759762043E0,2.106353998E0,-4.016320705E-1,3.958290219E-1
5.769474230E0,2.030608892E0,-1.853921413E-1,1.282779276E-1
5.779187147E0,1.604237556E0,-9.498675168E-2,-1.881409585E-1
5.788900949E0,9.726215601E-1,7.635590620E-3,-6.084038615E-1
5.798613866E0,8.370134830E-1,2.067717910E-1,-1.057987452E0
5.808326053E0,9.261971712E-1,3.179459870E-1,-1.253458619E0
5.818038970E0,6.891884208E-1,-4.611896724E-2,-1.248571754E0
5.827752772E0,1.211004704E-1,-1.074785709E0,-1.046992183E0
5.837465689E0,-8.399149403E-3,-1.141978979E0,-5.253286362E-1
5.847177824E0,6.610894203E-1,-9.123004079E-1,1.307213157E-1
5.856890845E0,1.485733271E0,-1.043021679E0,8.185353279E-1
5.866604595E0,1.686091185E0,-8.365553021E-1,1.044548869E0
5.876317512E0,1.579803705E0,-1.010035992E0,8.075400591E-1
5.886029647E0,1.412431598E0,-1.983726501E0,5.192201734E-1
5.895742668E0,1.314695954E0,-2.501877546E0,3.005368412E-1
5.905456418E0,1.397771239E0,-2.411319494E0,8.918370306E-2
5.915169335E0,1.634779930E0,-2.276933193E0,-1.050657257E-1
5.924881470E0,1.849798203E0,-1.999608517E0,-1.612636745E-1
5.934594491E0,2.191872597E0,-1.562241912E0,-5.497625470E-2
5.944308241E0,2.656116486E0,-8.670976758E-1,1.356080920E-1
5.954021158E0,3.132577419E0,-1.010952219E-1,2.883199155E-1
5.963733293E0,3.516189575E0,3.826957941E-1,3.518480062E-1
5.973446314E0,3.653019428E0,6.135960817E-1,3.713951409E-1
5.983160064E0,3.568722486E0,7.382088900E-1,3.652866483E-1
5.992872980E0,3.369586229E0,7.834116220E-1,3.139754832E-1
6.002585116E0,3.130134106E0,7.773031592E-1,1.966928244E-1
6.012298137E0,2.866248131E0,6.490252018E-1,9.529217333E-2
6.022011887E0,2.563267708E0,4.010212123E-1,1.319430023E-1
6.031724751E0,2.113684177E0,2.312056869E-1,2.883199155E-1
6.041436939E0,1.462521076E0,2.189887464E-1,5.155550838E-1
6.051149855E0,7.087355256E-1,3.130592108E-1,7.452336550E-1
6.060863658E0,-1.269035190E-1,3.533751369E-1,9.541434050E-1
6.070576574E0,-1.006523609E0,3.155026138E-1,1.127624035E0
6.080288762E0,-1.848423839E0,3.362714052E-1,1.123958945E0
6.090001678E0,-2.568001986E0,3.961344361E-1,8.930587173E-1
6.099715480E0,-3.132424831E0,4.914266169E-1,5.326588154E-1
6.109428397E0,-3.595447063E0,6.966713071E-1,1.417165697E-1
6.119140533E0,-3.974172354E0,8.909206986E-1,-1.881409585E-1
6.128853553E0,-4.186747074E0,9.202414155E-1,-4.703523815E-1
6.138567303E0,-4.268600464E0,8.371661901E-1,-7.024743557E-1
6.148280220E0,-4.300364494E0,4.926483035E-1,-8.417475224E-1
6.157992355E0,-4.401765347E0,-1.462979168E-1,-8.893936276E-1
6.167705376E0,-4.471402168E0,-8.768712282E-1,-8.796200752E-1
6.177419126E0,-4.362670898E0,-1.270256877E0,-6.633801460E-1
6.187131991E0,-4.150096416E0,-1.192068458E0,-1.490467340E-1
6.196844178E0,-4.034035206E0,-6.997255087E-1,5.399889946E-1
6.206557199E0,-3.939964771E0,8.857285604E-3,1.122737288E0
6.216270897E0,-3.722503185E0,5.097520351E-1,1.227802992E0
6.225983814E0,-3.487937927E0,5.427377820E-1,8.771766424E-1
6.235696001E0,-3.285136461E0,1.615691036E-1,4.080459774E-1
6.245408918E0,-3.089665413E0,-1.536280811E-1,1.221694518E-3
6.255122720E0,-2.840439796E0,-1.191152167E-2,-2.602209449E-1
6.264835637E0,-2.478818178E0,3.301629424E-1,-3.127537966E-1
6.274547824E0,-2.046338320E0,5.610632300E-1,-1.918060333E-1
6.284260741E0,-1.605306625E0,5.940489769E-1,-2.443389036E-2
6.293974543E0,-1.195886254E0,5.268557668E-1,3.665083554E-3
6.303687460E0,-8.354863524E-1,4.828747511E-1,-6.474980712E-2
6.313399595E0,-4.836383164E-1,4.743228853E-1,-1.136175916E-1
6.323112616E0,-1.097997949E-1,5.586197972E-1,-1.441599578E-1
6.332826366E0,2.799207568E-1,7.492041588E-1,-1.918060333E-1
6.342539230E0,6.671979427E-1,9.739959836E-1,-2.553341687E-1
6.352251418E0,1.044701576E0,1.146254897E0,-3.164188862E-1
6.361964439E0,1.423426867E0,1.181684017E0,-3.726168275E-1
6.371678137E0,1.808260560E0,1.098608851E0,-4.141544402E-1
6.381391053E0,2.144226551E0,1.011868477E0,-3.970507085E-1
6.391103241E0,2.399560690E0,9.324583411E-1,-3.066453338E-1
6.400816158E0,2.530282021E0,8.530482054E-1,-1.832541823E-1
6.410529960E0,2.582814932E0,7.492041588E-1,-2.932066843E-2
6.420242876E0,2.625574112E0,5.573981404E-1,1.356080920E-1
6.429955012E0,2.711092949E0,3.142809272E-1,2.101314515E-1
6.439668033E0,2.834484100E0,1.114796251E-1,2.651077211E-1
6.449381783E0,2.916337490E0,9.926267713E-2,3.591781855E-1
6.459094699E0,2.890681982E0,3.643703759E-1,4.104893506E-1
6.468806835E0,2.703762770E0,7.834116220E-1,3.665083647E-1
6.478519855E0,2.140561581E0,9.984298348E-1,2.418955117E-1
6.488233605E0,1.034927964E0,6.502469182E-1,1.099525020E-2
6.497946470E0,-8.903098851E-2,-5.457920432E-1,-2.687727809E-1
6.507658658E0,-4.909684956E-1,-1.265370131E0,-4.715740979E-1
6.517371574E0,-2.747285664E-1,-7.156075835E-1,-5.021164417E-1
6.527085376E0,2.896943092E-1,-5.030327439E-1,-4.569137394E-1
6.536798293E0,8.834378719E-1,-8.060129285E-1,-3.958290219E-1
6.546510428E0,9.042066336E-1,-1.061347127E0,-3.090887070E-1
6.556223449E0,5.804576278E-1,-1.490161896E0,-1.258345395E-1
6.565937199E0,4.839437306E-1,-9.990406632E-1,5.497625470E-2
6.575650064E0,9.591829181E-1,-4.395045936E-1,2.455606014E-1
6.585362251E0,1.532157660E0,-6.264238358E-1,4.056025743E-1
6.595075272E0,1.622563004E0,-1.380209327E0,4.373666346E-1
6.604789022E0,1.391662717E0,-2.057028055E0,3.726168275E-1
6.614501887E0,1.337908268E0,-2.413763046E0,2.883199155E-1
6.624214074E0,1.577360392E0,-2.149876833E0,2.614426315E-1
6.633926991E0,2.017170429E0,-1.524369359E0,3.176405728E-1
6.643640793E0,2.492409468E0,-8.964183331E-1,3.591781855E-1
6.653353710E0,2.852809429E0,-4.651601911E-1,3.506263196E-1
6.663065845E0,3.026289940E0,-2.916795611E-1,3.005368412E-1
6.672778866E0,3.029955149E0,-2.709107697E-1,2.345653474E-1
6.682492616E0,2.970092058E0,-1.951656938E-1,1.563768983E-1
6.692205480E0,2.934663057E0,-7.421794534E-2,1.466033421E-2
6.701917668E0,2.898012161E0,-1.313321572E-2,-1.722589284E-1
6.711630689E0,2.769734144E0,-1.133121699E-1,-3.249707520E-1
6.721344387E0,2.492409468E0,-4.162923992E-1,-3.469612300E-1
6.731057303E0,2.057486296E0,-7.168292403E-1,-2.186833173E-1
6.740769491E0,1.519940734E0,-8.182299137E-1,6.719319522E-2
6.750482408E0,9.347490072E-1,-6.740699410E-1,3.836120665E-1
6.760196210E0,3.727695346E-1,-4.065188468E-1,6.743753552E-1
6.769909126E0,-1.867665499E-1,-1.902789176E-1,9.101623893E-1
6.779621262E0,-8.037222624E-1,-1.450762302E-1,1.050657272E0
6.789334283E0,-1.440377831E0,-1.801999472E-2,1.011563063E0
6.799048033E0,-2.053668499E0,3.045073450E-1,8.344173431E-1
6.808760897E0,-2.557006598E0,7.345438004E-1,5.815265775E-1
6.818473085E0,-2.910076380E0,1.130372882E0,2.565558553E-1
6.828186105E0,-3.147085190E0,1.390593767E0,-9.529217333E-2
6.837899803E0,-3.282693148E0,1.460230350E0,-4.031592011E-1
6.847612720E0,-3.380428791E0,1.305075169E0,-6.120689511E-1
6.857324855E0,-3.503819942E0,8.163973689E-1,-7.403468490E-1
6.867037876E0,-3.635762930E0,9.926267713E-2,-8.307522535E-1
6.876751626E0,-3.748158693E0,-4.382829070E-1,-7.635591030E-1
6.886464491E0,-3.849559307E0,-4.468347728E-1,-3.567348123E-1
6.896176678E0,-3.993719339E0,-7.299624383E-2,3.054236174E-1
6.905889699E0,-4.117110729E0,2.812951505E-1,1.087308168E0
6.915603397E0,-4.020596504E0,6.343649030E-1,1.481915474E0
6.925316314E0,-3.827569008E0,1.016755223E0,1.269340634E0
6.935028449E0,-3.657753468E0,8.603783846E-1,6.768187881E-1
6.944741470E0,-3.408527613E0,3.680354655E-1,5.253286287E-2
6.954455220E0,-3.167853832E0,1.065928489E-1,-4.508052766E-1
6.964168137E0,-3.006590128E0,3.329117596E-2,-7.818844914E-1
6.973880272E0,-2.781798363E0,1.224748790E-1,-9.003888369E-1
6.983593293E0,-2.443388939E0,2.263189107E-1,-7.256865501E-1
6.993307043E0,-2.051225185E0,1.860029846E-1,-3.884988427E-1
7.003019908E0,-1.688381791E0,1.273616552E-1,-1.331647038E-1
7.012732095E0,-1.368297815E0,7.971556485E-2,-2.932066843E-2
7.022445012E0,-1.017518878E0,1.041494608E-1,-2.809897438E-2
7.032158814E0,-6.009209752E-1,2.739650011E-1,-9.284878522E-2
7.041871730E0,-1.232384369E-1,6.050441861E-1,-1.942494214E-1
7.051583866E0,3.556658030E-1,9.752176404E-1,-2.932066917E-1
7.061296887E0,7.820371985E-1,1.224443316E0,-3.750602305E-1
7.071010637E0,1.148545504E0,1.331952453E0,-4.459185004E-1
7.080723501E0,1.468629479E0,1.330730796E0,-4.691306949E-1
7.090435689E0,1.732515574E0,1.215891480E0,-4.190412164E-1
7.100148605E0,1.934095144E0,9.813261032E-1,-3.115321100E-1
7.109862408E0,2.050156116E0,6.978929639E-1,-1.893626451E-1
7.119575324E0,2.133231401E0,4.767662883E-1,-5.619794875E-2
7.129287460E0,2.240740538E0,2.922904193E-1,8.918370306E-2
7.139000480E0,2.414221048E0,1.860029846E-1,2.211267054E-1
7.148714230E0,2.692767382E0,8.460234851E-2,3.542914093E-1
7.158427095E0,2.933441162E0,1.371352077E-1,4.911212027E-1
7.168139283E0,2.966427088E0,4.181249440E-1,5.717530251E-1
7.177852199E0,2.791724682E0,1.036302328E0,5.179984570E-1
7.187566001E0,2.430103064E0,1.625159144E0,4.165978432E-1
7.197278918E0,1.345238328E0,1.109604001E0,1.795890927E-1
7.206991053E0,3.069507517E-2,-6.545228362E-1,-3.286358118E-1
7.216704074E0,-3.260397315E-1,-1.338671803E0,-8.209787011E-1
7.226417772E0,-1.068982761E-3,-2.550287247E-1,-9.565867782E-1
7.236130689E0,6.855233312E-1,7.736380696E-1,-8.832851648E-1
7.245842876E0,1.409988165E0,2.886253297E-1,-8.881719112E-1
7.255555793E0,1.180309653E0,-8.829796910E-1,-8.222004175E-1
7.265269595E0,3.886515796E-1,-2.017933846E0,-5.827482939E-1
7.274982512E0,3.031329513E-1,-2.048476219E0,-2.589992285E-1
7.284694647E0,8.431219459E-1,-1.173743010E0,1.551551968E-1
7.294407668E0,1.592020631E0,-4.272876680E-1,5.363239050E-1
7.304121366E0,2.113684177E0,-2.916795611E-1,6.377245188E-1
7.313834283E0,2.108797550E0,-5.690042377E-1,4.886777997E-1
7.323546470E0,1.927986622E0,-1.008814216E0,2.761029601E-1
7.333259387E0,1.855906725E0,-1.212837219E0,1.918060333E-1
7.342973189E0,1.940203547E0,-9.709417224E-1,3.249707520E-1
7.352686105E0,2.154000044E0,-4.175141156E-1,5.424323678E-1
7.362398241E0,2.395895720E0,1.444653720E-1,6.499415040E-1
7.372111158E0,2.631682634E0,3.692571819E-1,6.096255779E-1
7.381824960E0,2.819823742E0,3.106158376E-1,4.935645759E-1
7.391537876E0,2.926110983E0,2.092151791E-1,3.982724249E-1
7.401250012E0,2.884573460E0,1.493521482E-1,2.822114229E-1
7.410963033E0,2.767290831E0,1.469087601E-1,8.674030751E-2
7.420676783E0,2.687880754E0,1.285833418E-1,-1.087308154E-1
7.430389647E0,2.595031977E0,-3.634541109E-2,-1.160609797E-1
7.440101835E0,2.377570152E0,-3.307738006E-1,7.452336699E-2
7.449814751E0,1.919434786E0,-4.504998624E-1,3.933856487E-1
7.459528553E0,1.297592282E0,-3.637595475E-1,7.085828185E-1
7.469241470E0,5.853443742E-1,-2.012741715E-1,9.113841057E-1
7.478953605E0,-1.586675793E-1,-8.399149776E-2,1.004232883E0
7.488666626E0,-8.929060102E-1,-4.581354558E-3,9.883508682E-1
7.498380376E0,-1.605306625E0,9.193251282E-2,8.698465228E-1
7.508093241E0,-2.263799906E0,2.116585821E-1,6.389462352E-1
7.517805428E0,-2.836774588E0,3.765873313E-1,3.298575282E-1
7.527518345E0,-3.316900730E0,5.635066032E-1,2.321219631E-2
7.537232147E0,-3.713951349E0,5.842754245E-1,-2.382304370E-1
7.546945012E0,-3.992497683E0,3.729222417E-1,-4.324798584E-1
7.556657199E0,-4.216067791E0,-1.450762302E-1,-4.898995161E-1
7.566370116E0,-4.421312332E0,-8.817580342E-1,-4.373666346E-1
7.576083918E0,-4.457963467E0,-1.523147583E0,-3.811686933E-1
7.585796835E0,-4.269822121E0,-1.673416018E0,-3.579564989E-1
7.595508970E0,-4.048695564E0,-1.137092113E0,-2.125748396E-1
7.605221991E0,-4.020596504E0,-2.379250079E-1,1.343863904E-1
7.614935741E0,-4.159869671E0,4.572191834E-1,6.157340407E-1
7.624648605E0,-4.187968731E0,5.598415136E-1,1.018893242E0
7.634360793E0,-4.008379936E0,4.718795121E-1,1.078756213E0
7.644073710E0,-3.793361425E0,2.886253297E-1,7.879929543E-1
7.653787512E0,-3.519701958E0,-1.475196183E-1,3.762819171E-1
7.663500428E0,-3.148306847E0,-3.894151151E-1,2.076880634E-2
7.673212564E0,-2.709718466E0,-6.933116168E-2,-1.954711229E-1
7.682925585E0,-2.195384979E0,5.121954083E-1,-2.663294077E-1
7.692639283E0,-1.700598717E0,9.300149679E-1,-2.284568697E-1
7.702352199E0,-1.205659747E0,1.136481285E0,-1.062874198E-1
7.712064335E0,-7.304205894E-1,1.193900943E0,5.008947477E-2
7.721777355E0,-3.504736125E-1,1.127929449E0,1.075091213E-1
7.731491105E0,-5.360184610E-2,1.017976999E0,7.574506104E-2
7.741203970E0,2.371614426E-1,9.703308940E-1,1.832541823E-2
7.750916158E0,5.401417017E-1,1.043632507E0,-6.597150117E-2
7.760629074E0,8.394568563E-1,1.182905674E0,-1.747023165E-1
7.770342876E0,1.116781473E0,1.265980959E0,-2.846548259E-1
7.780055793E0,1.353790283E0,1.226886749E0,-3.530697227E-1
7.789767928E0,1.584690452E0,1.060736299E0,-3.542914093E-1
7.799480949E0,1.807038903E0,8.750386834E-1,-2.858765125E-1
7.809194647E0,1.991514802E0,7.699729800E-1,-1.685938388E-1
7.818907564E0,2.135674715E0,7.015580535E-1,-5.131116882E-2
7.828619699E0,2.233410358E0,6.404733658E-1,4.764608666E-2
7.838332720E0,2.318928957E0,5.402944088E-1,1.294996142E-1
7.848046470E0,2.471640825E0,3.228327632E-1,1.954711229E-1
7.857759335E0,2.657338381E0,2.263189107E-1,2.589992285E-1
7.867471522E0,2.750187159E0,4.132381678E-1,2.809897363E-1
7.877184439E0,2.747743607E0,6.429167390E-1,1.649287641E-1
7.886898241E0,2.575484753E0,8.310576677E-1,-8.674030751E-2
7.896611158E0,2.040382624E0,1.032637239E0,-4.031592011E-1
7.906323293E0,1.099677801E0,1.134037971E0,-8.331956863E-1
7.916036314E0,3.642176688E-1,8.005153537E-1,-1.281557560E0
7.925750012E0,3.177932799E-1,3.594835997E-1,-1.396396875E0
7.935462928E0,6.562026739E-1,7.895200849E-1,-1.163053155E0
7.945175064E0,7.307260633E-1,5.916055441E-1,-8.454126120E-1
7.954888085E0,3.862081766E-1,-8.328902125E-1,-7.036960125E-1
7.964601835E0,-2.796153426E-1,-1.853005171E0,-4.373666346E-1
7.974314699E0,-3.773508966E-1,-2.312362194E0,1.991362125E-1
7.984026887E0,1.369825006E-1,-1.993499994E0,8.893936276E-1
7.993739803E0,6.036698222E-1,-1.452289343E0,1.332868695E0
8.003453605E0,1.025154471E0,-1.598892689E0,1.338977218E0
8.013166470E0,1.124111652E0,-2.462630749E0,8.869501948E-1
8.022878658E0,8.663341403E-1,-3.052861929E0,3.946073353E-1
8.032591574E0,8.907679915E-1,-3.032093048E0,2.443389036E-2
8.042305376E0,1.331799746E0,-2.469960928E0,-2.125748396E-1
8.052018293E0,1.866901994E0,-1.699071646E0,-2.956500649E-1
8.061730428E0,2.317707300E0,-1.035691500E0,-2.858765125E-1
8.071443449E0,2.744078636E0,-3.723114133E-1,-1.954711229E-1
8.081157147E0,3.092261553E0,3.093941510E-1,6.108472496E-2
8.090870064E0,3.290176153E0,7.589777112E-1,4.178195298E-1
8.100582199E0,3.318274975E0,8.689302206E-1,6.927008033E-1
8.110295220E0,3.221761227E0,7.650861740E-1,7.550072074E-1
8.120008970E0,3.095926523E0,6.013791561E-1,5.839699507E-1
8.129721835E0,2.976200581E0,5.317425132E-1,2.870981991E-1
8.139434022E0,2.816158533E0,5.305208564E-1,-1.710372418E-2
8.149146939E0,2.587701797E0,4.388937652E-1,-1.478250325E-1
8.158860741E0,2.267617702E0,2.739650011E-1,-4.153761268E-2
8.168573658E0,1.799708724E0,2.202104330E-1,1.710372269E-1
8.178285793E0,1.164427638E0,2.336490750E-1,4.153761268E-1
8.187998814E0,3.715478480E-1,3.350497186E-1,6.853706241E-1
8.197712512E0,-5.887040496E-1,4.731011987E-1,8.955020905E-1
8.207425428E0,-1.558882236E0,7.088882327E-1,9.248227477E-1
8.217137564E0,-2.338323355E0,1.072953224E0,7.684458494E-1
8.226850585E0,-2.902746201E0,1.439461589E0,4.911212027E-1
8.236564335E0,-3.316900730E0,1.633710980E0,1.502684206E-1
8.246277199E0,-3.678522110E0,1.522536755E0,-2.052446753E-1
8.255989387E0,-3.998606205E0,9.043593407E-1,-5.314370990E-1
8.265702303E0,-4.306473255E0,-1.438545287E-1,-7.586722970E-1
8.275416105E0,-4.577689171E0,-1.223832488E0,-9.260444641E-1
8.285129022E0,-4.686419964E0,-2.093678951E0,-1.003011227E0
8.294841158E0,-4.542260170E0,-2.402767658E0,-8.893936276E-1
8.304554178E0,-4.219732761E0,-1.744274378E0,-5.680879354E-1
8.314267876E0,-4.042587280E0,-3.051182032E-1,-9.773556143E-2
8.323980793E0,-3.990054369E0,7.259919643E-1,3.970507085E-1
8.333692928E0,-3.844672680E0,9.349017143E-1,5.351021886E-1
8.343405949E0,-3.748158693E0,6.673506498E-1,2.724378705E-1
8.353119699E0,-3.695626020E0,5.405998230E-2,-8.185353130E-2
8.362832564E0,-3.555130959E0,-5.115845799E-1,-3.188622594E-1
8.372544751E0,-3.343777895E0,-6.374191046E-1,-4.007157981E-1
8.382257668E0,-2.936953545E0,-2.733541429E-1,-3.701734245E-1
8.391971470E0,-2.362757206E0,2.263189107E-1,-2.907632887E-1
8.401684387E0,-1.839872003E0,4.767662883E-1,-1.441599578E-1
8.411396522E0,-1.442821264E0,5.317425132E-1,-1.832541823E-2
8.421109543E0,-1.100594044E0,5.476245880E-1,1.466033421E-2
8.430823241E0,-7.548545003E-1,6.062659025E-1,6.108472589E-3
8.440536158E0,-3.675773442E-1,7.418739796E-1,2.321219631E-2
8.450248345E0,7.345438004E-2,9.410101771E-1,3.298575059E-2
8.459961262E0,5.279247165E-1,1.105938911E0,0.000000000E0
8.469675064E0,9.457442760E-1,1.217113137E0,-6.230641901E-2
8.479387928E0,1.311030984E0,1.300188422E0,-1.136175916E-1
8.489100116E0,1.645775199E0,1.309961915E0,-1.319430023E-1
8.498813033E0,1.951198816E0,1.223221660E0,-1.099525094E-1
8.508526835E0,2.168660402E0,1.083948493E0,-6.230641901E-2
8.518239751E0,2.273726225E0,9.177979827E-1,-1.710372418E-2
8.527951887E0,2.262731075E0,7.430956960E-1,4.153761268E-2
8.537664908E0,2.224858522E0,5.525113344E-1,1.331647038E-1
8.547378658E0,2.232188702E0,3.093941510E-1,2.577775419E-1
8.557091522E0,2.312820435E0,6.139015034E-2,3.359659910E-1
8.566803658E0,2.448428631E0,8.857285604E-3,3.579564989E-1
8.576516678E0,2.569376230E0,1.945548505E-1,3.640649617E-1
8.586230428E0,2.552272558E0,5.488462448E-1,2.418955117E-1
8.595943345E0,2.272504568E0,7.394306064E-1,3.909422457E-2
8.605655480E0,1.649440289E0,5.305208564E-1,-1.808107942E-1
8.615368501E0,8.199097514E-1,-2.779355086E-2,-4.789042473E-1
8.625082199E0,5.757235363E-2,-4.492781460E-1,-7.403468490E-1
8.634795116E0,-6.302416325E-1,-7.595885396E-1,-7.733326554E-1
8.644507251E0,-7.328640223E-1,-9.965972900E-1,-5.766398311E-1
8.654220272E0,-1.024696305E-1,-1.378987670E0,-2.675510943E-1
8.663934022E0,8.638907075E-1,-8.878664970E-1,1.490467340E-1
8.673646887E0,1.357455373E0,-6.178719997E-1,6.536065936E-1
8.683359074E0,1.392884493E0,-5.873296261E-1,9.223793745E-1
8.693071991E0,1.403879762E0,-2.367033064E-1,8.295305967E-1
8.702785793E0,1.625006437E0,-2.098260373E-1,5.717530251E-1
8.712498710E0,1.926764965E0,-7.730271816E-1,3.005368412E-1
8.722210845E0,1.912104607E0,-1.339893460E0,1.380514801E-1
8.731923866E0,1.733737230E0,-1.794363856E0,4.520269856E-2
8.741637616E0,1.664100647E0,-1.903094649E0,4.153761268E-2
8.751350480E0,1.844911456E0,-1.568350315E0,8.551861346E-2
8.761062668E0,2.201646328E0,-1.104106426E0,1.319430023E-1
8.770775585E0,2.568154573E0,-6.704048514E-1,9.651386738E-2
8.780489387E0,2.806385040E0,-2.770192325E-1,-3.176405653E-2
8.790202303E0,2.898012161E0,2.351761982E-2,-1.844758689E-1
8.799914439E0,2.888238668E0,2.641914487E-1,-3.151971996E-1
8.809627460E0,2.858917952E0,5.280774832E-1,-3.738385141E-1
8.819341210E0,2.872356415E0,8.212841153E-1,-3.151971996E-1
8.829054074E0,2.921224356E0,1.032637239E0,-1.233911440E-1
8.838766262E0,2.909007311E0,9.947647452E-1,1.502684206E-1
8.848479178E0,2.685437202E0,7.015580535E-1,3.897205591E-1
8.858192980E0,2.156443596E0,3.973561525E-1,5.546492934E-1
8.867905897E0,1.394106150E0,2.446443290E-1,6.682668924E-1
8.877618033E0,5.621321797E-1,1.750077456E-1,7.696675658E-1
8.887331053E0,-2.392994165E-1,7.482878864E-2,8.002098799E-1
8.897044803E0,-9.943066239E-1,1.130067464E-2,6.975875497E-1
8.906757668E0,-1.705485582E0,-9.162708884E-4,4.471401870E-1
8.916469855E0,-2.350540161E0,5.283828825E-2,1.441599578E-1
8.926182772E0,-2.938175201E0,1.860029846E-1,-1.270562261E-1
8.935896574E0,-3.387758970E0,3.142809272E-1,-3.665083647E-1
8.945609491E0,-3.677300453E0,2.483094037E-1,-5.619794726E-1
8.955321626E0,-3.937521458E0,-9.498675168E-2,-6.878139973E-1
8.965034647E0,-4.239279747E0,-8.035695553E-1,-7.317950130E-1
8.974748397E0,-4.406651974E0,-1.699071646E0,-7.672241330E-1
8.984461262E0,-4.251496792E0,-2.219513416E0,-8.148702383E-1
8.994173449E0,-4.021818161E0,-1.958070874E0,-6.731536984E-1
9.003886366E0,-4.008379936E0,-1.244601250E0,-2.541124523E-1
9.013600168E0,-4.250275135E0,-6.936170459E-1,3.164188862E-1
9.023313085E0,-4.528821468E0,-5.482354164E-1,8.515210748E-1
9.033025220E0,-4.570359230E0,-6.642963886E-1,1.066539288E0
9.042738241E0,-4.401765347E0,-4.407263100E-1,9.077190161E-1
9.052451991E0,-4.021818161E0,-9.009996802E-2,6.071822047E-1
9.062164855E0,-3.452508688E0,1.835595965E-1,3.042019308E-1
9.071877043E0,-2.844104767E0,4.889832437E-1,4.153761268E-2
9.081589960E0,-2.250361204E0,7.968502641E-1,-8.307522535E-2
9.091303762E0,-1.720145941E0,9.129112363E-1,-6.841489673E-2
9.101016678E0,-1.309503794E0,9.141329527E-1,2.809897438E-2
9.110728814E0,-9.454388618E-1,9.715525508E-1,1.294996142E-1
9.120441835E0,-6.070294380E-1,9.727742672E-1,1.698155403E-1
9.130155585E0,-3.248180151E-1,8.884773254E-1,1.331647038E-1
9.139868449E0,-4.260659590E-2,8.249492049E-1,5.253286287E-2
9.149580637E0,2.750339806E-1,8.738170266E-1,-4.642439261E-2
9.159293658E0,6.158867478E-1,9.996515512E-1,-1.722589284E-1
9.169007355E0,9.481876493E-1,1.124264359E0,-2.883199155E-1
9.178720272E0,1.257276416E0,1.195122719E0,-3.591781855E-1
9.188432408E0,1.544374585E0,1.181684017E0,-3.481829464E-1
9.198145428E0,1.783826709E0,1.059514523E0,-2.541124523E-1
9.207859178E0,1.930430055E0,9.092461467E-1,-1.111742035E-1
9.217572095E0,2.009840250E0,7.760814428E-1,3.176405653E-2
9.227284230E0,2.034274101E0,6.282563806E-1,1.734806150E-1
9.236997251E0,2.039160967E0,3.790307343E-1,2.932066917E-1
9.246711001E0,2.077033281E0,-4.611896724E-2,3.775036037E-1
9.256423866E0,2.182099104E0,-4.016320705E-1,4.178195298E-1
9.266136053E0,2.276169538E0,-2.648022771E-1,4.508052766E-1
9.275849074E0,2.343362808E0,1.860029846E-1,4.630222321E-1
9.285562772E0,2.316485405E0,7.406523228E-1,2.761029601E-1
9.295275689E0,1.937760234E0,1.158471823E0,-2.443389036E-3
9.304987876E0,9.787300229E-1,1.031415582E0,-3.249707520E-1
9.314700793E0,2.383831441E-1,7.125533223E-1,-7.598940134E-1
9.324414595E0,1.491994411E-1,7.638645172E-1,-9.932376146E-1
9.334127512E0,4.668400288E-1,1.323400617E0,-9.040539265E-1
9.343839647E0,7.368345261E-1,2.182251930E0,-8.075400591E-1
9.353552668E0,9.604045749E-1,8.444963098E-1,-7.794411182E-1
9.363266418E0,4.350759685E-1,-1.359440565E0,-6.267293096E-1
9.372979335E0,-2.075353563E-1,-2.283041716E0,-1.930277348E-1
9.382691470E0,3.191677108E-2,-2.163315535E0,4.556920528E-1
9.392404491E0,7.038487792E-1,-1.558576822E0,8.808417320E-1
9.402118241E0,1.297592282E0,-1.166412830E0,7.660024762E-1
9.411831158E0,1.534600973E0,-1.399756551E0,3.591781855E-1
9.421543293E0,1.560256600E0,-1.751604557E0,4.886778072E-2
9.431256314E0,1.760614514E0,-1.769929886E0,-5.619794875E-2
9.440970064E0,2.140561581E0,-1.346001983E0,1.832541823E-2
9.450682928E0,2.614578962E0,-7.266027927E-1,1.747023165E-1
9.460395116E0,3.100813389E0,-7.421794534E-2,2.406738251E-1
9.470108137E0,3.345152378E0,3.680354655E-1,2.516690791E-1
9.479821887E0,3.359812737E0,4.657710493E-1,2.589992285E-1
9.489534751E0,3.342708826E0,4.608842432E-1,2.712161839E-1
9.499246939E0,3.429449320E0,5.341859460E-1,3.335226178E-1
9.508959960E0,3.606595039E0,7.406523228E-1,3.836120665E-1
9.518673658E0,3.751976490E0,9.593356252E-1,3.579564989E-1
9.528386574E0,3.718990803E0,1.013090134E0,2.626643181E-1
9.538098762E0,3.414788961E0,7.614210844E-1,2.370087355E-1
9.547811783E0,2.823488712E0,3.106158376E-1,4.104893506E-1
9.557525480E0,2.056264639E0,7.849387079E-2,6.768187881E-1
9.567238397E0,1.306144118E0,1.863084175E-2,8.344173431E-1
9.576950585E0,5.645755529E-1,3.054236295E-4,8.747332692E-1
9.586663605E0,-1.818797737E-1,6.383354217E-2,7.892146707E-1
9.596377303E0,-9.552124143E-1,1.346918195E-1,6.462764144E-1
9.606090220E0,-1.707928896E0,2.605263591E-1,4.251496792E-1
9.615802408E0,-2.354205370E0,3.826957941E-1,1.075091213E-1
9.625515428E0,-2.895416021E0,5.427377820E-1,-2.418955117E-1
9.635229178E0,-3.334004402E0,7.223268747E-1,-5.851916671E-1
9.644942043E0,-3.602777243E0,7.272136807E-1,-8.539644480E-1
9.654654230E0,-3.740828514E0,4.877615273E-1,-9.639169574E-1
9.664367251E0,-4.019374847E0,-1.023169160E-1,-8.979454637E-1
9.674081001E0,-4.341902256E0,-1.303242683E0,-7.586722970E-1
9.683793866E0,-4.417647362E0,-2.687575340E0,-6.206207871E-1
9.693506053E0,-4.326020241E0,-3.150597334E0,-3.701734245E-1
9.703219074E0,-4.251496792E0,-2.283041716E0,1.282779276E-1
9.712932824E0,-4.214846134E0,-7.009472251E-1,8.002098799E-1
9.722645689E0,-4.169643402E0,4.437805414E-1,1.340198874E0
9.732357876E0,-4.080459595E0,6.966713071E-1,1.420830727E0
9.742070897E0,-3.990054369E0,5.060869455E-1,8.258655071E-1
9.751784647E0,-3.837342501E0,-2.779355086E-2,3.542914242E-2
9.761497564E0,-3.478164196E0,-4.333961308E-1,-5.131117105E-1
9.771209699E0,-2.928401709E0,-8.643488586E-2,-7.317950130E-1
9.780922720E0,-2.288233757E0,6.306998134E-1,-6.206207871E-1
9.790636470E0,-1.750688195E0,1.182905674E0,-3.371876776E-1
9.800349387E0,-1.446486354E0,1.371046662E0,-7.696675509E-2
9.810061522E0,-1.319277406E0,1.206117868E0,4.764608666E-2
9.819774543E0,-1.234980464E0,9.141329527E-1,-1.221694518E-3
9.829488293E0,-1.085933685E0,6.868977547E-1,-1.111742035E-1
9.839201210E0,-8.183826208E-1,6.636855602E-1,-1.771457046E-1
9.848913345E0,-4.592044353E-1,7.760814428E-1,-1.698155403E-1
9.858626366E0,-6.093201414E-2,8.994725943E-1,-1.319430023E-1
9.868340116E0,3.348970115E-1,9.910996556E-1,-1.221694499E-1
9.878053033E0,6.769714952E-1,1.003316641E0,-1.307213157E-1
9.887765220E0,9.799517393E-1,9.104678631E-1,-1.331647038E-1
9.897478137E0,1.274380088E0,8.286142945E-1,-1.087308154E-1
9.907191939E0,1.568808436E0,8.237275481E-1,-4.153761268E-2
9.916904855E0,1.802152157E0,8.090671897E-1,3.054236248E-2
9.926617043E0,1.924321532E0,7.223268747E-1,8.185353130E-2
9.936330064E0,1.990293026E0,6.258130074E-1,1.392731816E-1
9.946043814E0,2.075811625E0,5.867187977E-1,1.905843467E-1
9.955756678E0,2.223636627E0,6.245913506E-1,2.455606014E-1
9.965468866E0,2.367796659E0,7.479824424E-1,3.359659910E-1
9.975181887E0,2.376348495E0,9.446752667E-1,4.349232614E-1
9.984895637E0,2.211419821E0,1.126707792E0,4.398100376E-1
9.994608553E0,1.897444248E0,9.678874612E-1,3.029802442E-1
1.000432069E1,1.323247910E0,4.413371384E-1,1.343864016E-2
1.001403371E1,5.242596865E-1,-4.004103839E-1,-4.373666346E-1
1.002374746E1,1.577513069E-1,-9.159654379E-1,-9.003888369E-1
1.003346038E1,3.226800561E-1,-3.454341292E-1,-1.169161677E0
1.004317251E1,8.162446618E-1,-2.220429778E-1,-1.208255887E0
1.005288553E1,1.191304922E0,-1.388761282E0,-1.238798261E0
1.006259928E1,4.472928941E-1,-2.653367758E0,-1.121515512E0
1.007231220E1,-3.675773442E-1,-2.737664700E0,-5.143333673E-1
1.008202439E1,-2.637332976E-1,-1.992278337E0,4.214846194E-1
1.009173741E1,4.485146105E-1,-1.299577594E0,1.321873426E0
1.010145110E1,1.303700805E0,-4.443913698E-1,1.588355541E0
1.011116402E1,1.935316801E0,-1.939440072E-1,1.292552829E0
1.012087621E1,2.075811625E0,-9.965972900E-1,8.759549856E-1
1.013058923E1,1.982962966E0,-1.721062183E0,4.947862923E-1
1.014030298E1,1.986628056E0,-1.918976665E0,2.748812735E-1
1.015001590E1,2.208976507E0,-1.598892689E0,1.844758689E-1
1.015972803E1,2.522951841E0,-1.018587828E0,1.209477559E-1
1.016944105E1,2.794167995E0,-5.042544007E-1,-6.352811307E-2
1.017915480E1,2.944436550E0,-1.695101112E-1,-2.626643181E-1
1.018886772E1,2.995747566E0,2.748812549E-3,-3.481829464E-1
1.019857986E1,3.016516447E0,1.090362370E-1,-3.225273490E-1
1.020829288E1,3.018959761E0,2.666348219E-1,-2.284568697E-1
1.021800663E1,2.979865551E0,3.924693763E-1,-1.343863904E-1
1.022771954E1,2.920002699E0,4.816530645E-1,-1.954711229E-2
1.023743173E1,2.814936876E0,4.046863019E-1,1.404948682E-1
1.024714475E1,2.591366768E0,1.041494608E-1,3.713951409E-1
1.025685850E1,2.200424433E0,-1.291942000E-1,5.815265775E-1
1.026657137E1,1.670209169E0,-1.475196183E-1,7.330167294E-1
1.027628355E1,1.136328578E0,-1.047603041E-1,7.965448499E-1
1.028599657E1,5.633538961E-1,-8.643488586E-2,7.501204610E-1
1.029571032E1,-1.244601309E-1,-1.169772521E-1,6.193991303E-1
1.030542324E1,-9.136747718E-1,-1.389677525E-1,4.727957845E-1
1.031513538E1,-1.764126897E0,-1.059819981E-1,3.286358118E-1
1.032484840E1,-2.596100807E0,-1.169772521E-1,1.844758689E-1
1.033456215E1,-3.285136461E0,-1.621799469E-1,4.520269856E-2
1.034427506E1,-3.816573620E0,-2.476985604E-1,-7.574506104E-2
1.035398720E1,-4.234393120E0,-4.297310412E-1,-1.111742035E-1
1.036370022E1,-4.566694260E0,-8.402203918E-1,-5.008947477E-2
1.037341397E1,-4.934423923E0,-1.376544356E0,9.773556143E-2
1.038312689E1,-5.237404346E0,-1.916533232E0,2.932066917E-1
1.039283907E1,-5.299710751E0,-2.231730461E0,4.385883212E-1
1.040255210E1,-5.171432972E0,-1.967844486E0,5.546492934E-1
1.041226584E1,-5.051706791E0,-8.377770185E-1,7.330167294E-1
1.042197871E1,-4.938089371E0,5.903838873E-1,1.027445078E0
1.043169090E1,-4.602123260E0,1.347834468E0,1.305991411E0
1.044140392E1,-4.078016281E0,1.313627005E0,1.057987452E0
1.045111767E1,-3.590560198E0,7.528692484E-1,3.506263196E-1
1.046083058E1,-3.214278221E0,3.206948191E-2,-2.247917950E-1
1.047054272E1,-2.969939470E0,-1.682884246E-1,-4.434750974E-1
1.048025574E1,-2.768359661E0,2.006633282E-1,-3.628432751E-1
1.048996949E1,-2.515469074E0,7.357655168E-1,-1.466033459E-1
1.049968241E1,-2.178281307E0,1.090056896E0,1.001789495E-1
1.050939460E1,-1.799556017E0,1.186570764E0,3.237490356E-1
1.051910751E1,-1.446486354E0,1.143811464E0,4.239279926E-1
1.052882131E1,-1.160457134E0,9.776610136E-1,3.567348123E-1
1.053853423E1,-9.258917570E-1,8.029587269E-1,2.076880634E-1
1.054824642E1,-6.351284385E-1,6.930062175E-1,5.131116882E-2
1.055795944E1,-2.673983872E-1,6.612421870E-1,-8.307522535E-2
1.056767319E1,1.516428292E-1,6.807892919E-1,-2.174616307E-1
1.057738605E1,5.926745534E-1,7.101099491E-1,-3.542914093E-1
1.058709824E1,1.037371397E0,7.174401283E-1,-4.520269632E-1
1.059681126E1,1.516275644E0,7.223268747E-1,-4.691306949E-1
1.060652501E1,1.995179892E0,7.601994276E-1,-4.056025743E-1
1.061623793E1,2.381235361E0,7.907418013E-1,-2.907632887E-1
1.062595006E1,2.595031977E0,7.357655168E-1,-1.649287641E-1
1.063566309E1,2.612135649E0,6.209262609E-1,-4.275930673E-2
1.064537684E1,2.535168886E0,4.340069890E-1,7.818844914E-2
1.065508975E1,2.459423780E0,1.798945218E-1,1.710372269E-1
1.066480194E1,2.412999392E0,5.192201585E-3,2.028012872E-1
1.067451486E1,2.358023167E0,3.329117596E-2,2.235700935E-1
1.068422866E1,2.298160076E0,2.556395829E-1,2.174616307E-1
1.069394157E1,2.217528343E0,6.001574397E-1,1.441599578E-1
1.070365376E1,2.002510071E0,8.652651310E-1,5.131116882E-2
1.071336678E1,1.419761777E0,6.392516494E-1,-6.474980712E-2
1.072308053E1,7.563816309E-1,4.917320609E-2,-3.213056624E-1
1.073279340E1,6.733064055E-1,-1.731752008E-1,-6.059604883E-1
1.074250558E1,1.033706307E0,2.556395829E-1,-7.195780873E-1
1.075221861E1,1.348903418E0,1.043632507E0,-8.356390595E-1
1.076193236E1,1.456412554E0,1.094943762E0,-9.468132257E-1
1.077164527E1,1.201078415E0,6.123743653E-1,-1.000567794E0
1.078135741E1,5.083776116E-1,2.556395829E-1,-5.754181147E-1
1.079107043E1,5.670189857E-1,-3.466558158E-1,6.230641901E-2
1.080078418E1,9.127585292E-1,-1.682884246E-1,6.511631608E-1
1.081049710E1,1.339129925E0,-7.421794534E-2,9.236010313E-1
1.082020928E1,1.588355541E0,-7.375980616E-1,6.890357137E-1
1.082992220E1,1.485733271E0,-1.694184899E0,2.345653474E-1
1.083963600E1,1.330578089E0,-1.987391591E0,-1.612636745E-1
1.084934892E1,1.594464064E0,-1.734500766E0,-3.530697227E-1
1.085906110E1,2.045269251E0,-1.174964666E0,-3.127537966E-1
1.086877413E1,2.317707300E0,-6.337540150E-1,-1.417165697E-1
1.087848788E1,2.381235361E0,-4.211791754E-1,4.520269856E-2
1.088820074E1,2.251735687E0,-3.258870244E-1,1.881409585E-1
1.089791293E1,2.058707952E0,-2.770192325E-1,2.846548259E-1
1.090762595E1,1.919434786E0,-2.305948436E-1,3.652866483E-1
1.091733970E1,1.902331114E0,-1.365243644E-1,3.762819171E-1
1.092705262E1,2.026943922E0,-8.154810965E-2,2.675510943E-1
1.093676475E1,2.217528343E0,-6.933116168E-2,6.474980712E-2
1.094647777E1,2.310377121E0,-9.865183383E-2,-2.125748396E-1
1.095619152E1,2.270061016E0,-1.670667231E-1,-3.555130959E-1
1.096590444E1,2.164995432E0,-2.867927849E-1,-1.844758689E-1
1.097561657E1,1.857128382E0,-1.609582454E-1,1.417165697E-1
1.098532960E1,1.276823521E0,1.713426560E-1,5.033381581E-1
1.099504335E1,4.057552814E-1,3.167243004E-1,8.710681796E-1
1.100475626E1,-6.204680800E-1,2.043284029E-1,1.115407109E0
1.101446845E1,-1.605306625E0,-1.924168877E-2,1.149614573E0
1.102418137E1,-2.383526087E0,-6.322269142E-2,9.932376146E-1
1.103389517E1,-2.883198977E0,1.933331639E-1,7.317950130E-1
1.104360808E1,-3.216721773E0,4.413371384E-1,3.933856487E-1
1.105332027E1,-3.556352854E0,3.790307343E-1,-4.275930673E-2
1.106303329E1,-3.869106531E0,-6.200099736E-2,-4.789042473E-1
1.107274704E1,-4.026705265E0,-7.278245091E-1,-7.623373866E-1
1.108245991E1,-4.027926922E0,-1.338671803E0,-7.904363275E-1
1.109217210E1,-3.955846786E0,-1.683189631E0,-6.096255779E-1
1.110188512E1,-3.803134918E0,-1.618439794E0,-2.968717813E-1
1.111159887E1,-3.591781855E0,-1.039356589E0,1.233911440E-1
1.112131178E1,-3.512371778E0,5.283828825E-2,6.279509664E-1
1.113102392E1,-3.558796167E0,9.483403563E-1,1.081199646E0
1.114073694E1,-3.494046211E0,1.125486016E0,1.433047652E0
1.115045069E1,-3.177627325E0,9.739959836E-1,1.511236072E0
1.116016361E1,-2.764694691E0,8.310576677E-1,1.302326322E0
1.116987574E1,-2.433615446E0,6.820109487E-1,9.199360013E-1
1.117958876E1,-2.190498352E0,5.598415136E-1,4.886777997E-1
1.118930251E1,-2.026791096E0,5.854970813E-1,1.612636745E-1
1.119901543E1,-1.933942437E0,6.917845011E-1,-2.687728032E-2
1.120872762E1,-1.815438032E0,7.223268747E-1,-1.575985998E-1
1.121844053E1,-1.623632073E0,6.453601122E-1,-2.321219593E-1
1.122815434E1,-1.302173615E0,6.013791561E-1,-2.748812735E-1
1.123786725E1,-8.855758309E-1,6.759024858E-1,-3.371876776E-1
1.124757944E1,-4.750864506E-1,7.870767117E-1,-3.811686933E-1
1.125729246E1,-7.559234649E-2,9.287932515E-1,-3.542914093E-1
1.126700621E1,3.006895781E-1,1.008203387E0,-2.699944973E-1
1.127671907E1,6.219952106E-1,9.910996556E-1,-1.783674061E-1
1.128643126E1,8.907679915E-1,9.434536099E-1,-1.209477559E-1
1.129614428E1,1.126555085E0,9.483403563E-1,-8.307522535E-2
1.130585803E1,1.341573238E0,9.581139088E-1,-1.466033421E-2
1.131557090E1,1.530935884E0,8.787037730E-1,5.008947477E-2
1.132528308E1,1.679982662E0,7.308787704E-1,8.796200156E-2
1.133499610E1,1.807038903E0,5.256340504E-1,1.221694499E-1
1.134470986E1,1.948755503E0,2.641914487E-1,1.698155403E-1
1.135442277E1,2.112462521E0,3.970507067E-3,1.759240031E-1
1.136413491E1,2.348249674E0,-1.328592747E-1,1.172826737E-1
1.137384793E1,2.656116486E0,-2.535016090E-2,-1.099525020E-2
1.138356168E1,2.900455475E0,4.230117202E-1,-1.392731816E-1
1.139327460E1,3.009186268E0,9.984298348E-1,-2.712161839E-1
1.140298673E1,2.960318565E0,1.256207347E0,-4.398100376E-1
1.141269975E1,2.701319218E0,1.135259628E0,-6.145123243E-1
1.142241350E1,2.096580505E0,9.226847887E-1,-8.185353279E-1
1.143212642E1,1.163205862E0,5.219689608E-1,-1.045770526E0
1.144183861E1,4.863871336E-1,-8.643488586E-2,-1.125180602E0
1.145155152E1,1.223221645E-1,-2.293731421E-1,-9.407047629E-1
1.146126532E1,-7.070557028E-2,-5.494571328E-1,-6.071822047E-1
1.147097824E1,-3.223746419E-1,-1.642873645E0,-3.506263196E-1
1.148069043E1,-6.045860648E-1,-2.506764412E0,-1.258345395E-1
1.149040334E1,-5.251759291E-1,-1.589119196E0,3.933856487E-1
1.150011720E1,1.406475753E-1,-5.360184908E-1,9.370396733E-1
1.150983006E1,9.726215601E-1,2.079934925E-1,1.122737288E0
1.151954225E1,1.582247138E0,7.369872332E-1,8.405258060E-1
1.152925527E1,1.782605052E0,-8.154810965E-2,3.836120665E-1
1.153896902E1,1.419761777E0,-1.396091461E0,4.886778072E-2
1.154868189E1,1.071578860E0,-1.768708229E0,-3.909422457E-2
1.155839407E1,1.317139387E0,-1.750382781E0,8.185353130E-2
1.156810710E1,1.796043634E0,-1.396091461E0,1.771457046E-1
1.157782085E1,2.183320761E0,-9.269607067E-1,1.844758689E-1
1.158753371E1,2.444763422E0,-6.178719997E-1,1.673721522E-1
1.159724590E1,2.615800619E0,-4.077405334E-1,1.551551968E-1
1.160695892E1,2.675663710E0,-2.208212912E-1,1.710372269E-1
1.161667267E1,2.739191771E0,-3.268032894E-2,2.150182426E-1
1.162638553E1,2.829597235E0,9.193251282E-2,2.541124523E-1
1.163609772E1,2.841814280E0,1.737860441E-1,2.150182426E-1
1.164581074E1,2.728196621E0,2.690782249E-1,9.162709117E-2
1.165552449E1,2.521730185E0,3.924693763E-1,-2.932066843E-2
1.166523741E1,2.272504568E0,4.364503622E-1,4.275930673E-2
1.167494954E1,1.964637518E0,3.582619131E-1,2.907632887E-1
1.168466256E1,1.515053868E0,2.751866877E-1,5.228852630E-1
1.169437631E1,9.872818589E-1,2.617480457E-1,5.974085927E-1
1.170408923E1,3.788780272E-1,3.387148082E-1,5.546492934E-1
1.171380137E1,-3.199312389E-1,4.217900336E-1,4.642439187E-1
1.172351439E1,-1.055391312E0,5.292991400E-1,4.007157981E-1
1.173322814E1,-1.767791986E0,7.137750387E-1,3.225273490E-1
1.174294105E1,-2.403073072E0,7.931851745E-1,1.856975704E-1
1.175265319E1,-2.939397097E0,6.673506498E-1,4.275930673E-2
1.176236621E1,-3.399975777E0,3.338280320E-1,-7.207997888E-2
1.177207996E1,-3.808021784E0,-1.328592747E-1,-1.734806150E-1
1.178179288E1,-4.198964119E0,-6.459710002E-1,-2.467822880E-1
1.179150501E1,-4.596014977E0,-1.352110386E0,-2.785463631E-1
1.180121803E1,-4.756056786E0,-2.225621939E0,-2.956500649E-1
1.181093178E1,-4.453076363E0,-2.701013803E0,-3.445178568E-1
1.182064470E1,-3.959511995E0,-2.258607626E0,-3.066453338E-1
1.183035684E1,-3.727390051E0,-7.730271816E-1,1.466033421E-2
1.184006986E1,-3.815351963E0,6.930062175E-1,5.155550838E-1
1.184978360E1,-3.983945847E0,9.898779988E-1,1.061652541E0
1.185949652E1,-4.019374847E0,7.479824424E-1,1.337755442E0
1.186920866E1,-3.927747965E0,7.174401283E-1,1.163053155E0
1.187892168E1,-3.622324228E0,6.392516494E-1,8.173136115E-1
1.188863543E1,-2.995594978E0,5.573981404E-1,4.960079789E-1
1.189834834E1,-2.287012100E0,6.123743653E-1,2.626643181E-1
1.190806053E1,-1.773900390E0,7.577560544E-1,1.478250325E-1
1.191777345E1,-1.461146593E0,8.396095634E-1,5.253286287E-2
1.192748725E1,-1.180004239E0,9.116895199E-1,-5.131116882E-2
1.193720017E1,-8.721371889E-1,9.458969831E-1,-8.429691941E-2
1.194691236E1,-5.288410187E-1,9.654440880E-1,-7.452336699E-2
1.195662527E1,-2.258607745E-1,9.190196991E-1,-1.050657257E-1
1.196633907E1,2.947338112E-2,8.469397426E-1,-1.808107942E-1
1.197605199E1,3.019112647E-1,8.029587269E-1,-2.675510943E-1
1.198576418E1,5.987830162E-1,7.357655168E-1,-3.139754832E-1
1.199547710E1,9.090934396E-1,6.539120078E-1,-3.249707520E-1
1.200519090E1,1.223068953E0,5.561764240E-1,-2.968717813E-1
1.201490381E1,1.489398360E0,4.804313779E-1,-2.455606014E-1
1.202461600E1,1.679982662E0,4.547757804E-1,-1.710372269E-1
1.203432892E1,1.816812515E0,4.437805414E-1,-8.185353130E-2
1.204404272E1,1.937760234E0,4.022429287E-1,-6.108472589E-3
1.205375564E1,2.047712803E0,3.264978528E-1,4.275930673E-2
1.206346777E1,2.134453058E0,2.226538211E-1,6.352811307E-2
1.207318079E1,2.240740538E0,1.298050433E-1,6.108472496E-2
1.208289454E1,2.397117376E0,2.348707765E-1,5.497625470E-2
1.209260746E1,2.540055513E0,5.696150661E-1,9.162709117E-2
1.210231960E1,2.544942379E0,9.434536099E-1,9.407047927E-2
1.211203262E1,2.356801510E0,1.065623045E0,3.176405653E-2
1.212174637E1,2.004953384E0,7.125533223E-1,-7.818844914E-2
1.213145928E1,1.368450522E0,3.817795217E-2,-2.589992285E-1
1.214117142E1,7.160657048E-1,-4.150707126E-1,-5.192201734E-1
1.215088444E1,4.216373265E-1,-2.855710983E-1,-7.207997441E-1
1.216059819E1,4.436278343E-1,-1.084253863E-1,-7.501204610E-1
1.217031111E1,4.179722369E-1,-2.684673667E-1,-7.879929543E-1
1.218002324E1,2.457133085E-1,-7.388197780E-1,-8.747332692E-1
1.218973626E1,8.200624585E-2,-8.524373770E-1,-5.326588154E-1
1.219945001E1,-1.206423342E-2,-4.321744442E-1,2.724378705E-1
1.220916293E1,6.439857483E-1,-5.091412067E-1,8.600729704E-1
1.221887512E1,1.385554314E0,-7.910472155E-2,9.907942414E-1
1.222858803E1,1.926764965E0,6.261184067E-2,6.536065936E-1
1.223830184E1,1.975632787E0,-6.642963886E-1,2.003578991E-1
1.224801475E1,1.709303379E0,-1.447402596E0,-8.674030751E-2
1.225772689E1,1.594464064E0,-1.501157165E0,-1.979145110E-1
1.226743991E1,1.826586008E0,-1.240936160E0,-1.258345395E-1
1.227715366E1,2.217528343E0,-8.206732869E-1,5.741964281E-2
1.228686657E1,2.546164036E0,-4.798205197E-1,2.541124523E-1
1.229657871E1,2.746521950E0,-2.269297540E-1,3.347443044E-1
1.230629173E1,2.882130146E0,1.114796251E-1,2.651077211E-1
1.231600548E1,3.044615507E0,4.669927359E-1,1.148392856E-1
1.232571840E1,3.227869511E0,7.601994276E-1,0.000000000E0
1.233543053E1,3.312166452E0,8.530482054E-1,-3.665083647E-2
1.234514355E1,3.202214003E0,6.539120078E-1,1.221694518E-3
1.235485730E1,2.930997849E0,4.926483035E-1,1.832541823E-2
1.236457022E1,2.609692097E0,4.401154518E-1,1.075091213E-1
1.237428236E1,2.337254286E0,1.334701329E-1,2.846548259E-1
1.238399538E1,2.012283564E0,-3.014531136E-1,4.740174711E-1
1.239370913E1,1.529714227E0,-6.716265678E-1,6.413896084E-1
1.240342204E1,8.076927662E-1,-7.375980616E-1,7.513421178E-1
1.241313418E1,-7.925742865E-2,-4.944808483E-1,8.319739699E-1
1.242284720E1,-9.796462655E-1,-1.047603041E-1,8.502993584E-1
1.243256095E1,-1.773900390E0,2.238755226E-1,7.684458494E-1
1.244227381E1,-2.394521236E0,4.474456310E-1,5.693096519E-1
1.245198600E1,-2.828222752E0,5.806103349E-1,2.980934680E-1
1.246169902E1,-3.198396206E0,4.046863019E-1,2.565558441E-2
1.247141277E1,-3.706621170E0,-7.910472155E-2,-1.294996142E-1
1.248112564E1,-4.394435406E0,-9.086353183E-1,-1.417165697E-1
1.249083782E1,-4.960079670E0,-1.887212634E0,-1.160609797E-1
1.250055085E1,-5.177541256E0,-2.528754950E0,-3.787253052E-2
1.251026460E1,-5.055371761E0,-2.472557068E0,1.209477559E-1
1.251997746E1,-4.690085411E0,-1.673416018E0,3.494046330E-1
1.252968965E1,-4.249053478E0,-3.478775024E-1,6.731536984E-1
1.253940267E1,-3.983945847E0,9.434536099E-1,1.006676316E0
1.254911637E1,-3.892318726E0,1.451678514E0,1.304769754E0
1.255882928E1,-3.685852289E0,1.201231122E0,1.433047652E0
1.256854147E1,-3.310792208E0,9.165763259E-1,1.166718245E0
1.257825439E1,-2.971161127E0,7.809682488E-1,6.401679516E-1
1.258796819E1,-2.721935272E0,6.575770974E-1,1.319430023E-1
1.259768111E1,-2.456827641E0,7.149966955E-1,-2.797680497E-1
1.260739329E1,-2.141630411E0,1.055849433E0,-5.558710098E-1
1.261710621E1,-1.775122166E0,1.451678514E0,-6.193991303E-1
1.262682001E1,-1.403727055E0,1.648371339E0,-4.862344265E-1
1.263653293E1,-1.101815701E0,1.587286592E0,-2.761029601E-1
1.264624512E1,-8.342646360E-1,1.433353066E0,-1.502684206E-1
1.265595803E1,-5.838172436E-1,1.236660242E0,-1.441599578E-1
1.266567184E1,-3.309265077E-1,1.036302328E0,-1.808107942E-1
1.267538475E1,-2.428117767E-2,8.713735938E-1,-2.235700935E-1
1.268509689E1,3.190149665E-1,7.345438004E-1,-2.492256761E-1
1.269480991E1,6.769714952E-1,6.050441861E-1,-2.834331393E-1
1.270452366E1,1.031262875E0,4.877615273E-1,-3.298575282E-1
1.271423657E1,1.361120462E0,3.558185399E-1,-3.689517379E-1
1.272394871E1,1.638445020E0,2.287622988E-1,-3.836120665E-1
1.273366173E1,1.822920918E0,1.188097894E-1,-3.616215885E-1
1.274337548E1,1.940203547E0,5.192201585E-3,-2.932066917E-1
1.275308840E1,1.996401548E0,-9.132166207E-2,-1.820324808E-1
1.276280053E1,2.031830788E0,-1.438545287E-1,-3.420744836E-2
1.277251355E1,2.070924997E0,-1.682884246E-1,1.331647038E-1
1.278222730E1,2.143004894E0,-2.012741715E-1,2.626643181E-1
1.279194022E1,2.215084791E0,-1.340809762E-1,3.555130959E-1
1.280165236E1,2.207754612E0,1.261399537E-1,4.178195298E-1
1.281136538E1,2.044047594E0,3.216110766E-1,3.762819171E-1
1.282107913E1,1.606680989E0,1.053711548E-1,1.795890927E-1
1.283079199E1,8.834378719E-1,-5.677825212E-1,-1.294996142E-1
1.284050418E1,2.188360244E-1,-9.623898268E-1,-4.666872919E-1
1.285021720E1,5.024218559E-2,-6.459710002E-1,-6.963658929E-1
1.285993090E1,2.530434728E-1,4.917320609E-2,-7.427902818E-1
1.286964381E1,4.570664763E-1,5.366293192E-1,-8.356390595E-1
1.287935600E1,3.935383558E-1,1.994416267E-1,-9.614735842E-1
1.288906892E1,5.268557742E-2,-6.887302995E-1,-7.928797603E-1
1.289878272E1,-9.269607067E-2,-1.051573515E0,-2.076880634E-1
1.290849564E1,4.717268050E-1,-1.256818295E0,4.703523815E-1
1.291820782E1,1.115559816E0,-8.047912717E-1,8.967237473E-1
1.292792074E1,1.767944694E0,-1.511846930E-1,8.429692388E-1
1.293763454E1,2.139339924E0,-4.123219103E-2,4.068242610E-1
1.294734746E1,2.143004894E0,-5.812211633E-1,1.710372418E-2
1.295705960E1,1.931651711E0,-9.953756332E-1,-2.040229887E-1
1.296677262E1,1.881562233E0,-1.112658262E0,-2.687727809E-1
1.297648637E1,1.995179892E0,-9.941539168E-1,-1.624853760E-1
1.298619928E1,2.118571043E0,-6.032116413E-1,1.038440317E-1
1.299591142E1,2.305490255E0,-5.955760926E-2,3.298575282E-1
1.300562444E1,2.549829245E0,4.022429287E-1,3.420744538E-1
1.301533819E1,2.768512487E0,6.795675755E-1,2.907632887E-1
1.302505111E1,2.961540222E0,9.849911928E-1,3.567348123E-1
1.303476324E1,3.125247240E0,1.261094213E0,5.204418898E-1
1.304447626E1,3.174115181E0,1.325843930E0,6.218425035E-1
1.305419001E1,3.077601194E0,1.102273822E0,5.399889946E-1
1.306390288E1,2.860139608E0,6.807892919E-1,3.127537966E-1
1.307361506E1,2.521730185E0,1.469087601E-1,1.502684206E-1
1.308332809E1,2.100245476E0,-3.002314270E-1,1.331647038E-1
1.309304178E1,1.590798974E0,-3.759764731E-1,2.174616307E-1
1.310275470E1,9.640696645E-1,-1.853921413E-1,3.884988427E-1
1.311246689E1,1.992889196E-1,9.437590092E-2,5.864133835E-1
1.312217980E1,-6.644490957E-1,3.032856584E-1,7.379034758E-1
1.313189360E1,-1.514901161E0,4.071297050E-1,7.733326554E-1
1.314160652E1,-2.246696234E0,4.596625566E-1,6.646018028E-1
1.315131866E1,-2.850213289E0,5.305208564E-1,4.190412164E-1
1.316103168E1,-3.344999552E0,5.121954083E-1,8.918370306E-2
1.317074543E1,-3.748158693E0,2.910687327E-1,-2.186833173E-1
1.318045835E1,-4.090233326E0,-2.024958730E-1,-4.642439187E-1
1.319017048E1,-4.371222973E0,-8.011261821E-1,-6.316160560E-1
1.319988350E1,-4.482397079E0,-1.365549088E0,-7.476770282E-1
1.320959725E1,-4.337015629E0,-1.707623482E0,-8.234221339E-1
1.321931017E1,-4.060912609E0,-1.551246643E0,-7.672241330E-1
1.322902230E1,-3.798248291E0,-9.929322004E-1,-4.825693369E-1
1.323873532E1,-3.585673332E0,-3.588727713E-1,-3.909422457E-2
1.324844907E1,-3.458617210E0,9.926267713E-2,3.897205591E-1
1.325816194E1,-3.421966314E0,1.420219839E-1,6.291726828E-1
1.326787413E1,-3.436626673E0,-1.035386100E-1,5.546492934E-1
1.327758715E1,-3.484272718E0,-4.052971601E-1,3.151971996E-1
1.328730090E1,-3.420744658E0,-5.384618640E-1,1.294996142E-1
1.329701376E1,-3.142198324E0,-3.368822634E-1,1.954711229E-2
1.330672595E1,-2.715826988E0,9.071081877E-2,-4.520269856E-2
1.331643887E1,-2.238144398E0,4.450022280E-1,-7.818844914E-2
1.332615267E1,-1.788560748E0,5.928272605E-1,-9.651386738E-2
1.333586558E1,-1.431825995E0,5.354076028E-1,-1.282779276E-1
1.334557777E1,-1.131136417E0,4.437805414E-1,-2.089097649E-1
1.335529069E1,-8.122741580E-1,4.743228853E-1,-2.724378705E-1
1.336500449E1,-4.347705245E-1,5.916055441E-1,-2.834331393E-1
1.337471741E1,-2.916795574E-2,7.186617851E-1,-2.480039895E-1
1.338442954E1,3.849864900E-1,8.383878469E-1,-2.150182426E-1
1.339414256E1,7.588250041E-1,8.640434742E-1,-2.003578991E-1
1.340385631E1,1.066691995E0,8.078454733E-1,-2.015796006E-1
1.341356923E1,1.317139387E0,7.394306064E-1,-1.905843467E-1
1.342328137E1,1.535822749E0,6.465818286E-1,-1.514901221E-1
1.343299439E1,1.720298648E0,4.865398407E-1,-9.040539712E-2
1.344270814E1,1.871788740E0,3.374931216E-1,-3.909422457E-2
1.345242100E1,1.969524264E0,2.128802687E-1,-6.108472589E-3
1.346213319E1,1.992736459E0,1.078145429E-1,4.398100078E-2
1.347184621E1,2.000066519E0,-1.801999472E-2,1.233911440E-1
1.348155991E1,2.107575655E0,-2.391466945E-1,1.991362125E-1
1.349127282E1,2.251735687E0,-2.599155009E-1,2.870981991E-1
1.350098501E1,2.323815584E0,3.206948191E-2,3.872771561E-1
1.351069793E1,2.310377121E0,2.959555089E-1,3.420744538E-1
1.352041173E1,2.143004894E0,4.865398407E-1,1.747023165E-1
1.353012465E1,1.681204319E0,5.916055441E-1,4.642439261E-2
1.353983678E1,7.185090780E-1,4.340069890E-1,-9.162709117E-2
1.354954980E1,-6.826218218E-2,8.704573661E-2,-3.396310806E-1
1.355926355E1,-1.904316396E-1,1.408002973E-1,-5.790832043E-1
1.356897647E1,5.146388337E-2,5.048652887E-1,-7.159129977E-1
1.357868860E1,3.471139669E-1,5.268557668E-1,-9.028322697E-1
1.358840163E1,5.108210444E-1,-4.443913698E-1,-1.029888511E0
1.359811538E1,1.198787764E-1,-1.021031141E0,-6.694886088E-1
1.360782824E1,9.177979827E-2,-1.371657491E0,-4.398100078E-2
1.361754043E1,6.745280623E-1,-1.122431874E0,5.155550838E-1
1.362725345E1,1.358677030E0,-3.662029207E-1,7.452336550E-1
1.363696715E1,1.884005666E0,-2.550287247E-1,6.010736823E-1
1.364668006E1,1.995179892E0,-9.660549164E-1,2.663294077E-1
1.365639225E1,1.793600321E0,-1.554911733E0,-1.343864016E-2
1.366610517E1,1.727628708E0,-1.608666301E0,-1.111742035E-1
1.367581897E1,1.948755503E0,-1.396091461E0,-5.008947477E-2
1.368553189E1,2.234632015E0,-8.096780181E-1,8.307522535E-2
1.369524402E1,2.555937529E0,-1.010952219E-1,1.563768983E-1
1.370495704E1,2.784394503E0,5.427377820E-1,1.710372269E-1
1.371467079E1,2.821045399E0,9.043593407E-1,1.612636745E-1
1.372438371E1,2.730639935E0,9.080244303E-1,1.612636745E-1
1.373409584E1,2.557159424E0,7.638645172E-1,1.539335102E-1
1.374380887E1,2.350692987E0,6.013791561E-1,7.696675509E-2
1.375352262E1,2.185764313E0,4.682144225E-1,-8.551861346E-2
1.376323548E1,2.084363461E0,3.460449576E-1,-1.747023165E-1
1.377294767E1,1.974411011E0,1.359135211E-1,-9.040539712E-2
1.378266069E1,1.752062678E0,-1.169772521E-1,8.551861346E-2
1.379237439E1,1.433200359E0,-2.904578745E-1,2.761029601E-1
1.380208730E1,1.015380859E0,-2.476985604E-1,4.654656053E-1
1.381179949E1,4.436278343E-1,1.374406368E-2,6.914790869E-1
1.382151241E1,-2.661767006E-1,2.495311052E-1,8.832851648E-1
1.383122621E1,-1.029735804E0,3.338280320E-1,9.394831061E-1
1.384093913E1,-1.738471270E0,3.289412558E-1,8.160919547E-1
1.385065126E1,-2.318776131E0,3.228327632E-1,5.424323678E-1
1.386036428E1,-2.748812675E0,3.338280320E-1,2.150182426E-1
1.387007803E1,-3.084778547E0,3.032856584E-1,-8.307522535E-2
1.387979095E1,-3.382872105E0,1.114796251E-1,-3.457395434E-1
1.388950309E1,-3.649201632E0,-2.709107697E-1,-5.705313683E-1
1.389921610E1,-3.888653755E0,-7.669187188E-1,-7.171346545E-1
1.390892980E1,-4.078016281E0,-1.248266339E0,-7.440119386E-1
1.391864272E1,-4.063355923E0,-1.603779435E0,-6.951441765E-1
1.392835491E1,-3.849559307E0,-1.611109614E0,-5.387672782E-1
1.393806782E1,-3.676078796E0,-1.119988441E0,-1.771457046E-1
1.394778163E1,-3.657753468E0,-3.087832928E-1,3.603998721E-1
1.395749454E1,-3.632097721E0,3.949127495E-1,9.358180165E-1
1.396720668E1,-3.451287031E0,6.563553810E-1,1.292552829E0
1.397691970E1,-3.271697998E0,6.563553810E-1,1.225359559E0
1.398663345E1,-3.199617863E0,3.997995257E-1,8.686248064E-1
1.399634637E1,-3.029802322E0,1.762294322E-1,4.251496792E-1
1.400605850E1,-2.669402599E0,3.863608837E-1,1.588202827E-2
1.401577152E1,-2.177059650E0,8.872556686E-1,-2.455606014E-1
1.402548527E1,-1.673721433E0,1.269646049E0,-3.396310806E-1
1.403519814E1,-1.266744494E0,1.357608080E0,-3.335226178E-1
1.404491032E1,-9.967499971E-1,1.175575495E0,-3.139754832E-1
1.405462324E1,-7.805100679E-1,9.068027735E-1,-3.445178568E-1
1.406433704E1,-5.654918551E-1,7.040014863E-1,-4.092676640E-1
1.407404996E1,-3.260397315E-1,5.952706337E-1,-4.324798584E-1
1.408376215E1,-5.482354015E-2,5.683933496E-1,-4.068242610E-1
1.409347506E1,2.396048307E-1,6.099309921E-1,-3.738385141E-1
1.410318887E1,5.193728805E-1,6.270347238E-1,-3.726168275E-1
1.411290178E1,7.734853625E-1,6.294780970E-1,-3.750602305E-1
1.412261392E1,1.033706307E0,6.013791561E-1,-3.432961702E-1
1.413232694E1,1.313474298E0,5.549547076E-1,-2.846548259E-1
1.414204069E1,1.605459332E0,5.842754245E-1,-1.954711229E-1
1.415175355E1,1.884005666E0,6.368082762E-1,-9.162709117E-2
1.416146574E1,2.107575655E0,5.928272605E-1,7.330167107E-3
1.417117876E1,2.285943270E0,4.254551232E-1,8.429691941E-2
1.418089246E1,2.430103064E0,1.798945218E-1,1.343863904E-1
1.419060538E1,2.536390543E0,-2.535016090E-2,1.588202864E-1
1.420031756E1,2.538833857E0,-2.779355086E-2,1.881409585E-1
1.421003048E1,2.416664362E0,1.615691036E-1,2.028012872E-1
1.421974428E1,2.100245476E0,2.959555089E-1,1.514901221E-1
1.422945720E1,1.397771239E0,1.102579311E-1,1.221694518E-2
1.423916934E1,5.328115225E-1,-2.892361879E-1,-2.394521236E-1
1.424888236E1,6.734590977E-2,-4.114056230E-1,-5.253286362E-1
1.425859610E1,1.614163816E-1,-1.976090819E-1,-6.511631608E-1
1.426830897E1,5.279247165E-1,3.939964995E-2,-6.682668924E-1
1.427802116E1,7.991409302E-1,-7.177454978E-2,-7.989882231E-1
1.428773418E1,5.865660906E-1,-8.389987350E-1,-9.846857786E-1
1.429744788E1,1.076618284E-1,-1.569572091E0,-7.269082665E-1
1.430716079E1,-1.195733473E-1,-1.789476991E0,-7.452336699E-2
1.431687298E1,4.301891923E-1,-1.958070874E0,6.328377724E-1
1.432658590E1,1.100899458E0,-1.358218908E0,1.132510781E0
1.433629970E1,1.759392858E0,-5.702258945E-1,1.165496588E0
1.434601262E1,2.155221939E0,-4.517215490E-1,9.113841057E-1
1.435572475E1,2.210198164E0,-8.842014074E-1,5.583143830E-1
1.436543777E1,2.013505220E0,-1.372879267E0,2.064663768E-1
1.437515152E1,1.882784009E0,-1.645317078E0,-6.719319522E-2
1.438486439E1,1.974411011E0,-1.491383553E0,-1.795890927E-1
1.439457657E1,2.310377121E0,-9.917105436E-1,-1.527118087E-1
1.440428960E1,2.781951189E0,-3.002314270E-1,-1.869192570E-1
1.441400329E1,3.164341450E0,2.702999115E-1,-3.078670204E-1
1.442371621E1,3.309723139E0,5.170822144E-1,-3.787252903E-1
1.443342840E1,3.147237778E0,5.329642296E-1,-3.176405728E-1
1.444314131E1,2.736748457E0,4.657710493E-1,-1.563768983E-1
1.445285512E1,2.288386583E0,3.875826001E-1,1.099525020E-2
1.446256803E1,2.001288414E0,3.411581814E-1,1.356080920E-1
1.447228017E1,1.877897143E0,2.483094037E-1,2.516690791E-1
1.448199319E1,1.821699262E0,7.238540053E-2,3.530697227E-1
1.449170694E1,1.689756274E0,-8.521319181E-2,4.104893506E-1
1.450141980E1,1.375780702E0,-6.444438547E-2,4.446968138E-1
1.451113199E1,8.871029615E-1,8.704573661E-2,4.898995161E-1
1.452084501E1,2.286095917E-1,2.641914487E-1,5.790832043E-1
1.453055871E1,-5.410579443E-1,3.936910629E-1,6.694886088E-1
1.454027163E1,-1.333937645E0,4.645493329E-1,6.694886088E-1
1.454998381E1,-2.062220335E0,4.706578255E-1,5.375455618E-1
1.455969673E1,-2.652298689E0,5.427377820E-1,3.078670204E-1
1.456941053E1,-3.075005054E0,6.844543815E-1,6.963659078E-2
1.457912345E1,-3.398754120E0,7.773031592E-1,-1.673721522E-1
1.458883559E1,-3.709064484E0,6.062659025E-1,-4.373666346E-1
1.459854861E1,-4.082902908E0,1.618745178E-2,-6.939224601E-1
1.460826236E1,-4.338237286E0,-8.719844818E-1,-8.930587173E-1
1.461797522E1,-4.282039165E0,-1.525591016E0,-1.032331824E0
1.462768741E1,-4.008379936E0,-1.517039180E0,-1.004232883E0
1.463740043E1,-3.748158693E0,-7.302678823E-1,-6.829272509E-1
1.464711413E1,-3.658975124E0,4.083513916E-1,-1.001789495E-1
1.465682704E1,-3.721281528E0,1.217113137E0,6.646018028E-1
1.466653923E1,-3.687073946E0,1.457787037E0,1.214364409E0
1.467625215E1,-3.539248943E0,1.367381573E0,1.235133171E0
1.468596595E1,-3.406084299E0,9.837695360E-1,7.806627750E-1
1.469567887E1,-3.107990742E0,3.252761662E-1,2.296785712E-1
1.470539100E1,-2.642525196E0,-1.096470803E-1,-1.575985998E-1
1.471510402E1,-2.218597174E0,5.192201585E-3,-3.286358118E-1
1.472481777E1,-1.922947168E0,3.497100472E-1,-3.127537966E-1
1.473453064E1,-1.674943209E0,5.769452453E-1,-2.528907657E-1
1.474424282E1,-1.380514860E0,6.636855602E-1,-2.394521236E-1
1.475395584E1,-1.030957460E0,6.991146803E-1,-2.541124523E-1
1.476366960E1,-7.108734846E-1,7.443174124E-1,-2.565558553E-1
1.477338246E1,-4.469874799E-1,7.846332788E-1,-2.260134816E-1
1.478309465E1,-2.356343269E-1,7.492041588E-1,-1.783674061E-1
1.479280756E1,-3.649812192E-2,6.478035450E-1,-1.673721522E-1
1.480252137E1,1.992889196E-1,4.731011987E-1,-2.186833173E-1
1.481223428E1,4.790569544E-1,2.434226274E-1,-2.846548259E-1
1.482194647E1,7.857022882E-1,5.894676223E-2,-3.213056624E-1
1.483165939E1,1.103342891E0,-3.878879920E-2,-2.883199155E-1
1.484137319E1,1.396549582E0,-9.468132630E-3,-1.795890927E-1
1.485108610E1,1.622563004E0,8.338065445E-2,-3.176405653E-2
1.486079824E1,1.742289066E0,1.346918195E-1,1.099525094E-1
1.487051126E1,1.807038903E0,1.371352077E-1,2.272351831E-1
1.488022501E1,1.893779159E0,7.360709459E-2,3.274141252E-1
1.488993793E1,2.055042982E0,-1.059819981E-1,3.787252903E-1
1.489965006E1,2.259065866E0,-1.560714692E-1,3.726168275E-1
1.490936308E1,2.410556078E0,-2.412846684E-2,3.640649617E-1
1.491907684E1,2.372683525E0,1.322484314E-1,3.323009014E-1
1.492878975E1,2.008618593E0,1.725643575E-1,2.907632887E-1
1.493850189E1,1.318361044E0,-2.535016090E-2,2.028012872E-1
1.494821491E1,5.462501645E-1,-2.489202619E-1,-1.343864016E-2
1.495792866E1,1.870719790E-1,-3.625378609E-1,-3.396310806E-1
1.496764152E1,3.935383558E-1,-2.819060087E-1,-6.462764144E-1
1.497735371E1,7.429429889E-1,3.206948191E-2,-9.272661209E-1
1.498706673E1,9.689564705E-1,4.062134400E-2,-1.274227381E0
1.499678048E1,7.661551833E-1,-6.520794630E-1,-1.536891699E0
1.500649334E1,-1.550024897E-1,-1.221389055E0,-1.275449038E0
1.501620553E1,-3.724641204E-1,-1.603779435E0,-6.352811456E-1
1.502591855E1,2.139492482E-1,-1.313016176E0,1.930277348E-1
1.503563230E1,9.848384857E-1,-6.435275674E-1,9.394831061E-1
1.504534522E1,1.703194857E0,-2.880144715E-1,1.203369141E0
1.505505736E1,1.860793471E0,-6.068767309E-1,1.055544019E0
1.506477038E1,1.562700033E0,-1.454732776E0,6.853706241E-1
