"Time (s)","Acceleration x (m/s^2)","Acceleration y (m/s^2)","Acceleration z (m/s^2)"
5.242012000E-2,-2.832503796E0,-9.413364410E0,-4.486542568E-2
6.213439100E-2,-2.806182861E0,-9.408578873E0,-7.118647546E-2
7.184704700E-2,-2.791825771E0,-9.427721024E0,-8.075776696E-2
8.156064100E-2,-2.760719061E0,-9.461220741E0,-1.118644550E-1
9.127491200E-2,-2.729612350E0,-9.480362892E0,-1.166501045E-1
1.009884010E-1,-2.734398127E0,-9.504291534E0,-1.262213886E-1
1.107011100E-1,-2.741576433E0,-9.497113228E0,-1.214357466E-1
1.204146510E-1,-2.746362209E0,-9.480362892E0,-1.214357466E-1
1.301289740E-1,-2.782254457E0,-9.482755661E0,-1.477568001E-1
1.398424120E-1,-2.827718258E0,-9.468399048E0,-1.621137410E-1
1.495551720E-1,-2.846860647E0,-9.475577354E0,-1.884347796E-1
1.592686620E-1,-2.858824968E0,-9.439684868E0,-2.147558331E-1
1.689830370E-1,-2.842075109E0,-9.394221306E0,-2.171486616E-1
1.786964740E-1,-2.813361168E0,-9.394221306E0,-2.147558331E-1
1.884091830E-1,-2.779861689E0,-9.396614075E0,-1.764706671E-1
1.981227760E-1,-2.751147747E0,-9.406186104E0,-1.238285750E-1
2.078370470E-1,-2.736790895E0,-9.434899330E0,-1.238285750E-1
2.175505370E-1,-2.710469961E0,-9.458827972E0,-9.750752151E-2
2.272632450E-1,-2.705684185E0,-9.473184586E0,1.178465188E-1
2.369767350E-1,-2.720041037E0,-9.470791817E0,-1.375873014E-2
2.466911100E-1,-2.710469961E0,-9.463613510E0,-1.381855011E-1
2.564045470E-1,-2.732005358E0,-9.439684868E0,6.041877344E-2
2.661172560E-1,-2.784647465E0,-9.418149948E0,9.152546525E-2
2.758308490E-1,-2.818146944E0,-9.425328255E0,-1.573280841E-1
2.855451200E-1,-2.818146944E0,-9.406186104E0,-1.262213886E-1
2.952586100E-1,-2.849253654E0,-9.430113792E0,-6.580262445E-3
3.049713180E-1,-2.846860647E0,-9.418149948E0,-2.171486616E-1
3.146848080E-1,-2.827718258E0,-9.454042435E0,-4.016951025E-1
3.243991830E-1,-2.806182861E0,-9.473184586E0,-2.434697002E-1
3.341126200E-1,-2.808575630E0,-9.485149384E0,-2.530409992E-1
3.438253810E-1,-2.789433002E0,-9.477970123E0,-4.639084935E-1
3.535388700E-1,-2.779861689E0,-9.482755661E0,-3.487538993E-1
3.632531930E-1,-2.775076151E0,-9.468399048E0,-1.333998591E-1
3.729666830E-1,-2.787040234E0,-9.470791817E0,-2.434697002E-1
3.826793910E-1,-2.784647465E0,-9.466006279E0,-2.985046208E-1
3.923929850E-1,-2.787040234E0,-9.451649666E0,-4.725824669E-2
4.021072560E-1,-2.832503796E0,-9.422935486E0,5.982056609E-4
4.118207450E-1,-2.827718258E0,-9.418149948E0,-1.908276081E-1
4.215334530E-1,-2.813361168E0,-9.410971642E0,-7.836493850E-2
4.312469430E-1,-2.810968399E0,-9.399007797E0,9.391828626E-2
4.409613180E-1,-2.820539713E0,-9.401400566E0,-6.640082598E-2
4.506747560E-1,-2.808575630E0,-9.403793335E0,-1.836491376E-1
4.603874640E-1,-2.799004316E0,-9.403793335E0,-6.580262445E-3
4.701010580E-1,-2.803789854E0,-9.415757179E0,-3.529413417E-2
4.798153280E-1,-2.803789854E0,-9.463613510E0,-2.961117923E-1
4.895288180E-1,-2.767897606E0,-9.494720459E0,-2.338984162E-1
4.992415260E-1,-2.772683144E0,-9.506684303E0,-1.118644550E-1
5.089551200E-1,-2.799004316E0,-9.492327690E0,-2.961117923E-1
5.186693910E-1,-2.799004316E0,-9.458827972E0,-3.583251834E-1
5.283828280E-1,-2.806182861E0,-9.432506561E0,-1.429711580E-1
5.380955890E-1,-2.820539713E0,-9.401400566E0,-1.501496136E-1
5.478090780E-1,-2.834896564E0,-9.410971642E0,-3.224328458E-1
5.575234530E-1,-2.813361168E0,-9.408578873E0,-1.788634956E-1
5.672368910E-1,-2.806182861E0,-9.415757179E0,-1.615155302E-2
5.769495990E-1,-2.789433002E0,-9.420542717E0,-1.764706671E-1
5.866631930E-1,-2.734398127E0,-9.446864128E0,-2.602194548E-1
5.963774640E-1,-2.696112871E0,-9.456435204E0,-5.922235921E-2
6.060909530E-1,-2.717648268E0,-9.461220741E0,-9.750752151E-2
6.158036620E-1,-2.734398127E0,-9.480362892E0,-2.913261652E-1
6.255172560E-1,-2.720041037E0,-9.480362892E0,-1.645065546E-1
6.352315260E-1,-2.758326292E0,-9.461220741E0,-2.811566554E-2
6.449450160E-1,-2.789433002E0,-9.437292099E0,-2.243271172E-1
6.546577240E-1,-2.791825771E0,-9.449256897E0,-2.841476798E-1
6.643712140E-1,-2.770290375E0,-9.446864128E0,-9.511470050E-2
6.740855890E-1,-2.794218540E0,-9.470791817E0,-1.716850251E-1
6.837990260E-1,-2.801397085E0,-9.482755661E0,-3.849453330E-1
6.935117870E-1,-2.782254457E0,-9.475577354E0,-2.793620527E-1
7.032252760E-1,-2.770290375E0,-9.451649666E0,-1.812563092E-1
7.129396510E-1,-2.763111830E0,-9.437292099E0,-2.075773627E-1
7.226530890E-1,-2.753540754E0,-9.430113792E0,-1.645065546E-1
7.323658490E-1,-2.741576433E0,-9.418149948E0,-1.262213886E-1
7.420793390E-1,-2.775076151E0,-9.410971642E0,-9.990034252E-2
7.517937140E-1,-2.777468920E0,-9.413364410E0,-8.315058798E-2
7.615071510E-1,-2.799004316E0,-9.444471359E0,-7.836493850E-2
7.712198600E-1,-2.801397085E0,-9.451649666E0,-1.070788130E-1
7.809334530E-1,-2.777468920E0,-9.470791817E0,-1.525424421E-1
7.906477760E-1,-2.751147747E0,-9.473184586E0,-1.573280841E-1
8.003612140E-1,-2.760719061E0,-9.449256897E0,-1.692921966E-1
8.100739220E-1,-2.787040234E0,-9.446864128E0,-1.501496136E-1
8.197875160E-1,-2.801397085E0,-9.444471359E0,-1.525424421E-1
8.295017870E-1,-2.818146944E0,-9.439684868E0,-1.525424421E-1
8.392152760E-1,-2.846860647E0,-9.430113792E0,-1.645065546E-1
8.489279850E-1,-2.863610506E0,-9.432506561E0,-1.812563092E-1
8.586415780E-1,-2.854039192E0,-9.422935486E0,-1.908276081E-1
8.683559010E-1,-2.844467878E0,-9.444471359E0,-1.932204217E-1
8.780693390E-1,-2.818146944E0,-9.454042435E0,-1.884347796E-1
8.877820990E-1,-2.796611547E0,-9.458827972E0,-1.812563092E-1
8.974955890E-1,-2.784647465E0,-9.468399048E0,-1.668993831E-1
9.072099640E-1,-2.779861689E0,-9.477970123E0,-1.597209126E-1
9.169234010E-1,-2.796611547E0,-9.456435204E0,-1.166501045E-1
9.266361620E-1,-2.832503796E0,-9.446864128E0,-8.793623000E-2
9.363496510E-1,-2.846860647E0,-9.430113792E0,-9.272187948E-2
9.460640260E-1,-2.858824968E0,-9.427721024E0,-8.315058798E-2
9.557775160E-1,-2.866003275E0,-9.434899330E0,-9.990034252E-2
9.654902240E-1,-2.818146944E0,-9.446864128E0,-1.214357466E-1
9.752038180E-1,-2.767897606E0,-9.456435204E0,-1.525424421E-1
9.849180890E-1,-2.732005358E0,-9.442078590E0,-1.501496136E-1
9.946315780E-1,-2.717648268E0,-9.432506561E0,-1.405783296E-1
1.004344287E0,-2.708076954E0,-9.439684868E0,-1.214357466E-1
1.014057881E0,-2.708076954E0,-9.446864128E0,-1.070788130E-1
1.023772203E0,-2.736790895E0,-9.456435204E0,-9.272187948E-2
1.033485641E0,-2.755933523E0,-9.458827972E0,-6.640082598E-2
1.043198401E0,-2.779861689E0,-9.451649666E0,-7.357929647E-2
1.052911891E0,-2.770290375E0,-9.446864128E0,-9.032905847E-2
1.062626266E0,-2.779861689E0,-9.444471359E0,-1.310070455E-1
1.072339756E0,-2.796611547E0,-9.470791817E0,-1.429711580E-1
1.082052464E0,-2.827718258E0,-9.470791817E0,-1.812563092E-1
1.091766058E0,-2.851646423E0,-9.475577354E0,-1.956132501E-1
1.101480381E0,-2.870789051E0,-9.439684868E0,-2.027917206E-1
1.111193818E0,-2.875574589E0,-9.422935486E0,-2.147558331E-1
1.120906578E0,-2.875574589E0,-9.408578873E0,-2.195414752E-1
1.130620068E0,-2.849253654E0,-9.420542717E0,-2.027917206E-1
1.140334443E0,-2.825325251E0,-9.430113792E0,-1.645065546E-1
1.150047933E0,-2.784647465E0,-9.468399048E0,-1.333998591E-1
1.159760641E0,-2.758326292E0,-9.494720459E0,-1.142572835E-1
1.169474235E0,-2.720041037E0,-9.504291534E0,-1.070788130E-1
1.179188558E0,-2.729612350E0,-9.497113228E0,-8.554340899E-2
1.188902047E0,-2.748754978E0,-9.463613510E0,-5.682953820E-2
1.198614756E0,-2.787040234E0,-9.439684868E0,-5.922235921E-2
1.208328349E0,-2.815753937E0,-9.403793335E0,-5.443671346E-2
1.218042672E0,-2.844467878E0,-9.370293617E0,-7.118647546E-2
1.227756110E0,-2.868396044E0,-9.372686386E0,-9.511470050E-2
1.237468870E0,-2.882753134E0,-9.389435768E0,-8.793623000E-2
1.247182360E0,-2.868396044E0,-9.408578873E0,-8.793623000E-2
1.256896735E0,-2.863610506E0,-9.432506561E0,-9.750752151E-2
1.266610224E0,-2.813361168E0,-9.463613510E0,-9.511470050E-2
1.276322985E0,-2.782254457E0,-9.492327690E0,-1.142572835E-1
1.286036474E0,-2.741576433E0,-9.513862610E0,-1.166501045E-1
1.295750849E0,-2.746362209E0,-9.516255379E0,-1.286142170E-1
1.305464339E0,-2.770290375E0,-9.501898766E0,-1.190429255E-1
1.315177099E0,-2.818146944E0,-9.480362892E0,-1.022931710E-1
1.324890589E0,-2.854039192E0,-9.439684868E0,-9.511470050E-2
1.334604964E0,-2.863610506E0,-9.432506561E0,-7.597211748E-2
1.344318453E0,-2.873181820E0,-9.389435768E0,-9.272187948E-2
1.354031214E0,-2.882753134E0,-9.377471924E0,-1.166501045E-1
1.363744703E0,-2.863610506E0,-9.375079155E0,-1.381855011E-1
1.373459078E0,-2.827718258E0,-9.394221306E0,-1.597209126E-1
1.383172568E0,-2.753540754E0,-9.432506561E0,-1.860419661E-1
1.392885328E0,-2.698505640E0,-9.480362892E0,-1.908276081E-1
1.402598818E0,-2.629113913E0,-9.485149384E0,-1.860419661E-1
1.412313193E0,-2.600399971E0,-9.485149384E0,-1.453639716E-1
1.422026683E0,-2.605185747E0,-9.501898766E0,-1.094716340E-1
1.431739443E0,-2.648256540E0,-9.499505997E0,-5.443671346E-2
1.441452933E0,-2.696112871E0,-9.487542152E0,-2.811566554E-2
1.451167308E0,-2.732005358E0,-9.485149384E0,-2.093719877E-2
1.460880797E0,-2.791825771E0,-9.466006279E0,-3.050848842E-2
1.470593558E0,-2.820539713E0,-9.432506561E0,-7.597211748E-2
1.480307151E0,-2.842075109E0,-9.382257462E0,-1.118644550E-1
1.490021422E0,-2.846860647E0,-9.367900848E0,-1.525424421E-1
1.499734912E0,-2.851646423E0,-9.370293617E0,-1.788634956E-1
1.509447672E0,-2.851646423E0,-9.382257462E0,-2.171486616E-1
1.519161266E0,-2.822932482E0,-9.401400566E0,-2.410768867E-1
1.528875589E0,-2.799004316E0,-9.427721024E0,-2.219343036E-1
1.538589026E0,-2.772683144E0,-9.461220741E0,-2.051845491E-1
1.548301787E0,-2.736790895E0,-9.482755661E0,-1.621137410E-1
1.558015381E0,-2.734398127E0,-9.492327690E0,-1.238285750E-1
1.567729703E0,-2.722434044E0,-9.504291534E0,-1.142572835E-1
1.577443193E0,-2.765504837E0,-9.494720459E0,-9.511470050E-2
1.587155901E0,-2.810968399E0,-9.477970123E0,-8.315058798E-2
1.596869495E0,-2.856431961E0,-9.458827972E0,-9.511470050E-2
1.606583818E0,-2.885145903E0,-9.427721024E0,-1.022931710E-1
1.616297308E0,-2.916252613E0,-9.399007797E0,-1.046859920E-1
1.626010068E0,-2.906681299E0,-9.391828537E0,-1.022931710E-1
1.635723558E0,-2.889931440E0,-9.396614075E0,-9.750752151E-2
1.645437933E0,-2.834896564E0,-9.403793335E0,-1.094716340E-1
1.655151422E0,-2.799004316E0,-9.415757179E0,-1.286142170E-1
1.664864183E0,-2.784647465E0,-9.420542717E0,-1.453639716E-1
1.674577776E0,-2.767897606E0,-9.434899330E0,-1.429711580E-1
1.684292099E0,-2.777468920E0,-9.432506561E0,-1.286142170E-1
1.694005589E0,-2.810968399E0,-9.470791817E0,-1.190429255E-1
1.703718297E0,-2.839682341E0,-9.470791817E0,-1.142572835E-1
1.713431891E0,-2.856431961E0,-9.463613510E0,-1.429711580E-1
1.723146214E0,-2.873181820E0,-9.442078590E0,-1.549352705E-1
1.732859703E0,-2.866003275E0,-9.442078590E0,-1.716850251E-1
1.742572464E0,-2.851646423E0,-9.430113792E0,-1.453639716E-1
1.752286058E0,-2.834896564E0,-9.430113792E0,-1.046859920E-1
1.762000381E0,-2.822932482E0,-9.425328255E0,-4.725824669E-2
1.771713818E0,-2.825325251E0,-9.422935486E0,-8.973085321E-3
1.781426578E0,-2.827718258E0,-9.430113792E0,5.383851007E-3
1.791140172E0,-2.818146944E0,-9.418149948E0,-1.615155302E-2
1.800854495E0,-2.820539713E0,-9.415757179E0,-6.161518395E-2
1.810567985E0,-2.825325251E0,-9.418149948E0,-1.022931710E-1
1.820280745E0,-2.834896564E0,-9.425328255E0,-1.310070455E-1
1.829994235E0,-2.839682341E0,-9.439684868E0,-1.621137410E-1
1.839708610E0,-2.844467878E0,-9.458827972E0,-1.764706671E-1
1.849422099E0,-2.849253654E0,-9.449256897E0,-1.668993831E-1
1.859134860E0,-2.846860647E0,-9.437292099E0,-1.238285750E-1
1.868848453E0,-2.846860647E0,-9.442078590E0,-1.238285750E-1
1.878562776E0,-2.851646423E0,-9.444471359E0,-9.511470050E-2
1.888276266E0,-2.832503796E0,-9.456435204E0,-8.554340899E-2
1.897989026E0,-2.818146944E0,-9.437292099E0,-8.554340899E-2
1.907702516E0,-2.822932482E0,-9.413364410E0,-5.443671346E-2
1.917416891E0,-2.830111027E0,-9.418149948E0,-4.247260094E-2
1.927130381E0,-2.851646423E0,-9.437292099E0,-4.725824669E-2
1.936843141E0,-2.837289333E0,-9.470791817E0,-4.247260094E-2
1.946556735E0,-2.825325251E0,-9.492327690E0,-7.118647546E-2
1.956271058E0,-2.810968399E0,-9.492327690E0,-6.640082598E-2
1.965984547E0,-2.813361168E0,-9.458827972E0,-6.879365444E-2
1.975697256E0,-2.799004316E0,-9.439684868E0,-6.161518395E-2
1.985410849E0,-2.820539713E0,-9.410971642E0,-4.725824669E-2
1.995125172E0,-2.825325251E0,-9.375079155E0,-5.443671346E-2
2.004838662E0,-2.818146944E0,-9.372686386E0,-6.640082598E-2
2.014551422E0,-2.832503796E0,-9.382257462E0,-8.075776696E-2
2.024265016E0,-2.834896564E0,-9.394221306E0,-1.094716340E-1
2.033979339E0,-2.839682341E0,-9.425328255E0,-1.453639716E-1
2.043692828E0,-2.842075109E0,-9.442078590E0,-1.764706671E-1
2.053405589E0,-2.810968399E0,-9.451649666E0,-1.812563092E-1
2.063119183E0,-2.813361168E0,-9.427721024E0,-1.980060786E-1
2.072833506E0,-2.825325251E0,-9.427721024E0,-1.836491376E-1
2.082546943E0,-2.820539713E0,-9.442078590E0,-1.573280841E-1
2.092259703E0,-2.808575630E0,-9.454042435E0,-1.549352705E-1
2.101973297E0,-2.834896564E0,-9.456435204E0,-1.597209126E-1
2.111687620E0,-2.837289333E0,-9.463613510E0,-1.740778536E-1
2.121401110E0,-2.820539713E0,-9.477970123E0,-1.692921966E-1
2.131113870E0,-2.760719061E0,-9.475577354E0,-1.573280841E-1
2.140827464E0,-2.708076954E0,-9.458827972E0,-1.333998591E-1
2.150541787E0,-2.669791937E0,-9.458827972E0,-1.022931710E-1
2.160255276E0,-2.643470764E0,-9.461220741E0,-6.879365444E-2
2.169967985E0,-2.650649309E0,-9.468399048E0,-4.486542568E-2
2.179681578E0,-2.662613392E0,-9.487542152E0,2.991028363E-3
2.189395901E0,-2.708076954E0,-9.477970123E0,5.982056609E-4
2.199109391E0,-2.748754978E0,-9.446864128E0,-3.529413417E-2
2.208822151E0,-2.770290375E0,-9.418149948E0,-9.032905847E-2
2.218535745E0,-2.767897606E0,-9.415757179E0,-1.357926875E-1
2.228250068E0,-2.770290375E0,-9.420542717E0,-1.836491376E-1
2.237963558E0,-2.751147747E0,-9.427721024E0,-1.788634956E-1
2.247676318E0,-2.729612350E0,-9.420542717E0,-1.692921966E-1
2.257389808E0,-2.729612350E0,-9.439684868E0,-1.286142170E-1
2.267104235E0,-2.741576433E0,-9.454042435E0,-9.990034252E-2
2.276817672E0,-2.748754978E0,-9.482755661E0,-1.022931710E-1
2.286530433E0,-2.767897606E0,-9.477970123E0,-1.190429255E-1
2.296244026E0,-2.818146944E0,-9.470791817E0,-1.166501045E-1
2.305958349E0,-2.875574589E0,-9.446864128E0,-1.381855011E-1
2.315671839E0,-2.885145903E0,-9.442078590E0,-1.357926875E-1
2.325384599E0,-2.904288530E0,-9.434899330E0,-1.286142170E-1
2.335098193E0,-2.901895761E0,-9.425328255E0,-1.070788130E-1
2.344812516E0,-2.894717216E0,-9.437292099E0,-9.032905847E-2
2.354526006E0,-2.866003275E0,-9.482755661E0,-7.118647546E-2
2.364238714E0,-2.856431961E0,-9.501898766E0,-5.922235921E-2
2.373952308E0,-2.822932482E0,-9.494720459E0,-6.400800496E-2
2.383666631E0,-2.830111027E0,-9.461220741E0,-7.357929647E-2
2.393380120E0,-2.822932482E0,-9.413364410E0,-9.511470050E-2
2.403092881E0,-2.858824968E0,-9.387042999E0,-1.094716340E-1
2.412806474E0,-2.866003275E0,-9.391828537E0,-1.118644550E-1
2.422520797E0,-2.854039192E0,-9.382257462E0,-1.118644550E-1
2.432234287E0,-2.839682341E0,-9.379864693E0,-1.094716340E-1
2.441947047E0,-2.803789854E0,-9.384650230E0,-1.022931710E-1
2.451660537E0,-2.758326292E0,-9.389435768E0,-9.272187948E-2
2.461374912E0,-2.703291416E0,-9.422935486E0,-7.597211748E-2
2.471088401E0,-2.684148788E0,-9.437292099E0,-5.922235921E-2
2.480801162E0,-2.660220623E0,-9.461220741E0,-5.204389244E-2
2.490514756E0,-2.660220623E0,-9.487542152E0,-3.290131316E-2
2.500229078E0,-2.686541557E0,-9.501898766E0,-3.529413417E-2
2.509942568E0,-2.708076954E0,-9.511469841E0,-5.682953820E-2
2.519655328E0,-2.727219582E0,-9.494720459E0,-7.357929647E-2
2.529368922E0,-2.758326292E0,-9.475577354E0,-1.262213886E-1
2.539083245E0,-2.765504837E0,-9.451649666E0,-1.573280841E-1
2.548796735E0,-2.770290375E0,-9.427721024E0,-1.956132501E-1
2.558509443E0,-2.760719061E0,-9.434899330E0,-2.291127741E-1
2.568223037E0,-2.765504837E0,-9.437292099E0,-2.602194548E-1
2.577937360E0,-2.779861689E0,-9.444471359E0,-2.554338276E-1
2.587650849E0,-2.775076151E0,-9.466006279E0,-2.362912297E-1
2.597363610E0,-2.758326292E0,-9.458827972E0,-2.171486616E-1
2.607077203E0,-2.758326292E0,-9.461220741E0,-1.908276081E-1
2.616791526E0,-2.767897606E0,-9.477970123E0,-1.573280841E-1
2.626505016E0,-2.787040234E0,-9.489934921E0,-1.214357466E-1
2.636217724E0,-2.789433002E0,-9.482755661E0,-8.793623000E-2
2.645931318E0,-2.791825771E0,-9.477970123E0,-4.007977992E-2
2.655645641E0,-2.808575630E0,-9.470791817E0,2.991028363E-3
2.665359131E0,-2.818146944E0,-9.456435204E0,2.213360928E-2
2.675071891E0,-2.839682341E0,-9.430113792E0,3.649054468E-2
2.684785485E0,-2.839682341E0,-9.401400566E0,5.563312769E-2
2.694499808E0,-2.868396044E0,-9.387042999E0,3.888336942E-2
2.704213297E0,-2.873181820E0,-9.384650230E0,3.170489892E-2
2.713926058E0,-2.868396044E0,-9.367900848E0,-6.580262445E-3
2.723639547E0,-2.851646423E0,-9.363115311E0,-4.965107143E-2
2.733353922E0,-2.827718258E0,-9.403793335E0,-1.070788130E-1
2.743067412E0,-2.799004316E0,-9.434899330E0,-1.405783296E-1
2.752780172E0,-2.760719061E0,-9.434899330E0,-1.645065546E-1
2.762493766E0,-2.732005358E0,-9.420542717E0,-1.549352705E-1
2.772208089E0,-2.717648268E0,-9.454042435E0,-1.453639716E-1
2.781921578E0,-2.703291416E0,-9.489934921E0,-1.501496136E-1
2.791634287E0,-2.710469961E0,-9.492327690E0,-1.549352705E-1
2.801347881E0,-2.712862730E0,-9.499505997E0,-1.573280841E-1
2.811062203E0,-2.741576433E0,-9.492327690E0,-1.501496136E-1
2.820775693E0,-2.755933523E0,-9.480362892E0,-1.501496136E-1
2.830488453E0,-2.755933523E0,-9.482755661E0,-1.692921966E-1
2.840202047E0,-2.739183664E0,-9.477970123E0,-1.788634956E-1
2.849916370E0,-2.739183664E0,-9.473184586E0,-1.621137410E-1
2.859629860E0,-2.755933523E0,-9.468399048E0,-1.357926875E-1
2.869342568E0,-2.779861689E0,-9.449256897E0,-1.094716340E-1
2.879056162E0,-2.784647465E0,-9.444471359E0,-9.990034252E-2
2.888770485E0,-2.787040234E0,-9.446864128E0,-1.094716340E-1
2.898483974E0,-2.789433002E0,-9.432506561E0,-1.262213886E-1
2.908196735E0,-2.777468920E0,-9.437292099E0,-1.357926875E-1
2.917910328E0,-2.741576433E0,-9.458827972E0,-1.621137410E-1
2.927624651E0,-2.722434044E0,-9.461220741E0,-1.692921966E-1
2.937338141E0,-2.710469961E0,-9.463613510E0,-1.381855011E-1
2.947050849E0,-2.732005358E0,-9.458827972E0,-9.511470050E-2
2.956764443E0,-2.739183664E0,-9.449256897E0,-5.682953820E-2
2.966478766E0,-2.751147747E0,-9.451649666E0,-2.093719877E-2
2.976192256E0,-2.775076151E0,-9.427721024E0,-6.580262445E-3
2.985905016E0,-2.779861689E0,-9.415757179E0,-4.187439568E-3
2.995618610E0,-2.787040234E0,-9.401400566E0,-4.187439568E-3
3.005332933E0,-2.803789854E0,-9.401400566E0,-3.290131316E-2
3.015046370E0,-2.827718258E0,-9.406186104E0,-5.682953820E-2
3.024759131E0,-2.849253654E0,-9.410971642E0,-9.750752151E-2
3.034472724E0,-2.832503796E0,-9.420542717E0,-1.310070455E-1
3.044187047E0,-2.822932482E0,-9.444471359E0,-1.932204217E-1
3.053900537E0,-2.791825771E0,-9.458827972E0,-2.171486616E-1
3.063613245E0,-2.777468920E0,-9.475577354E0,-2.386840582E-1
3.073326839E0,-2.765504837E0,-9.489934921E0,-2.602194548E-1
3.083041162E0,-2.770290375E0,-9.485149384E0,-2.554338276E-1
3.092754651E0,-2.770290375E0,-9.489934921E0,-2.458625287E-1
3.102467412E0,-2.775076151E0,-9.489934921E0,-2.386840582E-1
3.112181006E0,-2.772683144E0,-9.489934921E0,-2.338984162E-1
3.121895328E0,-2.770290375E0,-9.489934921E0,-2.003988922E-1
3.131608766E0,-2.763111830E0,-9.477970123E0,-1.932204217E-1
3.141321526E0,-2.770290375E0,-9.451649666E0,-1.645065546E-1
3.151035120E0,-2.799004316E0,-9.439684868E0,-1.262213886E-1
3.160749443E0,-2.796611547E0,-9.444471359E0,-1.022931710E-1
3.170462933E0,-2.791825771E0,-9.449256897E0,-8.315058798E-2
3.180175641E0,-2.755933523E0,-9.485149384E0,-8.315058798E-2
3.189889235E0,-2.708076954E0,-9.516255379E0,-8.793623000E-2
3.199603558E0,-2.665006161E0,-9.544969559E0,-1.022931710E-1
3.209317047E0,-2.617149830E0,-9.554540634E0,-1.214357466E-1
3.219029808E0,-2.598007202E0,-9.542576790E0,-9.750752151E-2
3.228743401E0,-2.609971285E0,-9.482755661E0,-6.879365444E-2
3.238457724E0,-2.643470764E0,-9.432506561E0,-2.333002165E-2
3.248171162E0,-2.720041037E0,-9.375079155E0,3.409772366E-2
3.257883922E0,-2.806182861E0,-9.351150513E0,4.606183618E-2
3.267597516E0,-2.880360365E0,-9.332008362E0,5.802594870E-2
3.277311839E0,-2.947658300E0,-9.346364975E0,1.734796353E-2
3.287025328E0,-2.950051308E0,-9.360722542E0,-2.811566554E-2
3.296738037E0,-2.947658300E0,-9.355937004E0,-9.272187948E-2
3.306451631E0,-2.954836845E0,-9.377471924E0,-1.238285750E-1
3.316165953E0,-2.935694218E0,-9.399007797E0,-1.429711580E-1
3.325879443E0,-2.930908680E0,-9.420542717E0,-1.597209126E-1
3.335592203E0,-2.892324448E0,-9.427721024E0,-1.501496136E-1
3.345305693E0,-2.842075109E0,-9.430113792E0,-1.310070455E-1
3.355020068E0,-2.810968399E0,-9.451649666E0,-1.286142170E-1
3.364733558E0,-2.777468920E0,-9.449256897E0,-1.190429255E-1
3.374446318E0,-2.758326292E0,-9.451649666E0,-1.597209126E-1
3.384159808E0,-2.727219582E0,-9.458827972E0,-1.788634956E-1
3.393874183E0,-2.700898647E0,-9.482755661E0,-2.075773627E-1
3.403587672E0,-2.681756020E0,-9.497113228E0,-2.147558331E-1
3.413300433E0,-2.684148788E0,-9.509077072E0,-1.812563092E-1
3.423014026E0,-2.717648268E0,-9.487542152E0,-1.549352705E-1
3.432728349E0,-2.765504837E0,-9.461220741E0,-1.142572835E-1
3.442441787E0,-2.796611547E0,-9.444471359E0,-1.118644550E-1
3.452154547E0,-2.813361168E0,-9.430113792E0,-1.381855011E-1
3.461868141E0,-2.784647465E0,-9.422935486E0,-1.788634956E-1
3.471582464E0,-2.753540754E0,-9.422935486E0,-2.219343036E-1
3.481295953E0,-2.722434044E0,-9.430113792E0,-2.219343036E-1
3.491008662E0,-2.705684185E0,-9.427721024E0,-2.003988922E-1
3.500722256E0,-2.688934565E0,-9.427721024E0,-1.860419661E-1
3.510436578E0,-2.698505640E0,-9.430113792E0,-1.645065546E-1
3.520150068E0,-2.696112871E0,-9.456435204E0,-1.645065546E-1
3.529862776E0,-2.693720102E0,-9.451649666E0,-1.645065546E-1
3.539576370E0,-2.712862730E0,-9.451649666E0,-1.692921966E-1
3.549290693E0,-2.720041037E0,-9.451649666E0,-1.621137410E-1
3.559004183E0,-2.741576433E0,-9.470791817E0,-1.573280841E-1
3.568716891E0,-2.765504837E0,-9.470791817E0,-1.573280841E-1
3.578430485E0,-2.777468920E0,-9.458827972E0,-1.549352705E-1
3.588144808E0,-2.789433002E0,-9.454042435E0,-1.286142170E-1
3.597858297E0,-2.784647465E0,-9.454042435E0,-1.238285750E-1
3.607571006E0,-2.801397085E0,-9.461220741E0,-1.238285750E-1
3.617284599E0,-2.796611547E0,-9.475577354E0,-1.166501045E-1
3.626998922E0,-2.772683144E0,-9.470791817E0,-1.597209126E-1
3.636712412E0,-2.775076151E0,-9.477970123E0,-1.788634956E-1
3.646425120E0,-2.799004316E0,-9.482755661E0,-2.051845491E-1
3.656138714E0,-2.801397085E0,-9.463613510E0,-2.195414752E-1
3.665853037E0,-2.825325251E0,-9.446864128E0,-1.956132501E-1
3.675566526E0,-2.839682341E0,-9.408578873E0,-1.692921966E-1
3.685279235E0,-2.839682341E0,-9.406186104E0,-1.310070455E-1
3.694992828E0,-2.839682341E0,-9.403793335E0,-9.272187948E-2
3.704707151E0,-2.818146944E0,-9.391828537E0,-6.161518395E-2
3.714420641E0,-2.799004316E0,-9.391828537E0,-3.290131316E-2
3.724133349E0,-2.801397085E0,-9.396614075E0,-2.093719877E-2
3.733846943E0,-2.806182861E0,-9.406186104E0,-4.247260094E-2
3.743561266E0,-2.784647465E0,-9.437292099E0,-7.597211748E-2
3.753274756E0,-2.784647465E0,-9.442078590E0,-1.094716340E-1
3.762987464E0,-2.772683144E0,-9.434899330E0,-1.262213886E-1
3.772701058E0,-2.777468920E0,-9.420542717E0,-1.190429255E-1
3.782415381E0,-2.789433002E0,-9.446864128E0,-1.310070455E-1
3.792128870E0,-2.779861689E0,-9.461220741E0,-1.238285750E-1
3.801841578E0,-2.775076151E0,-9.461220741E0,-1.525424421E-1
3.811555172E0,-2.791825771E0,-9.463613510E0,-1.764706671E-1
3.821269495E0,-2.796611547E0,-9.463613510E0,-2.027917206E-1
3.830982985E0,-2.813361168E0,-9.468399048E0,-2.195414752E-1
3.840695693E0,-2.827718258E0,-9.463613510E0,-2.123630047E-1
3.850409287E0,-2.858824968E0,-9.458827972E0,-2.075773627E-1
3.860123610E0,-2.861217737E0,-9.456435204E0,-1.884347796E-1
3.869837047E0,-2.863610506E0,-9.434899330E0,-1.692921966E-1
3.879549808E0,-2.854039192E0,-9.425328255E0,-1.501496136E-1
3.889263401E0,-2.832503796E0,-9.415757179E0,-1.429711580E-1
3.898977724E0,-2.825325251E0,-9.418149948E0,-1.262213886E-1
3.908691162E0,-2.794218540E0,-9.434899330E0,-1.262213886E-1
3.918403922E0,-2.787040234E0,-9.425328255E0,-1.214357466E-1
3.928117516E0,-2.775076151E0,-9.401400566E0,-1.142572835E-1
3.937831839E0,-2.772683144E0,-9.396614075E0,-9.750752151E-2
3.947545276E0,-2.813361168E0,-9.403793335E0,-9.032905847E-2
3.957258037E0,-2.834896564E0,-9.427721024E0,-9.272187948E-2
3.966971526E0,-2.834896564E0,-9.444471359E0,-1.118644550E-1
3.976685901E0,-2.815753937E0,-9.446864128E0,-1.357926875E-1
3.986399391E0,-2.791825771E0,-9.442078590E0,-1.597209126E-1
3.996112151E0,-2.767897606E0,-9.446864128E0,-1.788634956E-1
4.005825641E0,-2.765504837E0,-9.446864128E0,-1.716850251E-1
4.015540016E0,-2.772683144E0,-9.430113792E0,-1.573280841E-1
4.025253506E0,-2.784647465E0,-9.420542717E0,-1.645065546E-1
4.034966214E0,-2.791825771E0,-9.432506561E0,-1.501496136E-1
4.044679808E0,-2.801397085E0,-9.444471359E0,-1.621137410E-1
4.054394131E0,-2.794218540E0,-9.461220741E0,-1.908276081E-1
4.064107620E0,-2.777468920E0,-9.497113228E0,-2.027917206E-1
4.073820328E0,-2.760719061E0,-9.499505997E0,-2.099701911E-1
4.083533922E0,-2.753540754E0,-9.497113228E0,-1.860419661E-1
4.093248245E0,-2.748754978E0,-9.482755661E0,-1.501496136E-1
4.102961683E0,-2.763111830E0,-9.456435204E0,-1.310070455E-1
4.112674443E0,-2.770290375E0,-9.444471359E0,-1.166501045E-1
4.122388037E0,-2.777468920E0,-9.408578873E0,-1.094716340E-1
4.132102308E0,-2.791825771E0,-9.410971642E0,-1.214357466E-1
4.141815797E0,-2.799004316E0,-9.425328255E0,-1.357926875E-1
4.151528558E0,-2.784647465E0,-9.439684868E0,-1.692921966E-1
4.161242047E0,-2.772683144E0,-9.427721024E0,-1.812563092E-1
4.170956422E0,-2.767897606E0,-9.415757179E0,-1.716850251E-1
4.180669912E0,-2.739183664E0,-9.410971642E0,-1.716850251E-1
4.190382620E0,-2.739183664E0,-9.425328255E0,-1.501496136E-1
4.200096214E0,-2.729612350E0,-9.439684868E0,-1.716850251E-1
4.209810537E0,-2.732005358E0,-9.466006279E0,-1.836491376E-1
4.219523974E0,-2.734398127E0,-9.470791817E0,-1.740778536E-1
4.229236735E0,-2.739183664E0,-9.487542152E0,-1.716850251E-1
4.238950328E0,-2.727219582E0,-9.477970123E0,-1.692921966E-1
4.248664599E0,-2.715255499E0,-9.480362892E0,-1.668993831E-1
4.258378089E0,-2.700898647E0,-9.470791817E0,-1.549352705E-1
4.268090849E0,-2.674577475E0,-9.482755661E0,-1.549352705E-1
4.277804339E0,-2.679363251E0,-9.482755661E0,-1.453639716E-1
4.287518714E0,-2.691327333E0,-9.468399048E0,-1.286142170E-1
4.297232203E0,-2.712862730E0,-9.468399048E0,-1.142572835E-1
4.306944912E0,-2.751147747E0,-9.449256897E0,-1.357926875E-1
4.316658506E0,-2.806182861E0,-9.451649666E0,-1.477568001E-1
4.326372828E0,-2.832503796E0,-9.444471359E0,-1.668993831E-1
4.336086266E0,-2.837289333E0,-9.422935486E0,-1.740778536E-1
4.345799026E0,-2.844467878E0,-9.415757179E0,-1.788634956E-1
4.355512620E0,-2.818146944E0,-9.422935486E0,-1.740778536E-1
4.365226891E0,-2.815753937E0,-9.437292099E0,-1.525424421E-1
4.374940381E0,-2.784647465E0,-9.444471359E0,-1.573280841E-1
4.384653089E0,-2.760719061E0,-9.468399048E0,-1.501496136E-1
4.394366683E0,-2.748754978E0,-9.468399048E0,-1.357926875E-1
4.404081006E0,-2.748754978E0,-9.475577354E0,-1.262213886E-1
4.413794495E0,-2.736790895E0,-9.470791817E0,-1.310070455E-1
4.423507203E0,-2.736790895E0,-9.430113792E0,-1.166501045E-1
4.433220797E0,-2.727219582E0,-9.396614075E0,-1.046859920E-1
4.442935068E0,-2.758326292E0,-9.391828537E0,-7.357929647E-2
4.452648558E0,-2.758326292E0,-9.403793335E0,-8.315058798E-2
4.462361266E0,-2.772683144E0,-9.422935486E0,-1.022931710E-1
4.472074860E0,-2.782254457E0,-9.458827972E0,-1.501496136E-1
4.481789183E0,-2.782254457E0,-9.463613510E0,-1.812563092E-1
4.491502672E0,-2.782254457E0,-9.468399048E0,-2.099701911E-1
4.501215381E0,-2.784647465E0,-9.456435204E0,-2.027917206E-1
4.510928974E0,-2.787040234E0,-9.451649666E0,-2.003988922E-1
4.520643245E0,-2.794218540E0,-9.437292099E0,-2.051845491E-1
4.530356735E0,-2.777468920E0,-9.425328255E0,-2.099701911E-1
4.540069495E0,-2.775076151E0,-9.410971642E0,-2.075773627E-1
4.549782985E0,-2.782254457E0,-9.432506561E0,-1.788634956E-1
4.559497360E0,-2.767897606E0,-9.463613510E0,-1.932204217E-1
4.569210849E0,-2.751147747E0,-9.485149384E0,-2.003988922E-1
4.578923558E0,-2.741576433E0,-9.485149384E0,-1.980060786E-1
4.588637151E0,-2.715255499E0,-9.501898766E0,-2.003988922E-1
4.598351422E0,-2.724826813E0,-9.487542152E0,-2.075773627E-1
4.608064912E0,-2.727219582E0,-9.482755661E0,-2.195414752E-1
4.617777672E0,-2.743969440E0,-9.470791817E0,-2.147558331E-1
4.627491162E0,-2.767897606E0,-9.432506561E0,-2.171486616E-1
4.637205537E0,-2.799004316E0,-9.415757179E0,-1.980060786E-1
4.646918974E0,-2.822932482E0,-9.406186104E0,-1.956132501E-1
4.656631735E0,-2.830111027E0,-9.401400566E0,-2.051845491E-1
4.666345224E0,-2.794218540E0,-9.422935486E0,-1.884347796E-1
4.676059599E0,-2.775076151E0,-9.420542717E0,-1.788634956E-1
4.685773089E0,-2.758326292E0,-9.422935486E0,-1.405783296E-1
4.695485797E0,-2.734398127E0,-9.430113792E0,-9.032905847E-2
4.705199391E0,-2.751147747E0,-9.434899330E0,-6.400800496E-2
4.714913714E0,-2.779861689E0,-9.430113792E0,-2.333002165E-2
4.724627151E0,-2.803789854E0,-9.432506561E0,-1.854437590E-2
4.734339860E0,-2.818146944E0,-9.446864128E0,-5.922235921E-2
4.744053453E0,-2.815753937E0,-9.454042435E0,-1.142572835E-1
4.753767776E0,-2.794218540E0,-9.444471359E0,-1.836491376E-1
4.763481214E0,-2.767897606E0,-9.449256897E0,-2.482553422E-1
4.773193974E0,-2.720041037E0,-9.473184586E0,-3.008974493E-1
4.782907568E0,-2.686541557E0,-9.492327690E0,-3.176472187E-1
4.792621839E0,-2.665006161E0,-9.499505997E0,-3.008974493E-1
4.802335328E0,-2.653042078E0,-9.497113228E0,-2.506481707E-1
4.812048037E0,-2.674577475E0,-9.499505997E0,-1.932204217E-1
4.821761631E0,-2.705684185E0,-9.487542152E0,-1.645065546E-1
4.831475953E0,-2.739183664E0,-9.463613510E0,-1.142572835E-1
4.841189391E0,-2.763111830E0,-9.434899330E0,-1.190429255E-1
4.850902151E0,-2.813361168E0,-9.427721024E0,-1.549352705E-1
4.860615641E0,-2.834896564E0,-9.413364410E0,-2.051845491E-1
4.870330016E0,-2.877967358E0,-9.389435768E0,-2.530409992E-1
4.880043506E0,-2.858824968E0,-9.384650230E0,-2.697907388E-1
4.889756214E0,-2.849253654E0,-9.387042999E0,-2.697907388E-1
4.899469808E0,-2.827718258E0,-9.410971642E0,-2.315055877E-1
4.909184078E0,-2.801397085E0,-9.430113792E0,-2.075773627E-1
4.918897568E0,-2.775076151E0,-9.439684868E0,-1.573280841E-1
4.928610276E0,-2.784647465E0,-9.466006279E0,-1.381855011E-1
4.938323870E0,-2.799004316E0,-9.468399048E0,-1.429711580E-1
4.948038193E0,-2.820539713E0,-9.463613510E0,-1.477568001E-1
4.957751631E0,-2.842075109E0,-9.463613510E0,-1.716850251E-1
4.967464339E0,-2.854039192E0,-9.456435204E0,-1.597209126E-1
4.977177933E0,-2.854039192E0,-9.434899330E0,-1.668993831E-1
4.986892256E0,-2.858824968E0,-9.415757179E0,-1.429711580E-1
4.996605693E0,-2.877967358E0,-9.399007797E0,-1.118644550E-1
5.006318453E0,-2.897109985E0,-9.365508080E0,-1.118644550E-1
5.016031943E0,-2.882753134E0,-9.365508080E0,-1.597209126E-1
5.025746318E0,-2.885145903E0,-9.384650230E0,-2.219343036E-1
5.035459756E0,-2.834896564E0,-9.389435768E0,-2.817548811E-1
5.045172516E0,-2.791825771E0,-9.420542717E0,-3.080759048E-1
5.054886006E0,-2.758326292E0,-9.454042435E0,-2.745763958E-1
5.064600381E0,-2.736790895E0,-9.477970123E0,-2.267199457E-1
5.074313870E0,-2.710469961E0,-9.494720459E0,-1.597209126E-1
5.084026578E0,-2.681756020E0,-9.501898766E0,-1.501496136E-1
5.093740068E0,-2.672184706E0,-9.497113228E0,-1.286142170E-1
5.103454443E0,-2.684148788E0,-9.477970123E0,-9.990034252E-2
5.113167933E0,-2.724826813E0,-9.439684868E0,-9.511470050E-2
5.122880641E0,-2.763111830E0,-9.420542717E0,-1.310070455E-1
5.132594235E0,-2.791825771E0,-9.396614075E0,-1.788634956E-1
5.142308506E0,-2.796611547E0,-9.410971642E0,-2.338984162E-1
5.152021995E0,-2.787040234E0,-9.434899330E0,-2.673979402E-1
5.161734703E0,-2.770290375E0,-9.454042435E0,-2.985046208E-1
5.171448297E0,-2.734398127E0,-9.468399048E0,-2.937189937E-1
5.181162568E0,-2.710469961E0,-9.482755661E0,-2.650051117E-1
5.190876058E0,-2.691327333E0,-9.468399048E0,-2.338984162E-1
5.200588766E0,-2.693720102E0,-9.454042435E0,-1.956132501E-1
5.210302360E0,-2.715255499E0,-9.439684868E0,-1.549352705E-1
5.220016631E0,-2.796611547E0,-9.434899330E0,-1.166501045E-1
5.229730120E0,-2.832503796E0,-9.408578873E0,-8.793623000E-2
5.239442828E0,-2.858824968E0,-9.406186104E0,-7.357929647E-2
5.249156422E0,-2.868396044E0,-9.408578873E0,-9.511470050E-2
5.258870745E0,-2.854039192E0,-9.415757179E0,-1.046859920E-1
5.268584183E0,-2.810968399E0,-9.425328255E0,-1.381855011E-1
5.278296943E0,-2.779861689E0,-9.437292099E0,-1.621137410E-1
5.288010433E0,-2.760719061E0,-9.446864128E0,-1.764706671E-1
5.297724808E0,-2.753540754E0,-9.454042435E0,-2.027917206E-1
5.307438245E0,-2.734398127E0,-9.458827972E0,-2.171486616E-1
5.317151006E0,-2.746362209E0,-9.451649666E0,-2.171486616E-1
5.326864495E0,-2.765504837E0,-9.437292099E0,-2.099701911E-1
5.336578870E0,-2.765504837E0,-9.413364410E0,-1.884347796E-1
5.346292308E0,-2.760719061E0,-9.418149948E0,-1.597209126E-1
5.356005068E0,-2.760719061E0,-9.427721024E0,-1.549352705E-1
5.365718558E0,-2.743969440E0,-9.454042435E0,-1.477568001E-1
5.375432933E0,-2.698505640E0,-9.489934921E0,-1.668993831E-1
5.385146370E0,-2.672184706E0,-9.499505997E0,-1.788634956E-1
5.394859131E0,-2.688934565E0,-9.506684303E0,-1.645065546E-1
5.404572620E0,-2.746362209E0,-9.521040916E0,-1.453639716E-1
5.414286995E0,-2.825325251E0,-9.499505997E0,-1.190429255E-1
5.424000433E0,-2.913859844E0,-9.456435204E0,-1.046859920E-1
5.433713193E0,-2.935694218E0,-9.406186104E0,-1.070788130E-1
5.443426683E0,-2.952444077E0,-9.351150513E0,-1.238285750E-1
5.453141058E0,-2.981158018E0,-9.341579437E0,-1.333998591E-1
5.462854547E0,-2.985943556E0,-9.384650230E0,-1.645065546E-1
5.472567256E0,-2.957229614E0,-9.458827972E0,-1.860419661E-1
5.482280745E0,-2.916252613E0,-9.504291534E0,-2.051845491E-1
5.491995120E0,-2.880360365E0,-9.489934921E0,-2.003988922E-1
5.501708610E0,-2.873181820E0,-9.444471359E0,-1.692921966E-1
5.511421318E0,-2.870789051E0,-9.422935486E0,-1.549352705E-1
5.521134912E0,-2.875574589E0,-9.399007797E0,-1.333998591E-1
5.530849183E0,-2.861217737E0,-9.422935486E0,-1.333998591E-1
5.540562672E0,-2.856431961E0,-9.420542717E0,-9.990034252E-2
5.550275381E0,-2.837289333E0,-9.420542717E0,-8.793623000E-2
5.559988974E0,-2.808575630E0,-9.425328255E0,-6.879365444E-2
5.569703245E0,-2.779861689E0,-9.449256897E0,-8.075776696E-2
5.579416735E0,-2.741576433E0,-9.468399048E0,-8.793623000E-2
5.589129443E0,-2.700898647E0,-9.477970123E0,-6.879365444E-2
5.598843037E0,-2.676970243E0,-9.501898766E0,-7.597211748E-2
5.608557360E0,-2.679363251E0,-9.477970123E0,-7.597211748E-2
5.618270797E0,-2.667398930E0,-9.466006279E0,-9.750752151E-2
5.627983558E0,-2.681756020E0,-9.463613510E0,-1.118644550E-1
5.637697047E0,-2.705684185E0,-9.451649666E0,-1.333998591E-1
5.647411422E0,-2.724826813E0,-9.458827972E0,-1.788634956E-1
5.657124860E0,-2.729612350E0,-9.473184586E0,-1.956132501E-1
5.666837620E0,-2.748754978E0,-9.480362892E0,-2.147558331E-1
5.676551110E0,-2.755933523E0,-9.485149384E0,-2.147558331E-1
5.686265485E0,-2.755933523E0,-9.466006279E0,-1.812563092E-1
5.695978922E0,-2.751147747E0,-9.468399048E0,-1.692921966E-1
5.705691683E0,-2.753540754E0,-9.451649666E0,-1.166501045E-1
5.715405172E0,-2.758326292E0,-9.446864128E0,-7.357929647E-2
5.725119547E0,-2.772683144E0,-9.439684868E0,-3.290131316E-2
5.734833037E0,-2.782254457E0,-9.432506561E0,5.982056609E-4
5.744545745E0,-2.799004316E0,-9.415757179E0,2.991028363E-3
5.754259339E0,-2.796611547E0,-9.439684868E0,-8.973085321E-3
5.763973610E0,-2.789433002E0,-9.463613510E0,-1.615155302E-2
5.773687099E0,-2.787040234E0,-9.451649666E0,-4.007977992E-2
5.783399808E0,-2.806182861E0,-9.446864128E0,-6.161518395E-2
5.793113401E0,-2.791825771E0,-9.451649666E0,-7.357929647E-2
5.802827672E0,-2.813361168E0,-9.463613510E0,-8.075776696E-2
5.812541162E0,-2.815753937E0,-9.442078590E0,-9.990034252E-2
5.822253870E0,-2.796611547E0,-9.442078590E0,-9.272187948E-2
5.831967464E0,-2.787040234E0,-9.420542717E0,-7.836493850E-2
5.841681787E0,-2.775076151E0,-9.430113792E0,-9.272187948E-2
5.851395224E0,-2.743969440E0,-9.439684868E0,-9.032905847E-2
5.861107985E0,-2.739183664E0,-9.439684868E0,-8.793623000E-2
5.870821474E0,-2.746362209E0,-9.446864128E0,-6.640082598E-2
5.880535849E0,-2.741576433E0,-9.456435204E0,-5.204389244E-2
5.890249339E0,-2.741576433E0,-9.477970123E0,-4.725824669E-2
5.899962047E0,-2.743969440E0,-9.482755661E0,-3.768695518E-2
5.909675641E0,-2.753540754E0,-9.487542152E0,-4.965107143E-2
5.919389912E0,-2.760719061E0,-9.475577354E0,-5.922235921E-2
5.929103401E0,-2.760719061E0,-9.473184586E0,-6.161518395E-2
5.938816110E0,-2.782254457E0,-9.434899330E0,-6.161518395E-2
5.948529703E0,-2.796611547E0,-9.427721024E0,-6.161518395E-2
5.958243974E0,-2.782254457E0,-9.446864128E0,-5.922235921E-2
5.967957464E0,-2.775076151E0,-9.470791817E0,-7.118647546E-2
5.977670172E0,-2.758326292E0,-9.475577354E0,-7.836493850E-2
5.987383766E0,-2.720041037E0,-9.456435204E0,-8.075776696E-2
5.997098089E0,-2.717648268E0,-9.422935486E0,-8.793623000E-2
6.006811526E0,-2.746362209E0,-9.430113792E0,-1.142572835E-1
6.016524287E0,-2.751147747E0,-9.422935486E0,-1.286142170E-1
6.026237881E0,-2.772683144E0,-9.434899330E0,-1.262213886E-1
6.035952151E0,-2.806182861E0,-9.437292099E0,-7.597211748E-2
6.045665641E0,-2.794218540E0,-9.439684868E0,-5.682953820E-2
6.055378349E0,-2.794218540E0,-9.449256897E0,-4.007977992E-2
6.065091943E0,-2.787040234E0,-9.454042435E0,-3.529413417E-2
6.074806266E0,-2.789433002E0,-9.468399048E0,-4.486542568E-2
6.084519703E0,-2.794218540E0,-9.456435204E0,-7.357929647E-2
6.094232464E0,-2.803789854E0,-9.477970123E0,-8.554340899E-2
6.103945953E0,-2.810968399E0,-9.458827972E0,-1.118644550E-1
6.113660328E0,-2.822932482E0,-9.444471359E0,-1.238285750E-1
6.123373818E0,-2.837289333E0,-9.432506561E0,-1.453639716E-1
6.133086526E0,-2.827718258E0,-9.432506561E0,-1.573280841E-1
6.142800120E0,-2.818146944E0,-9.439684868E0,-1.668993831E-1
6.152514391E0,-2.784647465E0,-9.456435204E0,-1.525424421E-1
6.162227881E0,-2.763111830E0,-9.466006279E0,-1.477568001E-1
6.171940589E0,-2.758326292E0,-9.446864128E0,-1.381855011E-1
6.181654183E0,-2.748754978E0,-9.454042435E0,-1.022931710E-1
6.191368506E0,-2.758326292E0,-9.461220741E0,-7.836493850E-2
6.201081943E0,-2.772683144E0,-9.451649666E0,-5.682953820E-2
6.210794703E0,-2.808575630E0,-9.427721024E0,-3.050848842E-2
6.220508193E0,-2.851646423E0,-9.389435768E0,-2.333002165E-2
6.230222568E0,-2.870789051E0,-9.375079155E0,-3.529413417E-2
6.239936058E0,-2.866003275E0,-9.387042999E0,-6.879365444E-2
6.249648766E0,-2.837289333E0,-9.394221306E0,-1.046859920E-1
6.259362360E0,-2.810968399E0,-9.406186104E0,-1.166501045E-1
6.269076683E0,-2.760719061E0,-9.418149948E0,-1.453639716E-1
6.278790120E0,-2.746362209E0,-9.439684868E0,-1.573280841E-1
6.288502881E0,-2.753540754E0,-9.451649666E0,-1.645065546E-1
6.298216370E0,-2.760719061E0,-9.463613510E0,-1.573280841E-1
6.307930745E0,-2.767897606E0,-9.458827972E0,-1.549352705E-1
6.317644235E0,-2.779861689E0,-9.473184586E0,-1.501496136E-1
6.327356943E0,-2.794218540E0,-9.509077072E0,-1.381855011E-1
6.337070537E0,-2.815753937E0,-9.518648148E0,-1.405783296E-1
6.346784860E0,-2.858824968E0,-9.504291534E0,-1.525424421E-1
6.356498297E0,-2.904288530E0,-9.475577354E0,-1.573280841E-1
6.366211058E0,-2.928216696E0,-9.444471359E0,-1.788634956E-1
6.375924547E0,-2.921038151E0,-9.410971642E0,-1.836491376E-1
6.385638922E0,-2.913859844E0,-9.384650230E0,-2.027917206E-1
6.395352412E0,-2.882753134E0,-9.379864693E0,-1.740778536E-1
6.405065120E0,-2.856431961E0,-9.391828537E0,-1.022931710E-1
6.414778714E0,-2.839682341E0,-9.396614075E0,-3.529413417E-2
6.424493037E0,-2.839682341E0,-9.422935486E0,2.452643216E-2
6.434206474E0,-2.825325251E0,-9.444471359E0,4.845465720E-2
6.443919235E0,-2.820539713E0,-9.446864128E0,5.563312769E-2
6.453632724E0,-2.839682341E0,-9.446864128E0,2.931207791E-2
6.463347099E0,-2.849253654E0,-9.413364410E0,2.452643216E-2
6.473060589E0,-2.846860647E0,-9.391828537E0,-1.794616925E-3
6.482773297E0,-2.796611547E0,-9.365508080E0,-2.333002165E-2
6.492486891E0,-2.772683144E0,-9.394221306E0,-5.682953820E-2
6.502201214E0,-2.760719061E0,-9.413364410E0,-8.793623000E-2
6.511914651E0,-2.734398127E0,-9.456435204E0,-1.238285750E-1
6.521627412E0,-2.715255499E0,-9.482755661E0,-1.262213886E-1
6.531340901E0,-2.727219582E0,-9.499505997E0,-1.357926875E-1
6.541055276E0,-2.720041037E0,-9.511469841E0,-1.070788130E-1
6.550768766E0,-2.734398127E0,-9.489934921E0,-9.750752151E-2
6.560481474E0,-2.775076151E0,-9.477970123E0,-9.032905847E-2
6.570195068E0,-2.820539713E0,-9.461220741E0,-8.554340899E-2
6.579909391E0,-2.861217737E0,-9.454042435E0,-9.032905847E-2
6.589622828E0,-2.870789051E0,-9.439684868E0,-1.190429255E-1
6.599335589E0,-2.873181820E0,-9.432506561E0,-1.477568001E-1
6.609049078E0,-2.861217737E0,-9.434899330E0,-1.525424421E-1
6.618763453E0,-2.825325251E0,-9.434899330E0,-1.333998591E-1
6.628476943E0,-2.765504837E0,-9.422935486E0,-9.990034252E-2
6.638189651E0,-2.732005358E0,-9.408578873E0,-5.682953820E-2
6.647903245E0,-2.693720102E0,-9.420542717E0,-1.375873014E-2
6.657617568E0,-2.710469961E0,-9.432506561E0,4.127619043E-2
6.667331006E0,-2.746362209E0,-9.446864128E0,8.673982322E-2
6.677043766E0,-2.796611547E0,-9.444471359E0,9.631111473E-2
6.686757256E0,-2.837289333E0,-9.437292099E0,6.520441920E-2
6.696471631E0,-2.875574589E0,-9.437292099E0,2.691925503E-2
6.706185120E0,-2.880360365E0,-9.427721024E0,-2.333002165E-2
6.715897828E0,-2.873181820E0,-9.437292099E0,-6.879365444E-2
6.725611422E0,-2.854039192E0,-9.430113792E0,-9.750752151E-2
6.735325745E0,-2.854039192E0,-9.422935486E0,-9.990034252E-2
6.745039183E0,-2.834896564E0,-9.427721024E0,-1.166501045E-1
6.754751943E0,-2.810968399E0,-9.434899330E0,-1.022931710E-1
6.764465433E0,-2.777468920E0,-9.446864128E0,-1.142572835E-1
6.774179808E0,-2.782254457E0,-9.439684868E0,-1.142572835E-1
6.783893297E0,-2.782254457E0,-9.449256897E0,-9.750752151E-2
6.793606006E0,-2.775076151E0,-9.458827972E0,-8.554340899E-2
6.803319599E0,-2.787040234E0,-9.454042435E0,-7.597211748E-2
6.813033922E0,-2.777468920E0,-9.461220741E0,-4.965107143E-2
6.822747412E0,-2.784647465E0,-9.454042435E0,-4.965107143E-2
6.832460120E0,-2.803789854E0,-9.456435204E0,-4.247260094E-2
6.842173714E0,-2.796611547E0,-9.456435204E0,-4.486542568E-2
6.851887985E0,-2.806182861E0,-9.458827972E0,-6.879365444E-2
6.861601474E0,-2.806182861E0,-9.451649666E0,-9.272187948E-2
6.871314183E0,-2.801397085E0,-9.439684868E0,-9.990034252E-2
6.881027776E0,-2.796611547E0,-9.432506561E0,-1.333998591E-1
6.890742099E0,-2.810968399E0,-9.442078590E0,-1.333998591E-1
6.900455589E0,-2.813361168E0,-9.442078590E0,-1.142572835E-1
6.910168297E0,-2.808575630E0,-9.449256897E0,-8.554340899E-2
6.919881891E0,-2.813361168E0,-9.458827972E0,-6.879365444E-2
6.929596162E0,-2.834896564E0,-9.451649666E0,-4.725824669E-2
6.939309651E0,-2.822932482E0,-9.425328255E0,-2.572284266E-2
6.949022412E0,-2.822932482E0,-9.399007797E0,-8.973085321E-3
6.958735901E0,-2.825325251E0,-9.375079155E0,-1.375873014E-2
6.968450276E0,-2.820539713E0,-9.384650230E0,-8.973085321E-3
6.978163766E0,-2.813361168E0,-9.396614075E0,-4.187439568E-3
6.987876474E0,-2.810968399E0,-9.410971642E0,5.383851007E-3
6.997590068E0,-2.794218540E0,-9.442078590E0,2.991028363E-3
7.007304339E0,-2.767897606E0,-9.458827972E0,-2.811566554E-2
7.017017828E0,-2.753540754E0,-9.466006279E0,-5.922235921E-2
7.026730589E0,-2.753540754E0,-9.470791817E0,-9.990034252E-2
7.036444078E0,-2.758326292E0,-9.461220741E0,-1.262213886E-1
7.046158453E0,-2.782254457E0,-9.456435204E0,-1.381855011E-1
7.055871943E0,-2.810968399E0,-9.451649666E0,-1.477568001E-1
7.065584651E0,-2.834896564E0,-9.458827972E0,-1.190429255E-1
7.075298245E0,-2.849253654E0,-9.461220741E0,-1.142572835E-1
7.085012568E0,-2.834896564E0,-9.454042435E0,-1.046859920E-1
7.094726006E0,-2.822932482E0,-9.446864128E0,-9.750752151E-2
7.104438766E0,-2.813361168E0,-9.427721024E0,-7.836493850E-2
7.114152256E0,-2.796611547E0,-9.418149948E0,-2.572284266E-2
7.123866631E0,-2.796611547E0,-9.413364410E0,1.256231871E-2
7.133580120E0,-2.779861689E0,-9.415757179E0,4.366901144E-2
7.143292828E0,-2.777468920E0,-9.420542717E0,4.366901144E-2
7.153006422E0,-2.782254457E0,-9.427721024E0,3.649054468E-2
7.162720745E0,-2.818146944E0,-9.434899330E0,-4.187439568E-3
7.172434183E0,-2.830111027E0,-9.422935486E0,-4.486542568E-2
7.182146943E0,-2.844467878E0,-9.422935486E0,-6.879365444E-2
7.191860433E0,-2.854039192E0,-9.415757179E0,-1.238285750E-1
7.201574808E0,-2.837289333E0,-9.420542717E0,-1.501496136E-1
7.211288297E0,-2.806182861E0,-9.425328255E0,-1.597209126E-1
7.221001006E0,-2.801397085E0,-9.444471359E0,-1.118644550E-1
7.230714599E0,-2.796611547E0,-9.442078590E0,-9.750752151E-2
7.240428922E0,-2.791825771E0,-9.451649666E0,-8.554340899E-2
7.250142360E0,-2.803789854E0,-9.449256897E0,-8.315058798E-2
7.259855120E0,-2.803789854E0,-9.456435204E0,-8.554340899E-2
7.269568610E0,-2.801397085E0,-9.451649666E0,-9.032905847E-2
7.279282985E0,-2.827718258E0,-9.437292099E0,-7.118647546E-2
7.288996474E0,-2.849253654E0,-9.418149948E0,-3.768695518E-2
7.298709183E0,-2.873181820E0,-9.410971642E0,-3.050848842E-2
7.308422776E0,-2.861217737E0,-9.420542717E0,-1.136590727E-2
7.318137099E0,-2.861217737E0,-9.451649666E0,-1.375873014E-2
7.327850537E0,-2.856431961E0,-9.449256897E0,-3.290131316E-2
7.337563297E0,-2.858824968E0,-9.468399048E0,-5.922235921E-2
7.347276891E0,-2.854039192E0,-9.470791817E0,-8.315058798E-2
7.356991162E0,-2.863610506E0,-9.470791817E0,-1.094716340E-1
7.366704651E0,-2.882753134E0,-9.439684868E0,-1.238285750E-1
7.376417360E0,-2.889931440E0,-9.439684868E0,-1.214357466E-1
7.386130953E0,-2.875574589E0,-9.425328255E0,-9.272187948E-2
7.395845276E0,-2.863610506E0,-9.403793335E0,-7.118647546E-2
7.405558766E0,-2.834896564E0,-9.394221306E0,-4.965107143E-2
7.415271474E0,-2.799004316E0,-9.389435768E0,-1.615155302E-2
7.424985068E0,-2.779861689E0,-9.394221306E0,2.991028363E-3
7.434699339E0,-2.777468920E0,-9.410971642E0,-1.794616925E-3
7.444412828E0,-2.763111830E0,-9.425328255E0,2.213360928E-2
7.454125589E0,-2.794218540E0,-9.446864128E0,7.776673418E-3
7.463839078E0,-2.782254457E0,-9.470791817E0,2.991028363E-3
7.473553453E0,-2.775076151E0,-9.473184586E0,-1.854437590E-2
7.483266943E0,-2.767897606E0,-9.477970123E0,-4.486542568E-2
7.492979651E0,-2.765504837E0,-9.466006279E0,-5.922235921E-2
7.502693245E0,-2.743969440E0,-9.451649666E0,-6.879365444E-2
7.512407568E0,-2.732005358E0,-9.444471359E0,-9.272187948E-2
7.522121006E0,-2.753540754E0,-9.449256897E0,-1.022931710E-1
7.531833766E0,-2.767897606E0,-9.456435204E0,-1.070788130E-1
7.541547256E0,-2.777468920E0,-9.449256897E0,-9.511470050E-2
7.551261631E0,-2.763111830E0,-9.449256897E0,-9.032905847E-2
7.560975120E0,-2.763111830E0,-9.446864128E0,-7.836493850E-2
7.570687828E0,-2.751147747E0,-9.446864128E0,-7.357929647E-2
7.580401422E0,-2.753540754E0,-9.466006279E0,-5.204389244E-2
7.590115745E0,-2.770290375E0,-9.451649666E0,-1.136590727E-2
7.599829183E0,-2.791825771E0,-9.432506561E0,2.452643216E-2
7.609541943E0,-2.801397085E0,-9.434899330E0,5.802594870E-2
7.619255433E0,-2.813361168E0,-9.406186104E0,8.434699476E-2
7.628969808E0,-2.861217737E0,-9.413364410E0,1.010967568E-1
7.638683297E0,-2.885145903E0,-9.418149948E0,1.034895778E-1
7.648396006E0,-2.901895761E0,-9.422935486E0,6.999006122E-2
7.658109599E0,-2.897109985E0,-9.415757179E0,2.213360928E-2
7.667823922E0,-2.885145903E0,-9.406186104E0,-2.572284266E-2
7.677537360E0,-2.877967358E0,-9.406186104E0,-7.118647546E-2
7.687250120E0,-2.858824968E0,-9.415757179E0,-1.142572835E-1
7.696963610E0,-2.851646423E0,-9.439684868E0,-1.214357466E-1
7.706677985E0,-2.851646423E0,-9.449256897E0,-1.094716340E-1
7.716391474E0,-2.851646423E0,-9.437292099E0,-9.750752151E-2
7.726104183E0,-2.868396044E0,-9.403793335E0,-9.511470050E-2
7.735817776E0,-2.889931440E0,-9.410971642E0,-9.750752151E-2
7.745532099E0,-2.894717216E0,-9.410971642E0,-8.793623000E-2
7.755245537E0,-2.892324448E0,-9.418149948E0,-4.725824669E-2
7.764958297E0,-2.889931440E0,-9.430113792E0,1.016949583E-2
7.774671891E0,-2.866003275E0,-9.458827972E0,2.931207791E-2
7.784386162E0,-2.820539713E0,-9.466006279E0,3.409772366E-2
7.794099651E0,-2.789433002E0,-9.494720459E0,1.974078640E-2
7.803812412E0,-2.763111830E0,-9.492327690E0,-4.187439568E-3
7.813525901E0,-2.765504837E0,-9.477970123E0,-2.093719877E-2
7.823240276E0,-2.784647465E0,-9.454042435E0,-3.768695518E-2
7.832953766E0,-2.796611547E0,-9.439684868E0,-4.247260094E-2
7.842666474E0,-2.813361168E0,-9.415757179E0,-3.050848842E-2
7.852380068E0,-2.832503796E0,-9.408578873E0,-3.529413417E-2
7.862094391E0,-2.808575630E0,-9.422935486E0,-5.443671346E-2
7.871807828E0,-2.791825771E0,-9.427721024E0,-8.793623000E-2
7.881520589E0,-2.760719061E0,-9.420542717E0,-9.990034252E-2
7.891234078E0,-2.758326292E0,-9.420542717E0,-1.022931710E-1
7.900948453E0,-2.765504837E0,-9.406186104E0,-9.272187948E-2
7.910661943E0,-2.777468920E0,-9.418149948E0,-5.682953820E-2
7.920374651E0,-2.801397085E0,-9.427721024E0,-2.093719877E-2
7.930088245E0,-2.799004316E0,-9.432506561E0,1.495514158E-2
7.939802568E0,-2.799004316E0,-9.439684868E0,3.170489892E-2
7.949516006E0,-2.820539713E0,-9.446864128E0,5.084748194E-2
7.959228766E0,-2.822932482E0,-9.456435204E0,4.127619043E-2
7.968942360E0,-2.830111027E0,-9.470791817E0,1.495514158E-2
7.978656631E0,-2.834896564E0,-9.461220741E0,-8.973085321E-3
7.988370120E0,-2.858824968E0,-9.449256897E0,-3.768695518E-2
7.998082881E0,-2.861217737E0,-9.442078590E0,-4.725824669E-2
8.007796370E0,-2.832503796E0,-9.439684868E0,-8.075776696E-2
8.017510745E0,-2.834896564E0,-9.444471359E0,-9.990034252E-2
8.027224235E0,-2.806182861E0,-9.451649666E0,-1.214357466E-1
8.036936943E0,-2.815753937E0,-9.442078590E0,-1.262213886E-1
8.046650537E0,-2.810968399E0,-9.427721024E0,-8.554340899E-2
8.056364860E0,-2.815753937E0,-9.432506561E0,-4.007977992E-2
8.066078297E0,-2.803789854E0,-9.449256897E0,-1.794616925E-3
8.075791058E0,-2.777468920E0,-9.451649666E0,1.016949583E-2
8.085504547E0,-2.758326292E0,-9.439684868E0,7.776673418E-3
8.095218922E0,-2.746362209E0,-9.442078590E0,2.213360928E-2
8.104932412E0,-2.763111830E0,-9.444471359E0,4.366901144E-2
8.114645120E0,-2.796611547E0,-9.458827972E0,7.716853172E-2
8.124358714E0,-2.787040234E0,-9.466006279E0,1.058823988E-1
8.134073037E0,-2.810968399E0,-9.466006279E0,1.106680483E-1
8.143786526E0,-2.806182861E0,-9.437292099E0,1.154536903E-1
8.153499235E0,-2.820539713E0,-9.415757179E0,8.195417374E-2
8.163212828E0,-2.822932482E0,-9.420542717E0,5.802594870E-2
8.172927099E0,-2.827718258E0,-9.418149948E0,1.256231871E-2
8.182640589E0,-2.830111027E0,-9.434899330E0,-4.007977992E-2
8.192353349E0,-2.822932482E0,-9.432506561E0,-6.640082598E-2
8.202066839E0,-2.803789854E0,-9.449256897E0,-9.750752151E-2
8.211781214E0,-2.796611547E0,-9.458827972E0,-1.070788130E-1
8.221494703E0,-2.770290375E0,-9.454042435E0,-1.166501045E-1
8.231207412E0,-2.760719061E0,-9.463613510E0,-9.272187948E-2
8.240921006E0,-2.751147747E0,-9.473184586E0,-6.161518395E-2
8.250635328E0,-2.755933523E0,-9.473184586E0,-3.290131316E-2
8.260348766E0,-2.777468920E0,-9.463613510E0,1.016949583E-2
8.270061526E0,-2.810968399E0,-9.449256897E0,3.409772366E-2
8.279775120E0,-2.806182861E0,-9.456435204E0,5.802594870E-2
8.289489391E0,-2.813361168E0,-9.458827972E0,5.802594870E-2
8.299202881E0,-2.815753937E0,-9.466006279E0,5.563312769E-2
8.308915641E0,-2.825325251E0,-9.446864128E0,6.999006122E-2
8.318629131E0,-2.818146944E0,-9.434899330E0,7.238288224E-2
8.328343506E0,-2.842075109E0,-9.430113792E0,6.759724021E-2
8.338056995E0,-2.849253654E0,-9.422935486E0,4.127619043E-2
8.347769703E0,-2.837289333E0,-9.427721024E0,1.016949583E-2
8.357483297E0,-2.822932482E0,-9.430113792E0,-1.136590727E-2
8.367197620E0,-2.813361168E0,-9.406186104E0,-8.973085321E-3
8.376911058E0,-2.808575630E0,-9.382257462E0,7.776673418E-3
8.386623818E0,-2.806182861E0,-9.370293617E0,2.931207791E-2
8.396337308E0,-2.801397085E0,-9.389435768E0,4.366901144E-2
8.406051683E0,-2.801397085E0,-9.399007797E0,4.127619043E-2
8.415765172E0,-2.787040234E0,-9.446864128E0,2.691925503E-2
8.425477881E0,-2.794218540E0,-9.473184586E0,2.931207791E-2
8.435191474E0,-2.784647465E0,-9.501898766E0,2.931207791E-2
8.444905797E0,-2.763111830E0,-9.509077072E0,3.888336942E-2
8.454619235E0,-2.770290375E0,-9.487542152E0,1.974078640E-2
8.464331995E0,-2.775076151E0,-9.477970123E0,2.213360928E-2
8.474045589E0,-2.794218540E0,-9.458827972E0,1.256231871E-2
8.483759912E0,-2.832503796E0,-9.432506561E0,-1.794616925E-3
8.493473349E0,-2.861217737E0,-9.422935486E0,-8.973085321E-3
8.503186110E0,-2.875574589E0,-9.415757179E0,-6.580262445E-3
8.512899599E0,-2.873181820E0,-9.420542717E0,-3.529413417E-2
8.522613974E0,-2.858824968E0,-9.410971642E0,-3.050848842E-2
8.532327464E0,-2.825325251E0,-9.420542717E0,-3.290131316E-2
8.542040172E0,-2.820539713E0,-9.420542717E0,-8.973085321E-3
8.551753766E0,-2.810968399E0,-9.415757179E0,-6.580262445E-3
8.561468089E0,-2.827718258E0,-9.425328255E0,1.974078640E-2
8.571181526E0,-2.851646423E0,-9.418149948E0,2.452643216E-2
8.580894287E0,-2.863610506E0,-9.427721024E0,4.366901144E-2
8.590607881E0,-2.873181820E0,-9.434899330E0,4.127619043E-2
8.600322151E0,-2.887538671E0,-9.437292099E0,5.084748194E-2
8.610035641E0,-2.875574589E0,-9.434899330E0,4.127619043E-2
8.619748349E0,-2.839682341E0,-9.420542717E0,3.170489892E-2
8.629461943E0,-2.832503796E0,-9.418149948E0,2.452643216E-2
8.639176266E0,-2.818146944E0,-9.418149948E0,3.409772366E-2
8.648889756E0,-2.822932482E0,-9.437292099E0,3.888336942E-2
8.658602464E0,-2.844467878E0,-9.442078590E0,2.931207791E-2
8.668316058E0,-2.849253654E0,-9.454042435E0,3.170489892E-2
8.678030328E0,-2.854039192E0,-9.442078590E0,2.213360928E-2
8.687743818E0,-2.842075109E0,-9.432506561E0,1.256231871E-2
8.697456578E0,-2.834896564E0,-9.430113792E0,-4.187439568E-3
8.707170068E0,-2.832503796E0,-9.449256897E0,-1.615155302E-2
8.716884443E0,-2.844467878E0,-9.432506561E0,-3.768695518E-2
8.726597933E0,-2.863610506E0,-9.432506561E0,-4.247260094E-2
8.736310641E0,-2.858824968E0,-9.430113792E0,-4.725824669E-2
8.746024235E0,-2.851646423E0,-9.425328255E0,-4.007977992E-2
8.755738558E0,-2.858824968E0,-9.420542717E0,-4.965107143E-2
8.765451995E0,-2.837289333E0,-9.425328255E0,-4.965107143E-2
8.775164756E0,-2.799004316E0,-9.430113792E0,-5.682953820E-2
8.784878245E0,-2.753540754E0,-9.442078590E0,-5.204389244E-2
8.794592620E0,-2.753540754E0,-9.430113792E0,-3.529413417E-2
8.804306110E0,-2.755933523E0,-9.408578873E0,-6.580262445E-3
8.814018818E0,-2.772683144E0,-9.410971642E0,1.495514158E-2
8.823732412E0,-2.806182861E0,-9.415757179E0,1.974078640E-2
8.833446735E0,-2.856431961E0,-9.432506561E0,2.213360928E-2
8.843160172E0,-2.880360365E0,-9.444471359E0,2.991028363E-3
8.852872933E0,-2.880360365E0,-9.461220741E0,-2.572284266E-2
8.862586422E0,-2.858824968E0,-9.454042435E0,-3.529413417E-2
8.872300797E0,-2.866003275E0,-9.473184586E0,-4.007977992E-2
8.882014287E0,-2.887538671E0,-9.458827972E0,-6.161518395E-2
8.891726995E0,-2.892324448E0,-9.427721024E0,-8.554340899E-2
8.901440589E0,-2.904288530E0,-9.384650230E0,-6.400800496E-2
8.911154912E0,-2.913859844E0,-9.360722542E0,-4.247260094E-2
8.920868349E0,-2.887538671E0,-9.387042999E0,-3.529413417E-2
8.930581110E0,-2.842075109E0,-9.415757179E0,-2.811566554E-2
8.940294599E0,-2.799004316E0,-9.437292099E0,-2.093719877E-2
8.950008974E0,-2.751147747E0,-9.432506561E0,-1.375873014E-2
8.959722464E0,-2.717648268E0,-9.449256897E0,-8.973085321E-3
8.969435172E0,-2.732005358E0,-9.461220741E0,5.383851007E-3
8.979148766E0,-2.724826813E0,-9.468399048E0,7.776673418E-3
8.988863089E0,-2.753540754E0,-9.470791817E0,1.016949583E-2
8.998576526E0,-2.789433002E0,-9.473184586E0,-8.973085321E-3
9.008289287E0,-2.794218540E0,-9.456435204E0,-1.854437590E-2
9.018002776E0,-2.813361168E0,-9.444471359E0,-4.725824669E-2
9.027717151E0,-2.827718258E0,-9.439684868E0,-8.554340899E-2
9.037430641E0,-2.803789854E0,-9.437292099E0,-1.262213886E-1
9.047143349E0,-2.787040234E0,-9.456435204E0,-1.453639716E-1
9.056856943E0,-2.782254457E0,-9.446864128E0,-1.549352705E-1
9.066571266E0,-2.758326292E0,-9.439684868E0,-1.238285750E-1
9.076284703E0,-2.758326292E0,-9.425328255E0,-8.793623000E-2
9.085997464E0,-2.755933523E0,-9.425328255E0,-4.965107143E-2
9.095710953E0,-2.751147747E0,-9.449256897E0,-2.811566554E-2
9.105425328E0,-2.748754978E0,-9.461220741E0,-2.811566554E-2
9.115138818E0,-2.746362209E0,-9.454042435E0,-4.187439568E-3
9.124851526E0,-2.758326292E0,-9.458827972E0,5.982056609E-4
9.134565120E0,-2.806182861E0,-9.444471359E0,2.991028363E-3
9.144279391E0,-2.837289333E0,-9.418149948E0,-1.794616925E-3
9.153992881E0,-2.858824968E0,-9.406186104E0,-1.794616925E-3
9.163705589E0,-2.873181820E0,-9.401400566E0,-1.615155302E-2
9.173419183E0,-2.849253654E0,-9.413364410E0,-1.136590727E-2
9.183133506E0,-2.837289333E0,-9.430113792E0,1.495514158E-2
9.192846943E0,-2.818146944E0,-9.430113792E0,-4.187439568E-3
9.202559703E0,-2.801397085E0,-9.430113792E0,-2.333002165E-2
9.212273297E0,-2.784647465E0,-9.444471359E0,-3.050848842E-2
9.221987568E0,-2.782254457E0,-9.444471359E0,-4.486542568E-2
9.231701058E0,-2.763111830E0,-9.439684868E0,-6.400800496E-2
9.241413766E0,-2.777468920E0,-9.432506561E0,-6.400800496E-2
9.251127360E0,-2.791825771E0,-9.427721024E0,-5.443671346E-2
9.260841683E0,-2.794218540E0,-9.432506561E0,-5.922235921E-2
9.270555120E0,-2.815753937E0,-9.422935486E0,-7.836493850E-2
9.280267881E0,-2.806182861E0,-9.432506561E0,-7.118647546E-2
9.289981370E0,-2.789433002E0,-9.449256897E0,-5.443671346E-2
9.299695745E0,-2.794218540E0,-9.449256897E0,-4.486542568E-2
9.309409235E0,-2.794218540E0,-9.451649666E0,-3.768695518E-2
9.319121943E0,-2.779861689E0,-9.420542717E0,-3.050848842E-2
9.328835537E0,-2.787040234E0,-9.446864128E0,-2.093719877E-2
9.338549860E0,-2.772683144E0,-9.451649666E0,-3.050848842E-2
9.348263297E0,-2.755933523E0,-9.458827972E0,-5.922235921E-2
9.357976058E0,-2.755933523E0,-9.480362892E0,-7.118647546E-2
9.367689547E0,-2.784647465E0,-9.468399048E0,-8.315058798E-2
9.377403922E0,-2.830111027E0,-9.449256897E0,-5.682953820E-2
9.387117360E0,-2.858824968E0,-9.456435204E0,-4.725824669E-2
9.396830120E0,-2.882753134E0,-9.420542717E0,-2.093719877E-2
9.406543610E0,-2.906681299E0,-9.415757179E0,-6.580262445E-3
9.416257985E0,-2.909074068E0,-9.396614075E0,-2.093719877E-2
9.425971474E0,-2.894717216E0,-9.394221306E0,-8.973085321E-3
9.435684183E0,-2.882753134E0,-9.387042999E0,1.016949583E-2
9.445397776E0,-2.832503796E0,-9.382257462E0,2.213360928E-2
9.455112047E0,-2.803789854E0,-9.379864693E0,3.409772366E-2
9.464825537E0,-2.772683144E0,-9.406186104E0,1.016949583E-2
9.474538245E0,-2.753540754E0,-9.444471359E0,-1.375873014E-2
9.484251839E0,-2.748754978E0,-9.456435204E0,-3.529413417E-2
9.493966162E0,-2.767897606E0,-9.454042435E0,-6.640082598E-2
9.503679599E0,-2.784647465E0,-9.456435204E0,-9.511470050E-2
9.513392360E0,-2.784647465E0,-9.461220741E0,-1.310070455E-1
9.523105849E0,-2.775076151E0,-9.468399048E0,-1.645065546E-1
9.532820224E0,-2.755933523E0,-9.480362892E0,-1.716850251E-1
9.542533714E0,-2.743969440E0,-9.487542152E0,-1.668993831E-1
9.552246422E0,-2.758326292E0,-9.501898766E0,-1.286142170E-1
9.561960016E0,-2.729612350E0,-9.489934921E0,-1.022931710E-1
9.571674287E0,-2.732005358E0,-9.470791817E0,-6.161518395E-2
9.581387776E0,-2.732005358E0,-9.456435204E0,-5.443671346E-2
9.591100485E0,-2.732005358E0,-9.446864128E0,-2.811566554E-2
9.600814078E0,-2.753540754E0,-9.432506561E0,-2.093719877E-2
9.610528401E0,-2.767897606E0,-9.422935486E0,-1.615155302E-2
9.620241839E0,-2.799004316E0,-9.420542717E0,1.495514158E-2
9.629954599E0,-2.830111027E0,-9.418149948E0,5.084748194E-2
9.639668089E0,-2.868396044E0,-9.379864693E0,7.477571070E-2
9.649382464E0,-2.877967358E0,-9.379864693E0,7.956135273E-2
9.659095901E0,-2.861217737E0,-9.408578873E0,3.888336942E-2
9.668808662E0,-2.839682341E0,-9.437292099E0,1.974078640E-2
9.678522151E0,-2.825325251E0,-9.430113792E0,1.016949583E-2
9.688236526E0,-2.808575630E0,-9.418149948E0,3.888336942E-2
9.697950016E0,-2.808575630E0,-9.418149948E0,5.084748194E-2
9.707662724E0,-2.813361168E0,-9.434899330E0,6.041877344E-2
9.717376318E0,-2.863610506E0,-9.463613510E0,2.691925503E-2
9.727090589E0,-2.899502754E0,-9.499505997E0,-8.973085321E-3
9.736804078E0,-2.933301449E0,-9.523433685E0,-5.922235921E-2
9.746516787E0,-2.957229614E0,-9.530612946E0,-1.214357466E-1
9.756230381E0,-2.947658300E0,-9.475577354E0,-1.980060786E-1
9.765944703E0,-2.930908680E0,-9.444471359E0,-2.793620527E-1
9.775658141E0,-2.913859844E0,-9.427721024E0,-3.176472187E-1
9.785370849E0,-2.866003275E0,-9.420542717E0,-2.937189937E-1
9.795084443E0,-2.813361168E0,-9.432506561E0,-2.267199457E-1
9.804798766E0,-2.751147747E0,-9.444471359E0,-1.166501045E-1
9.814512203E0,-2.720041037E0,-9.439684868E0,-3.290131316E-2
9.824224964E0,-2.686541557E0,-9.418149948E0,4.127619043E-2
9.833938453E0,-2.669791937E0,-9.410971642E0,1.082752272E-1
9.843652828E0,-2.688934565E0,-9.420542717E0,1.585244983E-1
9.853366266E0,-2.715255499E0,-9.425328255E0,1.947159469E-1
9.863079026E0,-2.724826813E0,-9.439684868E0,2.114657015E-1
9.872792516E0,-2.741576433E0,-9.451649666E0,2.066800594E-1
9.882506891E0,-2.760719061E0,-9.444471359E0,1.995015889E-1
9.892220328E0,-2.782254457E0,-9.420542717E0,1.633101404E-1
9.901933089E0,-2.803789854E0,-9.379864693E0,1.034895778E-1
9.911646578E0,-2.813361168E0,-9.377471924E0,3.170489892E-2
9.921360953E0,-2.808575630E0,-9.382257462E0,-6.580262445E-3
9.931074443E0,-2.813361168E0,-9.384650230E0,-6.161518395E-2
9.940787151E0,-2.818146944E0,-9.413364410E0,-9.032905847E-2
9.950500745E0,-2.830111027E0,-9.454042435E0,-1.333998591E-1
9.960215016E0,-2.830111027E0,-9.480362892E0,-1.501496136E-1
9.969928506E0,-2.825325251E0,-9.506684303E0,-1.597209126E-1
9.979641214E0,-2.842075109E0,-9.501898766E0,-1.740778536E-1
9.989354808E0,-2.854039192E0,-9.482755661E0,-1.836491376E-1
9.999069078E0,-2.897109985E0,-9.473184586E0,-1.764706671E-1
1.000878257E1,-2.913859844E0,-9.449256897E0,-1.381855011E-1
1.001849528E1,-2.909074068E0,-9.413364410E0,-1.190429255E-1
1.002820887E1,-2.875574589E0,-9.415757179E0,-6.400800496E-2
1.003792319E1,-2.851646423E0,-9.422935486E0,-2.811566554E-2
1.004763663E1,-2.803789854E0,-9.420542717E0,5.982056609E-4
1.005734934E1,-2.772683144E0,-9.442078590E0,1.974078640E-2
1.006706293E1,-2.758326292E0,-9.444471359E0,5.982056609E-4
1.007677726E1,-2.796611547E0,-9.418149948E0,1.495514158E-2
1.008649069E1,-2.801397085E0,-9.403793335E0,1.974078640E-2
1.009620340E1,-2.822932482E0,-9.399007797E0,4.127619043E-2
1.010591700E1,-2.863610506E0,-9.399007797E0,2.452643216E-2
1.011563132E1,-2.844467878E0,-9.415757179E0,1.256231871E-2
1.012534476E1,-2.844467878E0,-9.430113792E0,-2.093719877E-2
1.013505752E1,-2.822932482E0,-9.442078590E0,-5.204389244E-2
1.014477101E1,-2.803789854E0,-9.468399048E0,-7.597211748E-2
1.015448538E1,-2.803789854E0,-9.466006279E0,-9.032905847E-2
1.016419882E1,-2.815753937E0,-9.461220741E0,-9.272187948E-2
1.017391158E1,-2.825325251E0,-9.449256897E0,-9.750752151E-2
1.018362507E1,-2.844467878E0,-9.439684868E0,-8.315058798E-2
1.019333944E1,-2.856431961E0,-9.432506561E0,-9.272187948E-2
1.020305288E1,-2.856431961E0,-9.425328255E0,-9.511470050E-2
1.021276564E1,-2.837289333E0,-9.434899330E0,-9.032905847E-2
1.022247913E1,-2.815753937E0,-9.444471359E0,-8.554340899E-2
1.023219351E1,-2.784647465E0,-9.466006279E0,-5.443671346E-2
1.024190694E1,-2.746362209E0,-9.477970123E0,-1.136590727E-2
1.025161970E1,-2.743969440E0,-9.461220741E0,3.409772366E-2
1.026133319E1,-2.753540754E0,-9.454042435E0,7.956135273E-2
1.027104757E1,-2.787040234E0,-9.442078590E0,1.058823988E-1
1.028076101E1,-2.839682341E0,-9.434899330E0,1.154536903E-1
1.029047377E1,-2.861217737E0,-9.425328255E0,8.913264424E-2
1.030018726E1,-2.866003275E0,-9.387042999E0,5.324030295E-2
1.030990163E1,-2.866003275E0,-9.382257462E0,-2.333002165E-2
1.031961507E1,-2.844467878E0,-9.387042999E0,-8.075776696E-2
1.032932783E1,-2.799004316E0,-9.384650230E0,-9.990034252E-2
1.033904132E1,-2.787040234E0,-9.394221306E0,-8.075776696E-2
1.034875569E1,-2.799004316E0,-9.420542717E0,-5.682953820E-2
1.035846913E1,-2.796611547E0,-9.475577354E0,-5.922235921E-2
1.036818189E1,-2.796611547E0,-9.504291534E0,-7.357929647E-2
1.037789538E1,-2.794218540E0,-9.509077072E0,-1.070788130E-1
1.038760976E1,-2.813361168E0,-9.475577354E0,-1.022931710E-1
1.039732319E1,-2.832503796E0,-9.442078590E0,-1.166501045E-1
1.040703595E1,-2.856431961E0,-9.427721024E0,-1.022931710E-1
1.041674944E1,-2.880360365E0,-9.425328255E0,-9.032905847E-2
1.042646382E1,-2.897109985E0,-9.432506561E0,-6.161518395E-2
1.043617726E1,-2.899502754E0,-9.439684868E0,-5.922235921E-2
1.044588996E1,-2.877967358E0,-9.427721024E0,-4.965107143E-2
1.045560356E1,-2.818146944E0,-9.406186104E0,-7.836493850E-2
1.046531788E1,-2.772683144E0,-9.396614075E0,-8.075776696E-2
1.047503132E1,-2.722434044E0,-9.389435768E0,-8.315058798E-2
1.048474403E1,-2.708076954E0,-9.406186104E0,-4.486542568E-2
1.049445762E1,-2.717648268E0,-9.410971642E0,5.383851007E-3
1.050417189E1,-2.739183664E0,-9.444471359E0,3.649054468E-2
1.051388538E1,-2.779861689E0,-9.442078590E0,1.495514158E-2
1.052359809E1,-2.834896564E0,-9.434899330E0,-1.854437590E-2
1.053331168E1,-2.854039192E0,-9.444471359E0,-7.597211748E-2
1.054302595E1,-2.849253654E0,-9.461220741E0,-1.501496136E-1
1.055273944E1,-2.818146944E0,-9.473184586E0,-2.195414752E-1
1.056245215E1,-2.789433002E0,-9.492327690E0,-2.386840582E-1
1.057216575E1,-2.748754978E0,-9.499505997E0,-2.315055877E-1
1.058188002E1,-2.743969440E0,-9.497113228E0,-1.645065546E-1
1.059159351E1,-2.755933523E0,-9.489934921E0,-1.046859920E-1
1.060130621E1,-2.782254457E0,-9.456435204E0,-3.290131316E-2
1.061101981E1,-2.808575630E0,-9.403793335E0,2.691925503E-2
1.062073408E1,-2.832503796E0,-9.377471924E0,4.845465720E-2
1.063044757E1,-2.839682341E0,-9.370293617E0,2.931207791E-2
1.064016028E1,-2.846860647E0,-9.377471924E0,-4.187439568E-3
1.064987377E1,-2.813361168E0,-9.377471924E0,-2.572284266E-2
1.065958814E1,-2.799004316E0,-9.379864693E0,-4.007977992E-2
1.066930163E1,-2.803789854E0,-9.410971642E0,-4.007977992E-2
1.067901434E1,-2.796611547E0,-9.434899330E0,-4.247260094E-2
1.068872783E1,-2.801397085E0,-9.468399048E0,-2.333002165E-2
1.069844220E1,-2.799004316E0,-9.473184586E0,-4.187439568E-3
1.070815564E1,-2.803789854E0,-9.461220741E0,-1.794616925E-3
1.071786840E1,-2.822932482E0,-9.463613510E0,-1.375873014E-2
1.072758189E1,-2.832503796E0,-9.456435204E0,-5.682953820E-2
1.073729627E1,-2.839682341E0,-9.458827972E0,-8.315058798E-2
1.074700970E1,-2.854039192E0,-9.446864128E0,-1.094716340E-1
1.075672246E1,-2.877967358E0,-9.415757179E0,-1.214357466E-1
1.076643595E1,-2.885145903E0,-9.418149948E0,-9.990034252E-2
1.077615033E1,-2.868396044E0,-9.420542717E0,-7.118647546E-2
1.078586377E1,-2.842075109E0,-9.427721024E0,-3.050848842E-2
1.079557647E1,-2.808575630E0,-9.439684868E0,-1.136590727E-2
1.080529007E1,-2.789433002E0,-9.473184586E0,-1.794616925E-3
1.081500434E1,-2.782254457E0,-9.473184586E0,1.016949583E-2
1.082471783E1,-2.794218540E0,-9.449256897E0,5.982056609E-4
1.083443054E1,-2.818146944E0,-9.420542717E0,5.982056609E-4
1.084414413E1,-2.858824968E0,-9.406186104E0,-6.580262445E-3
1.085385840E1,-2.861217737E0,-9.432506561E0,-1.854437590E-2
1.086357189E1,-2.842075109E0,-9.458827972E0,-1.615155302E-2
1.087328460E1,-2.832503796E0,-9.473184586E0,-8.973085321E-3
1.088299809E1,-2.827718258E0,-9.456435204E0,1.495514158E-2
1.089271246E1,-2.837289333E0,-9.427721024E0,1.016949583E-2
1.090242590E1,-2.842075109E0,-9.413364410E0,-1.136590727E-2
1.091213866E1,-2.834896564E0,-9.430113792E0,-4.007977992E-2
1.092185215E1,-2.830111027E0,-9.434899330E0,-7.357929647E-2
1.093156653E1,-2.799004316E0,-9.458827972E0,-9.032905847E-2
1.094127996E1,-2.777468920E0,-9.456435204E0,-9.750752151E-2
1.095099267E1,-2.758326292E0,-9.446864128E0,-1.070788130E-1
1.096070627E1,-2.724826813E0,-9.451649666E0,-1.070788130E-1
1.097042059E1,-2.724826813E0,-9.451649666E0,-8.315058798E-2
1.098013403E1,-2.748754978E0,-9.470791817E0,-6.400800496E-2
1.098984674E1,-2.789433002E0,-9.456435204E0,-3.290131316E-2
1.099956033E1,-2.801397085E0,-9.454042435E0,-1.375873014E-2
1.100927460E1,-2.808575630E0,-9.427721024E0,-1.615155302E-2
1.101898809E1,-2.827718258E0,-9.422935486E0,-2.093719877E-2
1.102870080E1,-2.834896564E0,-9.446864128E0,-6.400800496E-2
1.103841439E1,-2.856431961E0,-9.458827972E0,-7.357929647E-2
1.104812866E1,-2.837289333E0,-9.456435204E0,-1.022931710E-1
1.105784215E1,-2.834896564E0,-9.449256897E0,-1.046859920E-1
1.106755486E1,-2.820539713E0,-9.434899330E0,-1.070788130E-1
1.107726835E1,-2.801397085E0,-9.399007797E0,-9.990034252E-2
1.108698272E1,-2.775076151E0,-9.387042999E0,-9.272187948E-2
1.109669616E1,-2.767897606E0,-9.394221306E0,-7.357929647E-2
1.110640892E1,-2.748754978E0,-9.425328255E0,-5.682953820E-2
1.111612241E1,-2.736790895E0,-9.451649666E0,-5.922235921E-2
1.112583679E1,-2.708076954E0,-9.463613510E0,-6.640082598E-2
1.113555022E1,-2.708076954E0,-9.468399048E0,-7.836493850E-2
1.114526293E1,-2.712862730E0,-9.473184586E0,-9.032905847E-2
1.115497653E1,-2.698505640E0,-9.480362892E0,-7.597211748E-2
1.116469080E1,-2.703291416E0,-9.473184586E0,-9.511470050E-2
1.117440429E1,-2.703291416E0,-9.470791817E0,-1.190429255E-1
1.118411700E1,-2.753540754E0,-9.463613510E0,-1.405783296E-1
1.119383049E1,-2.806182861E0,-9.442078590E0,-1.645065546E-1
1.120354486E1,-2.861217737E0,-9.413364410E0,-1.764706671E-1
1.121325830E1,-2.906681299E0,-9.394221306E0,-1.573280841E-1
1.122297106E1,-2.933301449E0,-9.389435768E0,-1.501496136E-1
1.123268455E1,-2.945265532E0,-9.387042999E0,-1.094716340E-1
1.124239887E1,-2.938086987E0,-9.410971642E0,-7.357929647E-2
1.125211236E1,-2.911466837E0,-9.415757179E0,-4.725824669E-2
1.126182507E1,-2.897109985E0,-9.396614075E0,-2.093719877E-2
1.127153866E1,-2.882753134E0,-9.418149948E0,-1.375873014E-2
1.128125293E1,-2.866003275E0,-9.418149948E0,-6.580262445E-3
1.129096642E1,-2.851646423E0,-9.430113792E0,5.982056609E-4
1.130067913E1,-2.846860647E0,-9.425328255E0,2.452643216E-2
1.131039262E1,-2.832503796E0,-9.403793335E0,2.691925503E-2
1.132010700E1,-2.796611547E0,-9.410971642E0,2.991028363E-3
1.132982043E1,-2.801397085E0,-9.420542717E0,-2.333002165E-2
1.133953319E1,-2.796611547E0,-9.439684868E0,-4.007977992E-2
1.134924668E1,-2.777468920E0,-9.477970123E0,-8.315058798E-2
1.135896106E1,-2.758326292E0,-9.499505997E0,-1.333998591E-1
1.136867450E1,-2.743969440E0,-9.497113228E0,-1.764706671E-1
1.137838720E1,-2.772683144E0,-9.480362892E0,-1.860419661E-1
1.138810080E1,-2.794218540E0,-9.444471359E0,-1.716850251E-1
1.139781507E1,-2.818146944E0,-9.422935486E0,-1.645065546E-1
1.140752856E1,-2.834896564E0,-9.420542717E0,-1.190429255E-1
1.141724127E1,-2.849253654E0,-9.406186104E0,-9.990034252E-2
1.142695476E1,-2.822932482E0,-9.399007797E0,-5.922235921E-2
1.143666913E1,-2.787040234E0,-9.415757179E0,-2.333002165E-2
1.144638257E1,-2.758326292E0,-9.413364410E0,-2.811566554E-2
1.145609528E1,-2.722434044E0,-9.430113792E0,-1.375873014E-2
1.146580887E1,-2.732005358E0,-9.466006279E0,-1.375873014E-2
1.147552314E1,-2.727219582E0,-9.482755661E0,-2.333002165E-2
1.148523663E1,-2.727219582E0,-9.475577354E0,-5.922235921E-2
1.149494934E1,-2.736790895E0,-9.454042435E0,-1.118644550E-1
1.150466283E1,-2.743969440E0,-9.442078590E0,-1.333998591E-1
1.151437720E1,-2.763111830E0,-9.442078590E0,-1.573280841E-1
1.152409064E1,-2.789433002E0,-9.444471359E0,-1.621137410E-1
1.153380340E1,-2.803789854E0,-9.466006279E0,-1.549352705E-1
1.154351689E1,-2.822932482E0,-9.470791817E0,-1.501496136E-1
1.155323127E1,-2.815753937E0,-9.451649666E0,-1.453639716E-1
1.156294470E1,-2.806182861E0,-9.439684868E0,-1.238285750E-1
1.157265741E1,-2.799004316E0,-9.422935486E0,-9.990034252E-2
1.158237101E1,-2.803789854E0,-9.427721024E0,-4.007977992E-2
1.159208528E1,-2.806182861E0,-9.425328255E0,-2.811566554E-2
1.160179877E1,-2.806182861E0,-9.430113792E0,-8.973085321E-3
1.161151147E1,-2.784647465E0,-9.434899330E0,-1.375873014E-2
1.162122496E1,-2.782254457E0,-9.432506561E0,-8.973085321E-3
1.163093934E1,-2.799004316E0,-9.425328255E0,-1.136590727E-2
1.164065278E1,-2.796611547E0,-9.430113792E0,-1.375873014E-2
1.165036548E1,-2.789433002E0,-9.444471359E0,-4.247260094E-2
1.166007908E1,-2.787040234E0,-9.444471359E0,-4.007977992E-2
1.166979335E1,-2.801397085E0,-9.461220741E0,-6.879365444E-2
1.167950684E1,-2.799004316E0,-9.461220741E0,-1.142572835E-1
1.168921955E1,-2.799004316E0,-9.473184586E0,-1.573280841E-1
1.169893304E1,-2.799004316E0,-9.456435204E0,-1.932204217E-1
1.170864741E1,-2.808575630E0,-9.420542717E0,-1.956132501E-1
1.171836085E1,-2.796611547E0,-9.406186104E0,-1.429711580E-1
1.172807361E1,-2.791825771E0,-9.420542717E0,-6.161518395E-2
1.173778710E1,-2.758326292E0,-9.439684868E0,7.776673418E-3
1.174750142E1,-2.760719061E0,-9.451649666E0,3.888336942E-2
1.175721491E1,-2.763111830E0,-9.458827972E0,3.888336942E-2
1.176692762E1,-2.779861689E0,-9.468399048E0,2.991028363E-3
1.177664111E1,-2.801397085E0,-9.466006279E0,-2.333002165E-2
1.178635549E1,-2.825325251E0,-9.456435204E0,-4.965107143E-2
1.179606892E1,-2.839682341E0,-9.449256897E0,-8.075776696E-2
1.180578163E1,-2.820539713E0,-9.451649666E0,-9.272187948E-2
1.181549522E1,-2.779861689E0,-9.437292099E0,-9.990034252E-2
1.182520950E1,-2.767897606E0,-9.458827972E0,-8.075776696E-2
1.183492298E1,-2.743969440E0,-9.473184586E0,-9.272187948E-2
1.184463569E1,-2.734398127E0,-9.492327690E0,-1.118644550E-1
1.185434918E1,-2.722434044E0,-9.509077072E0,-1.286142170E-1
1.186406356E1,-2.720041037E0,-9.480362892E0,-1.142572835E-1
1.187377700E1,-2.746362209E0,-9.415757179E0,-7.597211748E-2
1.188348970E1,-2.789433002E0,-9.365508080E0,-3.290131316E-2
1.189320330E1,-2.839682341E0,-9.348757744E0,1.016949583E-2
1.190291757E1,-2.858824968E0,-9.375079155E0,4.127619043E-2
1.191263106E1,-2.870789051E0,-9.391828537E0,6.041877344E-2
1.192234377E1,-2.832503796E0,-9.430113792E0,3.409772366E-2
1.193205726E1,-2.808575630E0,-9.439684868E0,-1.854437590E-2
1.194177163E1,-2.801397085E0,-9.458827972E0,-7.357929647E-2
1.195148507E1,-2.782254457E0,-9.489934921E0,-9.511470050E-2
1.196119778E1,-2.782254457E0,-9.487542152E0,-1.214357466E-1
1.197091137E1,-2.775076151E0,-9.477970123E0,-1.286142170E-1
1.198062564E1,-2.808575630E0,-9.480362892E0,-1.190429255E-1
1.199033913E1,-2.799004316E0,-9.463613510E0,-1.238285750E-1
1.200005184E1,-2.806182861E0,-9.461220741E0,-1.214357466E-1
1.200976533E1,-2.801397085E0,-9.444471359E0,-1.166501045E-1
1.201947970E1,-2.772683144E0,-9.418149948E0,-1.142572835E-1
1.202919314E1,-2.758326292E0,-9.413364410E0,-1.142572835E-1
1.203890585E1,-2.743969440E0,-9.432506561E0,-1.453639716E-1
1.204861944E1,-2.734398127E0,-9.439684868E0,-1.333998591E-1
1.205833371E1,-2.743969440E0,-9.430113792E0,-9.511470050E-2
1.206804715E1,-2.760719061E0,-9.422935486E0,-6.640082598E-2
1.207775991E1,-2.770290375E0,-9.425328255E0,-2.572284266E-2
1.208747340E1,-2.794218540E0,-9.442078590E0,2.213360928E-2
1.209718778E1,-2.813361168E0,-9.446864128E0,2.213360928E-2
1.210690121E1,-2.813361168E0,-9.420542717E0,3.409772366E-2
1.211661392E1,-2.806182861E0,-9.418149948E0,-6.580262445E-3
1.212632741E1,-2.810968399E0,-9.425328255E0,-4.965107143E-2
1.213604179E1,-2.801397085E0,-9.432506561E0,-8.315058798E-2
1.214575522E1,-2.815753937E0,-9.442078590E0,-1.142572835E-1
1.215546799E1,-2.827718258E0,-9.451649666E0,-1.022931710E-1
1.216518147E1,-2.842075109E0,-9.444471359E0,-1.046859920E-1
1.217489580E1,-2.849253654E0,-9.449256897E0,-8.554340899E-2
1.218460929E1,-2.868396044E0,-9.434899330E0,-9.511470050E-2
1.219432200E1,-2.866003275E0,-9.422935486E0,-1.118644550E-1
1.220403548E1,-2.856431961E0,-9.422935486E0,-1.477568001E-1
1.221374986E1,-2.851646423E0,-9.420542717E0,-1.621137410E-1
1.222346330E1,-2.830111027E0,-9.430113792E0,-1.525424421E-1
1.223317601E1,-2.820539713E0,-9.442078590E0,-1.070788130E-1
1.224288960E1,-2.825325251E0,-9.442078590E0,-4.965107143E-2
1.225260387E1,-2.834896564E0,-9.432506561E0,-1.794616925E-3
1.226231731E1,-2.846860647E0,-9.425328255E0,2.213360928E-2
1.227203007E1,-2.844467878E0,-9.437292099E0,1.734796353E-2
1.228174356E1,-2.827718258E0,-9.454042435E0,1.016949583E-2
1.229145788E1,-2.832503796E0,-9.446864128E0,-8.973085321E-3
1.230117137E1,-2.837289333E0,-9.454042435E0,-1.615155302E-2
1.231088408E1,-2.851646423E0,-9.434899330E0,-2.811566554E-2
1.232059757E1,-2.830111027E0,-9.418149948E0,-4.486542568E-2
1.233031194E1,-2.858824968E0,-9.399007797E0,-4.247260094E-2
1.234002538E1,-2.873181820E0,-9.391828537E0,-6.400800496E-2
1.234973809E1,-2.866003275E0,-9.403793335E0,-8.554340899E-2
1.235945168E1,-2.842075109E0,-9.432506561E0,-9.990034252E-2
1.236916595E1,-2.827718258E0,-9.442078590E0,-1.190429255E-1
1.237887939E1,-2.803789854E0,-9.422935486E0,-1.142572835E-1
1.238859215E1,-2.796611547E0,-9.420542717E0,-9.272187948E-2
1.239830564E1,-2.796611547E0,-9.430113792E0,-6.161518395E-2
1.240801996E1,-2.789433002E0,-9.432506561E0,-5.443671346E-2
1.241773345E1,-2.789433002E0,-9.454042435E0,-3.529413417E-2
1.242744616E1,-2.803789854E0,-9.468399048E0,-2.572284266E-2
1.243715965E1,-2.803789854E0,-9.468399048E0,-2.333002165E-2
1.244687403E1,-2.820539713E0,-9.456435204E0,-4.187439568E-3
1.245658746E1,-2.825325251E0,-9.427721024E0,-2.811566554E-2
1.246630017E1,-2.830111027E0,-9.415757179E0,-5.682953820E-2
1.247601377E1,-2.837289333E0,-9.422935486E0,-9.272187948E-2
1.248572804E1,-2.832503796E0,-9.437292099E0,-1.118644550E-1
1.249544147E1,-2.834896564E0,-9.427721024E0,-1.022931710E-1
1.250515424E1,-2.846860647E0,-9.415757179E0,-7.836493850E-2
1.251486772E1,-2.849253654E0,-9.406186104E0,-6.400800496E-2
1.252458205E1,-2.849253654E0,-9.439684868E0,-8.315058798E-2
1.253429554E1,-2.825325251E0,-9.446864128E0,-6.879365444E-2
1.254400824E1,-2.803789854E0,-9.468399048E0,-6.879365444E-2
1.255372174E1,-2.791825771E0,-9.470791817E0,-7.118647546E-2
1.256343611E1,-2.787040234E0,-9.446864128E0,-7.118647546E-2
1.257314955E1,-2.791825771E0,-9.446864128E0,-4.247260094E-2
1.258286226E1,-2.810968399E0,-9.444471359E0,-1.615155302E-2
1.259257585E1,-2.799004316E0,-9.425328255E0,7.776673418E-3
1.260229012E1,-2.796611547E0,-9.434899330E0,2.213360928E-2
1.261200356E1,-2.799004316E0,-9.422935486E0,5.982056609E-4
1.262171627E1,-2.784647465E0,-9.434899330E0,-3.529413417E-2
1.263142986E1,-2.765504837E0,-9.430113792E0,-6.640082598E-2
1.264114413E1,-2.753540754E0,-9.432506561E0,-9.511470050E-2
1.265085757E1,-2.767897606E0,-9.434899330E0,-1.142572835E-1
1.266057033E1,-2.755933523E0,-9.432506561E0,-1.166501045E-1
1.267028382E1,-2.763111830E0,-9.427721024E0,-8.315058798E-2
1.267999814E1,-2.751147747E0,-9.439684868E0,-4.486542568E-2
1.268971163E1,-2.748754978E0,-9.458827972E0,-2.333002165E-2
1.269942434E1,-2.748754978E0,-9.456435204E0,1.495514158E-2
1.270913783E1,-2.751147747E0,-9.463613510E0,1.495514158E-2
1.271885220E1,-2.741576433E0,-9.477970123E0,2.691925503E-2
1.272856564E1,-2.777468920E0,-9.461220741E0,2.452643216E-2
1.273827835E1,-2.796611547E0,-9.458827972E0,5.383851007E-3
1.274799194E1,-2.820539713E0,-9.468399048E0,-2.811566554E-2
1.275770621E1,-2.844467878E0,-9.454042435E0,-4.486542568E-2
1.276741965E1,-2.866003275E0,-9.442078590E0,-6.879365444E-2
1.277713236E1,-2.887538671E0,-9.425328255E0,-7.597211748E-2
1.278684595E1,-2.897109985E0,-9.420542717E0,-1.166501045E-1
1.279656022E1,-2.882753134E0,-9.408578873E0,-1.142572835E-1
1.280627366E1,-2.854039192E0,-9.403793335E0,-1.214357466E-1
1.281598642E1,-2.825325251E0,-9.413364410E0,-1.142572835E-1
1.282569991E1,-2.789433002E0,-9.408578873E0,-8.315058798E-2
1.283541424E1,-2.779861689E0,-9.420542717E0,-5.204389244E-2
1.284512772E1,-2.758326292E0,-9.449256897E0,-2.811566554E-2
1.285484043E1,-2.763111830E0,-9.454042435E0,5.383851007E-3
1.286455392E1,-2.770290375E0,-9.473184586E0,3.888336942E-2
1.287426830E1,-2.794218540E0,-9.470791817E0,6.281159073E-2
1.288398174E1,-2.839682341E0,-9.437292099E0,6.281159073E-2
1.289369444E1,-2.877967358E0,-9.420542717E0,4.366901144E-2
1.290340793E1,-2.887538671E0,-9.396614075E0,7.776673418E-3
1.291312231E1,-2.889931440E0,-9.401400566E0,-5.922235921E-2
1.292283574E1,-2.875574589E0,-9.422935486E0,-1.142572835E-1
1.293254845E1,-2.820539713E0,-9.427721024E0,-1.716850251E-1
1.294226205E1,-2.775076151E0,-9.437292099E0,-2.219343036E-1
1.295197632E1,-2.732005358E0,-9.449256897E0,-2.315055877E-1
1.296168976E1,-2.700898647E0,-9.449256897E0,-2.338984162E-1
1.297140246E1,-2.681756020E0,-9.475577354E0,-2.027917206E-1
1.298111606E1,-2.703291416E0,-9.463613510E0,-1.333998591E-1
1.299083033E1,-2.732005358E0,-9.451649666E0,-6.400800496E-2
1.300054377E1,-2.784647465E0,-9.446864128E0,-1.375873014E-2
1.301025653E1,-2.822932482E0,-9.425328255E0,7.776673418E-3
1.301997002E1,-2.861217737E0,-9.427721024E0,1.734796353E-2
1.302968434E1,-2.873181820E0,-9.410971642E0,1.495514158E-2
1.303939783E1,-2.861217737E0,-9.430113792E0,-1.136590727E-2
1.304911054E1,-2.832503796E0,-9.439684868E0,-3.290131316E-2
1.305882403E1,-2.796611547E0,-9.454042435E0,-4.247260094E-2
1.306853835E1,-2.782254457E0,-9.458827972E0,-5.204389244E-2
1.307825184E1,-2.755933523E0,-9.470791817E0,-7.597211748E-2
1.308796455E1,-2.775076151E0,-9.466006279E0,-8.075776696E-2
1.309767804E1,-2.775076151E0,-9.461220741E0,-8.793623000E-2
1.310739241E1,-2.813361168E0,-9.451649666E0,-9.272187948E-2
1.311710585E1,-2.815753937E0,-9.420542717E0,-1.166501045E-1
1.312681856E1,-2.825325251E0,-9.396614075E0,-1.262213886E-1
1.313653205E1,-2.837289333E0,-9.379864693E0,-1.429711580E-1
1.314624642E1,-2.839682341E0,-9.375079155E0,-1.381855011E-1
1.315595986E1,-2.825325251E0,-9.389435768E0,-1.286142170E-1
1.316567257E1,-2.808575630E0,-9.413364410E0,-9.272187948E-2
1.317538606E1,-2.772683144E0,-9.430113792E0,-3.768695518E-2
1.318510043E1,-2.753540754E0,-9.444471359E0,5.383851007E-3
1.319481387E1,-2.739183664E0,-9.451649666E0,3.888336942E-2
1.320452658E1,-2.715255499E0,-9.456435204E0,5.324030295E-2
1.321424017E1,-2.722434044E0,-9.482755661E0,4.606183618E-2
1.322395444E1,-2.739183664E0,-9.480362892E0,3.649054468E-2
1.323366788E1,-2.777468920E0,-9.468399048E0,1.734796353E-2
1.324338059E1,-2.808575630E0,-9.456435204E0,-1.854437590E-2
1.325309418E1,-2.830111027E0,-9.444471359E0,-4.486542568E-2
1.326280845E1,-2.858824968E0,-9.446864128E0,-1.046859920E-1
1.327252189E1,-2.854039192E0,-9.442078590E0,-1.573280841E-1
1.328223460E1,-2.830111027E0,-9.449256897E0,-1.860419661E-1
1.329194819E1,-2.813361168E0,-9.446864128E0,-2.243271172E-1
1.330166246E1,-2.801397085E0,-9.446864128E0,-2.291127741E-1
1.331137590E1,-2.787040234E0,-9.461220741E0,-1.956132501E-1
1.332108866E1,-2.787040234E0,-9.430113792E0,-1.405783296E-1
1.333080215E1,-2.770290375E0,-9.415757179E0,-6.400800496E-2
1.334051647E1,-2.772683144E0,-9.403793335E0,-1.136590727E-2
1.335022996E1,-2.801397085E0,-9.389435768E0,3.649054468E-2
1.335994267E1,-2.813361168E0,-9.406186104E0,6.520441920E-2
1.336965616E1,-2.818146944E0,-9.463613510E0,5.563312769E-2
1.337937048E1,-2.801397085E0,-9.485149384E0,4.606183618E-2
1.338908397E1,-2.796611547E0,-9.463613510E0,2.213360928E-2
1.339879668E1,-2.810968399E0,-9.425328255E0,5.982056609E-4
1.340851017E1,-2.827718258E0,-9.401400566E0,7.776673418E-3
1.341822450E1,-2.851646423E0,-9.375079155E0,-2.333002165E-2
1.342793799E1,-2.866003275E0,-9.384650230E0,-4.486542568E-2
1.343765069E1,-2.846860647E0,-9.394221306E0,-9.272187948E-2
1.344736418E1,-2.818146944E0,-9.430113792E0,-1.214357466E-1
1.345707856E1,-2.789433002E0,-9.449256897E0,-1.453639716E-1
1.346679200E1,-2.743969440E0,-9.477970123E0,-1.621137410E-1
1.347650470E1,-2.724826813E0,-9.497113228E0,-1.405783296E-1
1.348621819E1,-2.715255499E0,-9.482755661E0,-1.190429255E-1
1.349593257E1,-2.717648268E0,-9.489934921E0,-6.161518395E-2
1.350564601E1,-2.741576433E0,-9.473184586E0,-1.615155302E-2
1.351535871E1,-2.767897606E0,-9.434899330E0,-4.187439568E-3
1.352507220E1,-2.782254457E0,-9.413364410E0,1.495514158E-2
1.353478658E1,-2.801397085E0,-9.415757179E0,-6.580262445E-3
1.354450002E1,-2.779861689E0,-9.422935486E0,-1.615155302E-2
1.355421272E1,-2.758326292E0,-9.442078590E0,-2.572284266E-2
1.356392621E1,-2.736790895E0,-9.458827972E0,-4.247260094E-2
1.357364059E1,-2.703291416E0,-9.485149384E0,-3.529413417E-2
1.358335403E1,-2.705684185E0,-9.513862610E0,-1.854437590E-2
1.359306674E1,-2.736790895E0,-9.506684303E0,-1.854437590E-2
1.360278022E1,-2.760719061E0,-9.506684303E0,-4.187439568E-3
1.361249460E1,-2.813361168E0,-9.463613510E0,-1.615155302E-2
1.362220804E1,-2.849253654E0,-9.422935486E0,-4.965107143E-2
1.363192074E1,-2.870789051E0,-9.399007797E0,-6.879365444E-2
1.364163424E1,-2.877967358E0,-9.401400566E0,-1.022931710E-1
1.365134861E1,-2.863610506E0,-9.413364410E0,-1.046859920E-1
1.366106205E1,-2.815753937E0,-9.420542717E0,-7.118647546E-2
1.367077476E1,-2.760719061E0,-9.422935486E0,-4.007977992E-2
1.368048825E1,-2.741576433E0,-9.442078590E0,-8.973085321E-3
1.369020262E1,-2.724826813E0,-9.439684868E0,1.016949583E-2
1.369991606E1,-2.732005358E0,-9.449256897E0,3.409772366E-2
1.370962877E1,-2.770290375E0,-9.446864128E0,6.999006122E-2
1.371934226E1,-2.803789854E0,-9.444471359E0,6.759724021E-2
1.372905663E1,-2.837289333E0,-9.446864128E0,5.802594870E-2
1.373877007E1,-2.851646423E0,-9.430113792E0,3.888336942E-2
1.374848278E1,-2.866003275E0,-9.432506561E0,1.016949583E-2
1.375819627E1,-2.834896564E0,-9.454042435E0,-3.768695518E-2
1.376791064E1,-2.825325251E0,-9.461220741E0,-5.922235921E-2
1.377762408E1,-2.803789854E0,-9.473184586E0,-7.357929647E-2
1.378733679E1,-2.808575630E0,-9.458827972E0,-4.965107143E-2
1.379705028E1,-2.820539713E0,-9.456435204E0,-3.529413417E-2
1.380676465E1,-2.830111027E0,-9.442078590E0,-3.290131316E-2
1.381647809E1,-2.839682341E0,-9.418149948E0,-2.333002165E-2
1.382619080E1,-2.844467878E0,-9.413364410E0,-2.811566554E-2
1.383590429E1,-2.846860647E0,-9.420542717E0,-2.333002165E-2
1.384561866E1,-2.837289333E0,-9.434899330E0,-3.290131316E-2
1.385533210E1,-2.818146944E0,-9.442078590E0,-2.811566554E-2
1.386504481E1,-2.784647465E0,-9.437292099E0,-2.093719877E-2
1.387475830E1,-2.760719061E0,-9.418149948E0,-6.580262445E-3
1.388447267E1,-2.743969440E0,-9.425328255E0,2.691925503E-2
1.389418611E1,-2.736790895E0,-9.451649666E0,4.366901144E-2
1.390389882E1,-2.724826813E0,-9.499505997E0,6.759724021E-2
1.391361231E1,-2.705684185E0,-9.511469841E0,6.759724021E-2
1.392332668E1,-2.691327333E0,-9.530612946E0,4.845465720E-2
1.393304012E1,-2.715255499E0,-9.485149384E0,2.452643216E-2
1.394275283E1,-2.753540754E0,-9.420542717E0,-2.811566554E-2
1.395246632E1,-2.815753937E0,-9.391828537E0,-5.922235921E-2
1.396218069E1,-2.851646423E0,-9.365508080E0,-6.640082598E-2
1.397189413E1,-2.866003275E0,-9.372686386E0,-5.922235921E-2
1.398160684E1,-2.842075109E0,-9.377471924E0,-2.572284266E-2
1.399132033E1,-2.830111027E0,-9.396614075E0,-8.973085321E-3
1.400103470E1,-2.803789854E0,-9.437292099E0,-1.136590727E-2
1.401074814E1,-2.746362209E0,-9.475577354E0,-4.725824669E-2
1.402046085E1,-2.720041037E0,-9.506684303E0,-7.118647546E-2
1.403017434E1,-2.700898647E0,-9.516255379E0,-8.315058798E-2
1.403988866E1,-2.705684185E0,-9.516255379E0,-6.879365444E-2
1.404960215E1,-2.712862730E0,-9.518648148E0,-4.725824669E-2
1.405931486E1,-2.729612350E0,-9.499505997E0,-8.973085321E-3
1.406902835E1,-2.748754978E0,-9.468399048E0,2.452643216E-2
1.407874267E1,-2.775076151E0,-9.449256897E0,7.776673418E-3
1.408845616E1,-2.799004316E0,-9.418149948E0,5.383851007E-3
1.409816887E1,-2.810968399E0,-9.413364410E0,5.982056609E-4
1.410788236E1,-2.815753937E0,-9.418149948E0,-1.794616925E-3
1.411759668E1,-2.806182861E0,-9.425328255E0,2.991028363E-3
1.412731012E1,-2.789433002E0,-9.437292099E0,2.691925503E-2
1.413702283E1,-2.789433002E0,-9.437292099E0,4.845465720E-2
1.414673642E1,-2.822932482E0,-9.427721024E0,7.238288224E-2
1.415645069E1,-2.830111027E0,-9.415757179E0,7.477571070E-2
1.416616413E1,-2.854039192E0,-9.389435768E0,3.409772366E-2
1.417587684E1,-2.851646423E0,-9.389435768E0,-1.794616925E-3
1.418559043E1,-2.820539713E0,-9.394221306E0,-3.529413417E-2
1.419530470E1,-2.796611547E0,-9.427721024E0,-6.879365444E-2
1.420501814E1,-2.767897606E0,-9.439684868E0,-6.161518395E-2
1.421473085E1,-2.739183664E0,-9.461220741E0,-3.529413417E-2
1.422444444E1,-2.705684185E0,-9.480362892E0,-2.811566554E-2
1.423415871E1,-2.710469961E0,-9.475577354E0,-8.973085321E-3
1.424387215E1,-2.717648268E0,-9.480362892E0,-6.580262445E-3
1.425358486E1,-2.739183664E0,-9.470791817E0,-1.375873014E-2
1.426329835E1,-2.765504837E0,-9.466006279E0,-3.050848842E-2
1.427301272E1,-2.801397085E0,-9.458827972E0,-2.572284266E-2
1.428272616E1,-2.837289333E0,-9.427721024E0,-2.572284266E-2
1.429243887E1,-2.851646423E0,-9.427721024E0,-1.615155302E-2
1.430215236E1,-2.863610506E0,-9.439684868E0,-6.580262445E-3
1.431186674E1,-2.882753134E0,-9.466006279E0,-1.375873014E-2
1.432158017E1,-2.873181820E0,-9.458827972E0,-8.973085321E-3
1.433129288E1,-2.863610506E0,-9.458827972E0,-3.290131316E-2
1.434100637E1,-2.861217737E0,-9.466006279E0,-6.161518395E-2
1.435072074E1,-2.822932482E0,-9.451649666E0,-8.554340899E-2
1.436043418E1,-2.801397085E0,-9.468399048E0,-9.032905847E-2
1.437014689E1,-2.741576433E0,-9.461220741E0,-9.272187948E-2
1.437986038E1,-2.724826813E0,-9.439684868E0,-6.640082598E-2
1.438957476E1,-2.712862730E0,-9.408578873E0,-1.615155302E-2
1.439928819E1,-2.739183664E0,-9.391828537E0,1.495514158E-2
1.440900090E1,-2.760719061E0,-9.391828537E0,7.238288224E-2
1.441871439E1,-2.810968399E0,-9.391828537E0,1.034895778E-1
1.442842871E1,-2.832503796E0,-9.439684868E0,1.178465188E-1
1.443814215E1,-2.839682341E0,-9.463613510E0,1.274178028E-1
1.444785491E1,-2.842075109E0,-9.463613510E0,1.274178028E-1
1.445756840E1,-2.799004316E0,-9.463613510E0,1.130608693E-1
1.446728272E1,-2.799004316E0,-9.442078590E0,8.673982322E-2
1.447699616E1,-2.787040234E0,-9.410971642E0,5.563312769E-2
1.448670892E1,-2.794218540E0,-9.410971642E0,2.452643216E-2
1.449642241E1,-2.815753937E0,-9.427721024E0,-4.187439568E-3
1.450613674E1,-2.822932482E0,-9.446864128E0,-3.050848842E-2
1.451585017E1,-2.820539713E0,-9.473184586E0,-7.836493850E-2
1.452556288E1,-2.789433002E0,-9.480362892E0,-1.022931710E-1
1.453527647E1,-2.760719061E0,-9.480362892E0,-1.310070455E-1
1.454499075E1,-2.748754978E0,-9.468399048E0,-1.453639716E-1
1.455470418E1,-2.729612350E0,-9.444471359E0,-1.333998591E-1
1.456441689E1,-2.743969440E0,-9.442078590E0,-7.357929647E-2
1.457413038E1,-2.775076151E0,-9.432506561E0,-1.136590727E-2
1.458384476E1,-2.810968399E0,-9.427721024E0,4.366901144E-2
1.459355819E1,-2.834896564E0,-9.444471359E0,8.673982322E-2
1.460327090E1,-2.849253654E0,-9.470791817E0,7.477571070E-2
1.461298439E1,-2.842075109E0,-9.480362892E0,6.759724021E-2
1.462269877E1,-2.818146944E0,-9.489934921E0,4.606183618E-2
1.463241220E1,-2.784647465E0,-9.480362892E0,2.931207791E-2
1.464212491E1,-2.753540754E0,-9.463613510E0,3.409772366E-2
1.465183840E1,-2.751147747E0,-9.425328255E0,4.127619043E-2
1.466155272E1,-2.777468920E0,-9.413364410E0,5.324030295E-2
1.467126621E1,-2.758326292E0,-9.401400566E0,5.084748194E-2
1.468097892E1,-2.763111830E0,-9.399007797E0,4.366901144E-2
1.469069241E1,-2.772683144E0,-9.396614075E0,3.409772366E-2
1.470040674E1,-2.777468920E0,-9.399007797E0,1.974078640E-2
1.471012017E1,-2.782254457E0,-9.422935486E0,-1.375873014E-2
1.471983288E1,-2.777468920E0,-9.454042435E0,-2.811566554E-2
1.472954647E1,-2.772683144E0,-9.466006279E0,-4.007977992E-2
1.473926075E1,-2.767897606E0,-9.480362892E0,-2.093719877E-2
1.474897418E1,-2.777468920E0,-9.487542152E0,-1.136590727E-2
1.475868689E1,-2.782254457E0,-9.497113228E0,5.982056609E-4
1.476840048E1,-2.777468920E0,-9.494720459E0,-1.375873014E-2
1.477811476E1,-2.777468920E0,-9.470791817E0,-3.290131316E-2
1.478782819E1,-2.779861689E0,-9.451649666E0,-7.118647546E-2
1.479754090E1,-2.796611547E0,-9.451649666E0,-8.315058798E-2
1.480725439E1,-2.779861689E0,-9.444471359E0,-8.075776696E-2
1.481696877E1,-2.784647465E0,-9.449256897E0,-7.836493850E-2
1.482668220E1,-2.765504837E0,-9.449256897E0,-6.879365444E-2
1.483639491E1,-2.760719061E0,-9.451649666E0,-4.486542568E-2
1.484610840E1,-2.767897606E0,-9.451649666E0,-1.794616925E-3
1.485582272E1,-2.770290375E0,-9.444471359E0,1.974078640E-2
1.486553621E1,-2.782254457E0,-9.430113792E0,5.324030295E-2
1.487524892E1,-2.784647465E0,-9.422935486E0,9.152546525E-2
1.488496241E1,-2.799004316E0,-9.420542717E0,1.010967568E-1
1.489467674E1,-2.789433002E0,-9.430113792E0,9.391828626E-2
1.490439022E1,-2.806182861E0,-9.434899330E0,6.281159073E-2
1.491410293E1,-2.825325251E0,-9.430113792E0,3.888336942E-2
1.492381642E1,-2.815753937E0,-9.427721024E0,-8.973085321E-3
1.493353074E1,-2.796611547E0,-9.420542717E0,-4.725824669E-2
1.494324418E1,-2.815753937E0,-9.406186104E0,-7.357929647E-2
1.495295689E1,-2.818146944E0,-9.444471359E0,-1.022931710E-1
1.496267048E1,-2.791825771E0,-9.492327690E0,-1.070788130E-1
1.497238476E1,-2.760719061E0,-9.521040916E0,-1.142572835E-1
1.498209819E1,-2.722434044E0,-9.513862610E0,-1.190429255E-1
1.499181090E1,-2.703291416E0,-9.477970123E0,-1.022931710E-1
1.500152439E1,-2.712862730E0,-9.454042435E0,-9.750752151E-2
1.501123877E1,-2.751147747E0,-9.432506561E0,-6.161518395E-2
1.502095220E1,-2.801397085E0,-9.418149948E0,-3.050848842E-2
1.503066491E1,-2.849253654E0,-9.427721024E0,2.452643216E-2
1.504037840E1,-2.889931440E0,-9.422935486E0,3.888336942E-2
1.505009278E1,-2.875574589E0,-9.408578873E0,5.324030295E-2
1.505980621E1,-2.870789051E0,-9.410971642E0,5.802594870E-2
1.506951892E1,-2.851646423E0,-9.413364410E0,4.366901144E-2
1.507923241E1,-2.827718258E0,-9.425328255E0,2.931207791E-2
