"Time (s)","Gyroscope x (rad/s)","Gyroscope y (rad/s)","Gyroscope z (rad/s)"
1.835991830E-1,-1.954711229E-2,2.748812735E-2,7.635590737E-4
1.933127760E-1,-1.954711229E-2,4.703523964E-2,3.206948051E-3
2.030270470E-1,-1.832541823E-2,5.558710173E-2,3.206948051E-3
2.127405370E-1,-1.588202827E-2,5.558710173E-2,3.206948051E-3
2.224532450E-1,-1.099525020E-2,4.581354558E-2,7.635590737E-4
2.321667350E-1,-6.108472589E-3,2.748812735E-2,-1.679830020E-3
2.418811100E-1,-2.443389036E-3,6.719320081E-3,-5.344913341E-3
2.515945470E-1,1.221694518E-3,-1.038440317E-2,-7.788302377E-3
2.613072560E-1,4.886778072E-3,-2.870982140E-2,-1.023169141E-2
2.710208490E-1,6.108472589E-3,-4.825693369E-2,-7.788302377E-3
2.807351200E-1,8.551862091E-3,-6.536065787E-2,-5.344913341E-3
2.904486100E-1,1.099525020E-2,-8.368607610E-2,-2.901524538E-3
3.001613180E-1,1.099525020E-2,-9.101624042E-2,-4.581354442E-4
3.098748080E-1,8.551862091E-3,-9.345962852E-2,1.985253533E-3
3.195891830E-1,2.443389036E-3,-8.368607610E-2,3.206948051E-3
3.293026200E-1,-2.443389036E-3,-6.536065787E-2,3.206948051E-3
3.390153810E-1,-8.551862091E-3,-3.726168349E-2,7.635590737E-4
3.487288700E-1,-1.343864016E-2,-6.719320081E-3,-4.581354442E-4
3.584431930E-1,-1.588202827E-2,2.260134928E-2,-1.679830020E-3
3.681566830E-1,-1.466033421E-2,4.214845970E-2,-4.123218823E-3
3.778693910E-1,-1.343864016E-2,5.314370990E-2,-5.344913341E-3
3.875829850E-1,-1.221694518E-2,5.925218388E-2,-6.566607859E-3
3.972972560E-1,-9.773556143E-3,5.680879578E-2,-6.566607859E-3
4.070107450E-1,-7.330167107E-3,4.947862774E-2,-4.123218823E-3
4.167234530E-1,-8.551862091E-3,2.993151546E-2,-2.901524538E-3
4.264369430E-1,-7.330167107E-3,9.162709117E-3,-4.581354442E-4
4.361513180E-1,-6.108472589E-3,-1.160609815E-2,7.635590737E-4
4.458647560E-1,-4.886778072E-3,-2.870982140E-2,1.985253533E-3
4.555774640E-1,-1.221694518E-3,-4.214845970E-2,3.206948051E-3
4.652910580E-1,3.665083554E-3,-4.825693369E-2,3.206948051E-3
4.750053280E-1,7.330167107E-3,-4.459185153E-2,3.206948051E-3
4.847188180E-1,8.551862091E-3,-3.848337755E-2,1.985253533E-3
4.944315260E-1,8.551862091E-3,-2.626643144E-2,-4.581354442E-4
5.041451200E-1,6.108472589E-3,-1.038440317E-2,-2.901524538E-3
5.138593910E-1,2.443389036E-3,5.497625098E-3,-5.344913341E-3
5.235728280E-1,1.221694518E-3,1.649287529E-2,-5.344913341E-3
5.332855890E-1,-1.221694518E-3,2.260134928E-2,-4.123218823E-3
5.429990780E-1,-2.443389036E-3,3.115320951E-2,-1.679830020E-3
5.527134530E-1,-1.221694518E-3,3.359659761E-2,7.635590737E-4
5.624268910E-1,-1.221694518E-3,3.237490356E-2,4.428642802E-3
5.721395990E-1,1.221694518E-3,2.626643144E-2,6.872031838E-3
5.818531930E-1,3.665083554E-3,1.893626526E-2,9.315420873E-3
5.915674640E-1,6.108472589E-3,1.038440317E-2,8.093725890E-3
6.012809530E-1,6.108472589E-3,5.497625098E-3,5.650337320E-3
6.109936620E-1,6.108472589E-3,3.054236295E-3,1.985253533E-3
6.207072560E-1,7.330167107E-3,6.108472589E-4,-1.679830020E-3
6.304215260E-1,7.330167107E-3,-6.108472589E-4,-4.123218823E-3
6.401350160E-1,8.551862091E-3,-4.275931045E-3,-4.123218823E-3
6.498477240E-1,8.551862091E-3,-9.162709117E-3,-4.123218823E-3
6.595612140E-1,8.551862091E-3,-1.527118124E-2,-2.901524538E-3
6.692755890E-1,6.108472589E-3,-2.260134928E-2,-4.581354442E-4
6.789890260E-1,1.221694518E-3,-2.504473738E-2,7.635590737E-4
6.887017870E-1,-4.886778072E-3,-2.015795931E-2,1.985253533E-3
6.984152760E-1,-9.773556143E-3,-1.282779220E-2,3.206948051E-3
7.081296510E-1,-1.343864016E-2,-3.054236295E-3,7.635590737E-4
7.178430890E-1,-9.773556143E-3,9.162709117E-3,7.635590737E-4
7.275558490E-1,-6.108472589E-3,1.893626526E-2,7.635590737E-4
7.372693390E-1,1.221694518E-3,2.626643144E-2,-1.679830020E-3
7.469837140E-1,8.551862091E-3,2.626643144E-2,-1.679830020E-3
7.566971510E-1,1.343864016E-2,1.893626526E-2,-4.581354442E-4
7.664098600E-1,1.466033421E-2,5.497625098E-3,7.635590737E-4
7.761234530E-1,1.221694518E-2,-1.038440317E-2,7.635590737E-4
7.858377760E-1,6.108472589E-3,-2.504473738E-2,1.985253533E-3
7.955512140E-1,1.221694518E-3,-3.603998944E-2,-4.581354442E-4
8.052639220E-1,-3.665083554E-3,-4.337015375E-2,-1.679830020E-3
8.149775160E-1,-4.886778072E-3,-4.703523964E-2,-1.679830020E-3
8.246917870E-1,-1.221694518E-3,-4.092676565E-2,-1.679830020E-3
8.344052760E-1,3.665083554E-3,-2.993151546E-2,-1.679830020E-3
8.441179850E-1,8.551862091E-3,-1.649287529E-2,-4.581354442E-4
8.538315780E-1,1.221694518E-2,-3.054236295E-3,7.635590737E-4
8.635459010E-1,1.221694518E-2,7.941014133E-3,3.206948051E-3
8.732593390E-1,8.551862091E-3,1.282779220E-2,5.650337320E-3
8.829720990E-1,3.665083554E-3,1.527118124E-2,5.650337320E-3
8.926855890E-1,-0.000000000E0,1.527118124E-2,4.428642802E-3
9.023999640E-1,-3.665083554E-3,1.527118124E-2,1.985253533E-3
9.121134010E-1,-4.886778072E-3,1.527118124E-2,7.635590737E-4
9.218261620E-1,-2.443389036E-3,1.527118124E-2,-1.679830020E-3
9.315396510E-1,-0.000000000E0,1.527118124E-2,-2.901524538E-3
9.412540260E-1,3.665083554E-3,1.527118124E-2,-1.679830020E-3
9.509675160E-1,4.886778072E-3,1.282779220E-2,1.985253533E-3
9.606802240E-1,4.886778072E-3,6.719320081E-3,5.650337320E-3
9.703938180E-1,2.443389036E-3,-1.832541777E-3,6.872031838E-3
9.801080890E-1,-1.221694518E-3,-1.160609815E-2,5.650337320E-3
9.898215780E-1,-2.443389036E-3,-1.527118124E-2,5.650337320E-3
9.995342870E-1,-1.221694518E-3,-1.404948719E-2,5.650337320E-3
1.009247881E0,2.443389036E-3,-6.719320081E-3,3.206948051E-3
1.018962203E0,7.330167107E-3,4.275931045E-3,1.985253533E-3
1.028675641E0,1.343864016E-2,1.404948719E-2,-1.679830020E-3
1.038388401E0,2.076880634E-2,1.771457121E-2,-2.901524538E-3
1.048101891E0,2.565558441E-2,1.404948719E-2,-2.901524538E-3
1.057816266E0,2.565558441E-2,3.054236295E-3,-2.901524538E-3
1.067529756E0,2.199050039E-2,-9.162709117E-3,-1.679830020E-3
1.077242464E0,1.710372418E-2,-2.382304333E-2,-1.679830020E-3
1.086956058E0,8.551862091E-3,-3.726168349E-2,-4.581354442E-4
1.096670381E0,2.443389036E-3,-4.214845970E-2,7.635590737E-4
1.106383818E0,-2.443389036E-3,-3.726168349E-2,1.985253533E-3
1.116096578E0,-6.108472589E-3,-2.137965336E-2,5.650337320E-3
1.125810068E0,-7.330167107E-3,6.108472589E-4,8.093725890E-3
1.135524443E0,-6.108472589E-3,2.260134928E-2,9.315420873E-3
1.145237933E0,-2.443389036E-3,3.726168349E-2,9.315420873E-3
1.154950641E0,-0.000000000E0,4.581354558E-2,6.872031838E-3
1.164664235E0,2.443389036E-3,4.703523964E-2,3.206948051E-3
1.174378558E0,2.443389036E-3,4.337015375E-2,-4.581354442E-4
1.184092047E0,3.665083554E-3,3.603998944E-2,-4.123218823E-3
1.193804756E0,4.886778072E-3,2.504473738E-2,-5.344913341E-3
1.203518349E0,6.108472589E-3,1.160609815E-2,-5.344913341E-3
1.213232672E0,6.108472589E-3,1.832541777E-3,-4.123218823E-3
1.222946110E0,6.108472589E-3,-1.832541777E-3,-2.901524538E-3
1.232658870E0,3.665083554E-3,-1.832541777E-3,1.985253533E-3
1.242372360E0,2.443389036E-3,-6.108472589E-4,4.428642802E-3
1.252086735E0,2.443389036E-3,-1.832541777E-3,8.093725890E-3
1.261800224E0,1.221694518E-3,-4.275931045E-3,1.053711493E-2
1.271512985E0,1.221694518E-3,-5.497625098E-3,9.315420873E-3
1.281226474E0,-0.000000000E0,-5.497625098E-3,6.872031838E-3
1.290940849E0,-0.000000000E0,-1.832541777E-3,3.206948051E-3
1.300654339E0,-2.443389036E-3,4.275931045E-3,-1.679830020E-3
1.310367099E0,-2.443389036E-3,1.160609815E-2,-5.344913341E-3
1.320080589E0,-1.221694518E-3,1.771457121E-2,-6.566607859E-3
1.329794964E0,1.221694518E-3,2.015795931E-2,-2.901524538E-3
1.339508453E0,3.665083554E-3,1.893626526E-2,-4.581354442E-4
1.349221214E0,3.665083554E-3,1.282779220E-2,1.985253533E-3
1.358934703E0,2.443389036E-3,5.497625098E-3,6.872031838E-3
1.368649078E0,-1.221694518E-3,-4.275931045E-3,1.298050396E-2
1.378362568E0,-4.886778072E-3,-1.038440317E-2,1.664558798E-2
1.388075328E0,-9.773556143E-3,-1.160609815E-2,1.542389300E-2
1.397788818E0,-1.221694518E-2,-6.719320081E-3,1.298050396E-2
1.407503193E0,-1.466033421E-2,5.497625098E-3,8.093725890E-3
1.417216683E0,-1.343864016E-2,2.015795931E-2,7.635590737E-4
1.426929443E0,-8.551862091E-3,2.993151546E-2,-5.344913341E-3
1.436642933E0,-1.221694518E-3,3.115320951E-2,-1.023169141E-2
1.446357308E0,6.108472589E-3,2.137965336E-2,-1.267508045E-2
1.456070797E0,1.099525020E-2,4.275931045E-3,-1.267508045E-2
1.465783558E0,1.099525020E-2,-1.527118124E-2,-1.267508045E-2
1.475497151E0,8.551862091E-3,-3.603998944E-2,-1.023169141E-2
1.485211422E0,4.886778072E-3,-5.558710173E-2,-5.344913341E-3
1.494924912E0,-1.221694518E-3,-7.024743408E-2,7.635590737E-4
1.504637672E0,-6.108472589E-3,-7.513421029E-2,4.428642802E-3
1.514351266E0,-8.551862091E-3,-6.902574003E-2,6.872031838E-3
1.524065589E0,-9.773556143E-3,-4.947862774E-2,8.093725890E-3
1.533779026E0,-8.551862091E-3,-2.382304333E-2,8.093725890E-3
1.543491787E0,-3.665083554E-3,1.832541777E-3,5.650337320E-3
1.553205381E0,2.443389036E-3,2.260134928E-2,1.985253533E-3
1.562919703E0,6.108472589E-3,3.115320951E-2,-1.679830020E-3
1.572633193E0,1.099525020E-2,3.115320951E-2,-7.788302377E-3
1.582345901E0,1.099525020E-2,2.260134928E-2,-1.023169141E-2
1.592059495E0,8.551862091E-3,9.162709117E-3,-1.145338640E-2
1.601773818E0,1.221694518E-3,-4.275931045E-3,-1.023169141E-2
1.611487308E0,-4.886778072E-3,-1.771457121E-2,-9.009997360E-3
1.621200068E0,-8.551862091E-3,-2.748812735E-2,-4.123218823E-3
1.630913558E0,-8.551862091E-3,-3.603998944E-2,7.635590737E-4
1.640627933E0,-9.773556143E-3,-4.337015375E-2,5.650337320E-3
1.650341422E0,-7.330167107E-3,-4.459185153E-2,6.872031838E-3
1.660054183E0,-4.886778072E-3,-3.848337755E-2,5.650337320E-3
1.669767776E0,-0.000000000E0,-2.382304333E-2,3.206948051E-3
1.679482099E0,4.886778072E-3,-4.275931045E-3,-4.581354442E-4
1.689195589E0,9.773556143E-3,1.282779220E-2,-1.679830020E-3
1.698908297E0,1.466033421E-2,2.137965336E-2,-4.123218823E-3
1.708621891E0,1.710372418E-2,1.893626526E-2,-6.566607859E-3
1.718336214E0,1.343864016E-2,1.527118124E-2,-4.123218823E-3
1.728049703E0,4.886778072E-3,1.160609815E-2,-2.901524538E-3
1.737762464E0,-4.886778072E-3,1.160609815E-2,-4.581354442E-4
1.747476058E0,-1.466033421E-2,1.038440317E-2,7.635590737E-4
1.757190381E0,-1.954711229E-2,7.941014133E-3,1.985253533E-3
1.766903818E0,-1.710372418E-2,1.832541777E-3,1.985253533E-3
1.776616578E0,-1.221694518E-2,-7.941014133E-3,1.985253533E-3
1.786330172E0,-2.443389036E-3,-1.771457121E-2,1.985253533E-3
1.796044495E0,4.886778072E-3,-2.626643144E-2,7.635590737E-4
1.805757985E0,9.773556143E-3,-2.993151546E-2,-4.581354442E-4
1.815470745E0,1.099525020E-2,-2.870982140E-2,-4.581354442E-4
1.825184235E0,8.551862091E-3,-2.260134928E-2,-4.581354442E-4
1.834898610E0,4.886778072E-3,-1.282779220E-2,-4.581354442E-4
1.844612099E0,-0.000000000E0,-1.832541777E-3,-1.679830020E-3
1.854324860E0,-1.221694518E-3,9.162709117E-3,-1.679830020E-3
1.864038453E0,-3.665083554E-3,1.649287529E-2,-4.581354442E-4
1.873752776E0,-2.443389036E-3,2.260134928E-2,7.635590737E-4
1.883466266E0,-0.000000000E0,2.748812735E-2,-4.581354442E-4
1.893179026E0,1.221694518E-3,3.237490356E-2,-1.679830020E-3
1.902892516E0,2.443389036E-3,3.603998944E-2,-2.901524538E-3
1.912606891E0,2.443389036E-3,3.359659761E-2,-1.679830020E-3
1.922320381E0,2.443389036E-3,2.504473738E-2,7.635590737E-4
1.932033141E0,1.221694518E-3,1.404948719E-2,4.428642802E-3
1.941746735E0,-1.221694518E-3,7.941014133E-3,6.872031838E-3
1.951461058E0,-4.886778072E-3,6.719320081E-3,9.315420873E-3
1.961174547E0,-6.108472589E-3,1.038440317E-2,8.093725890E-3
1.970887256E0,-6.108472589E-3,1.649287529E-2,6.872031838E-3
1.980600849E0,-4.886778072E-3,1.893626526E-2,5.650337320E-3
1.990315172E0,-0.000000000E0,2.137965336E-2,3.206948051E-3
2.000028662E0,6.108472589E-3,2.260134928E-2,1.985253533E-3
2.009741422E0,1.221694518E-2,2.382304333E-2,1.985253533E-3
2.019455016E0,1.710372418E-2,2.382304333E-2,1.985253533E-3
2.029169339E0,2.199050039E-2,2.504473738E-2,3.206948051E-3
2.038882828E0,2.321219631E-2,2.504473738E-2,5.650337320E-3
2.048595589E0,2.199050039E-2,2.748812735E-2,8.093725890E-3
2.058309183E0,1.832541823E-2,3.115320951E-2,8.093725890E-3
2.068023506E0,1.343864016E-2,3.970507160E-2,8.093725890E-3
2.077736943E0,9.773556143E-3,4.581354558E-2,8.093725890E-3
2.087449703E0,8.551862091E-3,4.703523964E-2,5.650337320E-3
2.097163297E0,8.551862091E-3,4.459185153E-2,4.428642802E-3
2.106877620E0,7.330167107E-3,4.214845970E-2,4.428642802E-3
2.116591110E0,4.886778072E-3,4.459185153E-2,5.650337320E-3
2.126303870E0,-0.000000000E0,4.947862774E-2,6.872031838E-3
2.136017464E0,-4.886778072E-3,4.947862774E-2,6.872031838E-3
2.145731787E0,-1.099525020E-2,4.337015375E-2,6.872031838E-3
2.155445276E0,-1.343864016E-2,3.115320951E-2,3.206948051E-3
2.165157985E0,-1.466033421E-2,1.893626526E-2,1.985253533E-3
2.174871578E0,-1.343864016E-2,4.275931045E-3,-1.679830020E-3
2.184585901E0,-9.773556143E-3,-1.527118124E-2,-6.566607859E-3
2.194299391E0,-3.665083554E-3,-3.359659761E-2,-9.009997360E-3
2.204012151E0,2.443389036E-3,-4.581354558E-2,-9.009997360E-3
2.213725745E0,4.886778072E-3,-5.192201585E-2,-9.009997360E-3
2.223440068E0,3.665083554E-3,-4.947862774E-2,-7.788302377E-3
2.233153558E0,-0.000000000E0,-3.481829539E-2,-5.344913341E-3
2.242866318E0,-2.443389036E-3,-1.771457121E-2,-4.123218823E-3
2.252579808E0,-1.221694518E-3,-6.719320081E-3,-4.123218823E-3
2.262294235E0,-0.000000000E0,-3.054236295E-3,-5.344913341E-3
2.272007672E0,2.443389036E-3,-9.162709117E-3,-7.788302377E-3
2.281720433E0,3.665083554E-3,-1.893626526E-2,-1.023169141E-2
2.291434026E0,1.221694518E-3,-2.870982140E-2,-1.267508045E-2
2.301148349E0,-2.443389036E-3,-3.726168349E-2,-1.267508045E-2
2.310861839E0,-8.551862091E-3,-4.092676565E-2,-1.145338640E-2
2.320574599E0,-1.221694518E-2,-3.970507160E-2,-9.009997360E-3
2.330288193E0,-1.588202827E-2,-3.359659761E-2,-6.566607859E-3
2.340002516E0,-1.588202827E-2,-2.504473738E-2,-4.123218823E-3
2.349716006E0,-1.710372418E-2,-1.527118124E-2,-1.679830020E-3
2.359428714E0,-1.832541823E-2,-7.941014133E-3,-4.581354442E-4
2.369142308E0,-1.832541823E-2,-9.162709117E-3,-2.901524538E-3
2.378856631E0,-2.076880634E-2,-1.527118124E-2,-5.344913341E-3
2.388570120E0,-1.954711229E-2,-2.382304333E-2,-9.009997360E-3
2.398282881E0,-2.199050039E-2,-2.870982140E-2,-1.023169141E-2
2.407996474E0,-2.199050039E-2,-2.870982140E-2,-9.009997360E-3
2.417710797E0,-2.199050039E-2,-2.137965336E-2,-6.566607859E-3
2.427424287E0,-1.832541823E-2,-1.282779220E-2,-5.344913341E-3
2.437137047E0,-1.343864016E-2,-1.832541777E-3,-1.679830020E-3
2.446850537E0,-7.330167107E-3,1.160609815E-2,1.985253533E-3
2.456564912E0,-1.221694518E-3,2.382304333E-2,3.206948051E-3
2.466278401E0,3.665083554E-3,3.359659761E-2,1.985253533E-3
2.475991162E0,8.551862091E-3,3.848337755E-2,-4.581354442E-4
2.485704756E0,1.221694518E-2,3.481829539E-2,-2.901524538E-3
2.495419078E0,1.343864016E-2,2.015795931E-2,-5.344913341E-3
2.505132568E0,1.343864016E-2,-1.832541777E-3,-9.009997360E-3
2.514845328E0,1.099525020E-2,-3.115320951E-2,-1.023169141E-2
2.524558922E0,4.886778072E-3,-5.925218388E-2,-9.009997360E-3
2.534273245E0,-1.221694518E-3,-8.002099395E-2,-7.788302377E-3
2.543986735E0,-7.330167107E-3,-8.979454637E-2,-5.344913341E-3
2.553699443E0,-1.221694518E-2,-8.979454637E-2,-2.901524538E-3
2.563413037E0,-1.466033421E-2,-8.124268800E-2,-1.679830020E-3
2.573127360E0,-1.710372418E-2,-6.536065787E-2,-2.901524538E-3
2.582840849E0,-1.710372418E-2,-4.581354558E-2,-1.679830020E-3
2.592553610E0,-1.588202827E-2,-2.382304333E-2,-1.679830020E-3
2.602267203E0,-1.466033421E-2,-1.832541777E-3,-4.123218823E-3
2.611981526E0,-1.343864016E-2,1.649287529E-2,-4.123218823E-3
2.621695016E0,-1.343864016E-2,3.115320951E-2,-5.344913341E-3
2.631407724E0,-1.343864016E-2,4.214845970E-2,-7.788302377E-3
2.641121318E0,-1.466033421E-2,4.581354558E-2,-9.009997360E-3
2.650835641E0,-1.710372418E-2,4.092676565E-2,-1.145338640E-2
2.660549131E0,-1.710372418E-2,3.115320951E-2,-1.267508045E-2
2.670261891E0,-1.588202827E-2,1.893626526E-2,-1.145338640E-2
2.679975485E0,-1.343864016E-2,4.275931045E-3,-1.145338640E-2
2.689689808E0,-9.773556143E-3,-1.038440317E-2,-9.009997360E-3
2.699403297E0,-7.330167107E-3,-2.382304333E-2,-6.566607859E-3
2.709116058E0,-3.665083554E-3,-3.603998944E-2,-2.901524538E-3
2.718829547E0,1.221694518E-3,-4.581354558E-2,-4.581354442E-4
2.728543922E0,3.665083554E-3,-4.825693369E-2,3.206948051E-3
2.738257412E0,2.443389036E-3,-4.214845970E-2,5.650337320E-3
2.747970172E0,1.221694518E-3,-3.115320951E-2,8.093725890E-3
2.757683766E0,1.221694518E-3,-1.893626526E-2,8.093725890E-3
2.767398089E0,3.665083554E-3,-5.497625098E-3,8.093725890E-3
2.777111578E0,7.330167107E-3,3.054236295E-3,6.872031838E-3
2.786824287E0,1.221694518E-2,1.282779220E-2,4.428642802E-3
2.796537881E0,1.466033421E-2,2.260134928E-2,1.985253533E-3
2.806252203E0,1.466033421E-2,2.870982140E-2,-1.679830020E-3
2.815965693E0,1.466033421E-2,3.359659761E-2,-1.679830020E-3
2.825678453E0,1.099525020E-2,2.993151546E-2,-2.901524538E-3
2.835392047E0,4.886778072E-3,2.504473738E-2,-2.901524538E-3
2.845106370E0,-1.221694518E-3,1.771457121E-2,-2.901524538E-3
2.854819860E0,-9.773556143E-3,9.162709117E-3,-2.901524538E-3
2.864532568E0,-1.588202827E-2,-1.832541777E-3,-2.901524538E-3
2.874246162E0,-1.710372418E-2,-1.282779220E-2,-2.901524538E-3
2.883960485E0,-1.588202827E-2,-2.015795931E-2,-2.901524538E-3
2.893673974E0,-1.221694518E-2,-2.260134928E-2,-1.679830020E-3
2.903386735E0,-1.099525020E-2,-1.893626526E-2,7.635590737E-4
2.913100328E0,-9.773556143E-3,-1.160609815E-2,3.206948051E-3
2.922814651E0,-1.099525020E-2,-6.108472589E-4,1.985253533E-3
2.932528141E0,-1.221694518E-2,1.038440317E-2,7.635590737E-4
2.942240849E0,-1.466033421E-2,1.893626526E-2,-4.581354442E-4
2.951954443E0,-1.343864016E-2,2.260134928E-2,-1.679830020E-3
2.961668766E0,-1.099525020E-2,2.382304333E-2,-2.901524538E-3
2.971382256E0,-4.886778072E-3,2.015795931E-2,-4.123218823E-3
2.981095016E0,2.443389036E-3,1.160609815E-2,-4.123218823E-3
2.990808610E0,8.551862091E-3,6.108472589E-4,-2.901524538E-3
3.000522933E0,1.343864016E-2,-1.038440317E-2,-2.901524538E-3
3.010236370E0,1.710372418E-2,-2.137965336E-2,-1.679830020E-3
3.019949131E0,1.832541823E-2,-2.993151546E-2,7.635590737E-4
3.029662724E0,1.832541823E-2,-3.603998944E-2,4.428642802E-3
3.039377047E0,1.832541823E-2,-3.848337755E-2,6.872031838E-3
3.049090537E0,1.588202827E-2,-3.726168349E-2,8.093725890E-3
3.058803245E0,1.099525020E-2,-2.993151546E-2,6.872031838E-3
3.068516839E0,8.551862091E-3,-2.015795931E-2,4.428642802E-3
3.078231162E0,7.330167107E-3,-6.719320081E-3,4.428642802E-3
3.087944651E0,4.886778072E-3,7.941014133E-3,1.985253533E-3
3.097657412E0,4.886778072E-3,2.382304333E-2,-4.581354442E-4
3.107371006E0,2.443389036E-3,3.726168349E-2,-1.679830020E-3
3.117085328E0,-1.221694518E-3,4.703523964E-2,-1.679830020E-3
3.126798766E0,-6.108472589E-3,4.947862774E-2,-2.901524538E-3
3.136511526E0,-1.221694518E-2,4.459185153E-2,-5.344913341E-3
3.146225120E0,-1.710372418E-2,3.726168349E-2,-4.123218823E-3
3.155939443E0,-1.954711229E-2,2.504473738E-2,-2.901524538E-3
3.165652933E0,-2.076880634E-2,1.527118124E-2,7.635590737E-4
3.175365641E0,-2.076880634E-2,4.275931045E-3,3.206948051E-3
3.185079235E0,-2.076880634E-2,-4.275931045E-3,5.650337320E-3
3.194793558E0,-2.321219631E-2,-1.160609815E-2,6.872031838E-3
3.204507047E0,-2.809897438E-2,-1.771457121E-2,5.650337320E-3
3.214219808E0,-3.665083647E-2,-2.382304333E-2,7.635590737E-4
3.223933401E0,-4.275930673E-2,-2.626643144E-2,-5.344913341E-3
3.233647724E0,-4.642439261E-2,-3.115320951E-2,-1.145338640E-2
3.243361162E0,-4.398100078E-2,-3.726168349E-2,-1.511846948E-2
3.253073922E0,-3.542914242E-2,-4.214845970E-2,-1.634016447E-2
3.262787516E0,-2.565558441E-2,-4.581354558E-2,-1.634016447E-2
3.272501839E0,-1.343864016E-2,-4.581354558E-2,-1.389677543E-2
3.282215328E0,-3.665083554E-3,-4.581354558E-2,-9.009997360E-3
3.291928037E0,2.443389036E-3,-4.581354558E-2,-4.123218823E-3
3.301641631E0,4.886778072E-3,-4.459185153E-2,1.985253533E-3
3.311355953E0,6.108472589E-3,-3.848337755E-2,6.872031838E-3
3.321069443E0,6.108472589E-3,-2.260134928E-2,1.175880991E-2
3.330782203E0,6.108472589E-3,4.275931045E-3,1.542389300E-2
3.340495693E0,9.773556143E-3,3.115320951E-2,1.664558798E-2
3.350210068E0,1.343864016E-2,4.825693369E-2,1.542389300E-2
3.359923558E0,1.710372418E-2,4.947862774E-2,1.420219894E-2
3.369636318E0,1.832541823E-2,4.092676565E-2,1.053711493E-2
3.379349808E0,1.710372418E-2,3.359659761E-2,9.315420873E-3
3.389064183E0,1.221694518E-2,3.481829539E-2,6.872031838E-3
3.398777672E0,7.330167107E-3,3.848337755E-2,4.428642802E-3
3.408490433E0,1.221694518E-3,4.337015375E-2,1.985253533E-3
3.418204026E0,-2.443389036E-3,4.337015375E-2,7.635590737E-4
3.427918349E0,-1.221694518E-3,3.481829539E-2,7.635590737E-4
3.437631787E0,1.221694518E-3,2.260134928E-2,1.985253533E-3
3.447344547E0,3.665083554E-3,1.038440317E-2,4.428642802E-3
3.457058141E0,2.443389036E-3,6.108472589E-4,9.315420873E-3
3.466772464E0,-1.221694518E-3,-4.275931045E-3,1.175880991E-2
3.476485953E0,-6.108472589E-3,-3.054236295E-3,1.298050396E-2
3.486198662E0,-8.551862091E-3,1.832541777E-3,1.175880991E-2
3.495912256E0,-6.108472589E-3,6.719320081E-3,6.872031838E-3
3.505626578E0,-0.000000000E0,1.160609815E-2,4.428642802E-3
3.515340068E0,8.551862091E-3,1.771457121E-2,-4.581354442E-4
3.525052776E0,1.466033421E-2,2.504473738E-2,-2.901524538E-3
3.534766370E0,1.832541823E-2,3.237490356E-2,-5.344913341E-3
3.544480693E0,1.954711229E-2,3.481829539E-2,-5.344913341E-3
3.554194183E0,1.832541823E-2,3.115320951E-2,-4.123218823E-3
3.563906891E0,1.221694518E-2,2.015795931E-2,-2.901524538E-3
3.573620485E0,6.108472589E-3,5.497625098E-3,-1.679830020E-3
3.583334808E0,-1.221694518E-3,-1.038440317E-2,-1.679830020E-3
3.593048297E0,-6.108472589E-3,-2.260134928E-2,-4.581354442E-4
3.602761006E0,-8.551862091E-3,-3.481829539E-2,-4.581354442E-4
3.612474599E0,-9.773556143E-3,-4.581354558E-2,-2.901524538E-3
3.622188922E0,-9.773556143E-3,-4.947862774E-2,-1.679830020E-3
3.631902412E0,-1.099525020E-2,-4.825693369E-2,-2.901524538E-3
3.641615120E0,-1.099525020E-2,-3.970507160E-2,-4.123218823E-3
3.651328714E0,-1.221694518E-2,-2.626643144E-2,-5.344913341E-3
3.661043037E0,-1.466033421E-2,-1.038440317E-2,-5.344913341E-3
3.670756526E0,-1.466033421E-2,4.275931045E-3,-4.123218823E-3
3.680469235E0,-1.588202827E-2,1.527118124E-2,-1.679830020E-3
3.690182828E0,-1.588202827E-2,2.137965336E-2,-4.581354442E-4
3.699897151E0,-1.343864016E-2,2.015795931E-2,-1.679830020E-3
3.709610641E0,-1.099525020E-2,1.527118124E-2,-1.679830020E-3
3.719323349E0,-6.108472589E-3,1.832541777E-3,-4.581354442E-4
3.729036943E0,-1.221694518E-3,-1.282779220E-2,7.635590737E-4
3.738751266E0,-0.000000000E0,-2.748812735E-2,7.635590737E-4
3.748464756E0,1.221694518E-3,-3.481829539E-2,7.635590737E-4
3.758177464E0,-0.000000000E0,-3.359659761E-2,7.635590737E-4
3.767891058E0,1.221694518E-3,-2.993151546E-2,-4.581354442E-4
3.777605381E0,2.443389036E-3,-2.626643144E-2,7.635590737E-4
3.787318870E0,6.108472589E-3,-2.626643144E-2,-4.581354442E-4
3.797031578E0,1.099525020E-2,-2.748812735E-2,-4.581354442E-4
3.806745172E0,1.221694518E-2,-2.748812735E-2,-1.679830020E-3
3.816459495E0,9.773556143E-3,-2.260134928E-2,-1.679830020E-3
3.826172985E0,6.108472589E-3,-1.649287529E-2,-2.901524538E-3
3.835885693E0,1.221694518E-3,-6.719320081E-3,-2.901524538E-3
3.845599287E0,-4.886778072E-3,6.108472589E-4,-4.123218823E-3
3.855313610E0,-9.773556143E-3,4.275931045E-3,-5.344913341E-3
3.865027047E0,-1.221694518E-2,6.719320081E-3,-2.901524538E-3
3.874739808E0,-1.466033421E-2,6.719320081E-3,-1.679830020E-3
3.884453401E0,-1.588202827E-2,6.719320081E-3,7.635590737E-4
3.894167724E0,-1.710372418E-2,1.832541777E-3,1.985253533E-3
3.903881162E0,-1.588202827E-2,-6.108472589E-4,7.635590737E-4
3.913593922E0,-1.343864016E-2,-6.108472589E-4,7.635590737E-4
3.923307516E0,-1.099525020E-2,3.054236295E-3,-4.581354442E-4
3.933021839E0,-6.108472589E-3,7.941014133E-3,-1.679830020E-3
3.942735276E0,-0.000000000E0,1.404948719E-2,-4.123218823E-3
3.952448037E0,7.330167107E-3,1.893626526E-2,-2.901524538E-3
3.962161526E0,1.343864016E-2,2.015795931E-2,-1.679830020E-3
3.971875901E0,1.588202827E-2,1.771457121E-2,-4.581354442E-4
3.981589391E0,1.588202827E-2,1.649287529E-2,-4.581354442E-4
3.991302151E0,1.221694518E-2,1.771457121E-2,-4.581354442E-4
4.001015641E0,7.330167107E-3,1.893626526E-2,-1.679830020E-3
4.010730016E0,4.886778072E-3,1.893626526E-2,-2.901524538E-3
4.020443506E0,3.665083554E-3,1.527118124E-2,-2.901524538E-3
4.030156214E0,3.665083554E-3,1.038440317E-2,-1.679830020E-3
4.039869808E0,3.665083554E-3,4.275931045E-3,-1.679830020E-3
4.049584131E0,2.443389036E-3,3.054236295E-3,-4.581354442E-4
4.059297620E0,-0.000000000E0,7.941014133E-3,-4.581354442E-4
4.069010328E0,-6.108472589E-3,1.404948719E-2,7.635590737E-4
4.078723922E0,-1.099525020E-2,1.893626526E-2,-4.581354442E-4
4.088438245E0,-1.221694518E-2,2.260134928E-2,-1.679830020E-3
4.098151683E0,-1.343864016E-2,2.260134928E-2,-2.901524538E-3
4.107864443E0,-9.773556143E-3,2.137965336E-2,-2.901524538E-3
4.117578037E0,-4.886778072E-3,2.015795931E-2,-5.344913341E-3
4.127292308E0,1.221694518E-3,1.771457121E-2,-4.123218823E-3
4.137005797E0,6.108472589E-3,1.527118124E-2,-1.679830020E-3
4.146718558E0,7.330167107E-3,1.282779220E-2,-4.581354442E-4
4.156432047E0,4.886778072E-3,1.282779220E-2,1.985253533E-3
4.166146422E0,1.221694518E-3,1.282779220E-2,4.428642802E-3
4.175859912E0,-0.000000000E0,9.162709117E-3,4.428642802E-3
4.185572620E0,-0.000000000E0,1.832541777E-3,5.650337320E-3
4.195286214E0,-0.000000000E0,-4.275931045E-3,5.650337320E-3
4.205000537E0,1.221694518E-3,-3.054236295E-3,6.872031838E-3
4.214713974E0,1.221694518E-3,4.275931045E-3,5.650337320E-3
4.224426735E0,1.221694518E-3,1.038440317E-2,4.428642802E-3
4.234140328E0,-0.000000000E0,1.282779220E-2,4.428642802E-3
4.243854599E0,-2.443389036E-3,1.038440317E-2,4.428642802E-3
4.253568089E0,-3.665083554E-3,6.719320081E-3,3.206948051E-3
4.263280849E0,-4.886778072E-3,3.054236295E-3,3.206948051E-3
4.272994339E0,-4.886778072E-3,-6.108472589E-4,1.985253533E-3
4.282708714E0,-4.886778072E-3,-4.275931045E-3,-4.581354442E-4
4.292422203E0,-4.886778072E-3,-9.162709117E-3,-2.901524538E-3
4.302134912E0,-1.221694518E-3,-1.404948719E-2,-4.123218823E-3
4.311848506E0,-1.221694518E-3,-1.893626526E-2,-5.344913341E-3
4.321562828E0,-0.000000000E0,-1.893626526E-2,-2.901524538E-3
4.331276266E0,-2.443389036E-3,-1.771457121E-2,-1.679830020E-3
4.340989026E0,-6.108472589E-3,-1.404948719E-2,-4.581354442E-4
4.350702620E0,-8.551862091E-3,-1.038440317E-2,1.985253533E-3
4.360416891E0,-1.221694518E-2,-6.719320081E-3,3.206948051E-3
4.370130381E0,-1.221694518E-2,-6.719320081E-3,4.428642802E-3
4.379843089E0,-1.343864016E-2,-4.275931045E-3,4.428642802E-3
4.389556683E0,-1.466033421E-2,-6.108472589E-4,3.206948051E-3
4.399271006E0,-1.343864016E-2,6.108472589E-4,1.985253533E-3
4.408984495E0,-1.343864016E-2,4.275931045E-3,1.985253533E-3
4.418697203E0,-1.099525020E-2,9.162709117E-3,-4.581354442E-4
4.428410797E0,-9.773556143E-3,1.404948719E-2,-1.679830020E-3
4.438125068E0,-3.665083554E-3,1.404948719E-2,-2.901524538E-3
4.447838558E0,1.221694518E-3,5.497625098E-3,-4.581354442E-4
4.457551266E0,8.551862091E-3,-7.941014133E-3,7.635590737E-4
4.467264860E0,1.221694518E-2,-1.527118124E-2,1.985253533E-3
4.476979183E0,1.221694518E-2,-1.527118124E-2,7.635590737E-4
4.486692672E0,9.773556143E-3,-1.038440317E-2,7.635590737E-4
4.496405381E0,7.330167107E-3,-4.275931045E-3,-4.581354442E-4
4.506118974E0,6.108472589E-3,-6.108472589E-4,-4.581354442E-4
4.515833245E0,4.886778072E-3,4.275931045E-3,-4.581354442E-4
4.525546735E0,3.665083554E-3,9.162709117E-3,7.635590737E-4
4.535259495E0,1.221694518E-3,1.527118124E-2,7.635590737E-4
4.544972985E0,-1.221694518E-3,1.527118124E-2,3.206948051E-3
4.554687360E0,-3.665083554E-3,9.162709117E-3,6.872031838E-3
4.564400849E0,-7.330167107E-3,-6.108472589E-4,8.093725890E-3
4.574113558E0,-1.099525020E-2,-1.038440317E-2,6.872031838E-3
4.583827151E0,-1.343864016E-2,-1.649287529E-2,5.650337320E-3
4.593541422E0,-1.588202827E-2,-2.015795931E-2,3.206948051E-3
4.603254912E0,-1.466033421E-2,-1.649287529E-2,7.635590737E-4
4.612967672E0,-1.343864016E-2,-6.719320081E-3,-4.123218823E-3
4.622681162E0,-1.099525020E-2,3.054236295E-3,-5.344913341E-3
4.632395537E0,-8.551862091E-3,1.404948719E-2,-6.566607859E-3
4.642108974E0,-6.108472589E-3,1.893626526E-2,-5.344913341E-3
4.651821735E0,-4.886778072E-3,2.137965336E-2,-1.679830020E-3
4.661535224E0,-6.108472589E-3,2.137965336E-2,-4.581354442E-4
4.671249599E0,-7.330167107E-3,2.626643144E-2,1.985253533E-3
4.680963089E0,-8.551862091E-3,3.115320951E-2,4.428642802E-3
4.690675797E0,-8.551862091E-3,3.359659761E-2,5.650337320E-3
4.700389391E0,-4.886778072E-3,3.237490356E-2,6.872031838E-3
4.710103714E0,2.443389036E-3,2.870982140E-2,5.650337320E-3
4.719817151E0,1.099525020E-2,2.015795931E-2,5.650337320E-3
4.729529860E0,1.588202827E-2,3.054236295E-3,6.872031838E-3
4.739243453E0,1.832541823E-2,-1.771457121E-2,6.872031838E-3
4.748957776E0,1.588202827E-2,-3.970507160E-2,8.093725890E-3
4.758671214E0,9.773556143E-3,-5.680879578E-2,1.053711493E-2
4.768383974E0,-1.221694518E-3,-6.658235192E-2,1.175880991E-2
4.778097568E0,-1.343864016E-2,-6.780404598E-2,1.053711493E-2
4.787811839E0,-2.321219631E-2,-6.047387794E-2,9.315420873E-3
4.797525328E0,-2.809897438E-2,-4.459185153E-2,6.872031838E-3
4.807238037E0,-2.687728032E-2,-2.504473738E-2,3.206948051E-3
4.816951631E0,-1.954711229E-2,-7.941014133E-3,-4.581354442E-4
4.826665953E0,-9.773556143E-3,3.054236295E-3,-5.344913341E-3
4.836379391E0,1.221694518E-3,1.832541777E-3,-7.788302377E-3
4.846092151E0,8.551862091E-3,-9.162709117E-3,-7.788302377E-3
4.855805641E0,9.773556143E-3,-2.504473738E-2,-5.344913341E-3
4.865520016E0,4.886778072E-3,-3.970507160E-2,-2.901524538E-3
4.875233506E0,-3.665083554E-3,-4.703523964E-2,7.635590737E-4
4.884946214E0,-1.343864016E-2,-4.703523964E-2,3.206948051E-3
4.894659808E0,-1.710372418E-2,-3.848337755E-2,5.650337320E-3
4.904374078E0,-1.832541823E-2,-2.504473738E-2,5.650337320E-3
4.914087568E0,-1.466033421E-2,-1.038440317E-2,4.428642802E-3
4.923800276E0,-4.886778072E-3,6.108472589E-4,7.635590737E-4
4.933513870E0,2.443389036E-3,6.719320081E-3,-4.581354442E-4
4.943228193E0,7.330167107E-3,1.038440317E-2,-1.679830020E-3
4.952941631E0,8.551862091E-3,1.160609815E-2,-1.679830020E-3
4.962654339E0,4.886778072E-3,1.160609815E-2,7.635590737E-4
4.972367933E0,-1.221694518E-3,1.038440317E-2,3.206948051E-3
4.982082256E0,-6.108472589E-3,3.054236295E-3,3.206948051E-3
4.991795693E0,-8.551862091E-3,-7.941014133E-3,4.428642802E-3
5.001508453E0,-4.886778072E-3,-2.260134928E-2,6.872031838E-3
5.011221943E0,3.665083554E-3,-3.481829539E-2,8.093725890E-3
5.020936318E0,1.221694518E-2,-3.359659761E-2,8.093725890E-3
5.030649756E0,1.710372418E-2,-1.282779220E-2,8.093725890E-3
5.040362516E0,1.832541823E-2,2.382304333E-2,8.093725890E-3
5.050076006E0,1.710372418E-2,5.803048983E-2,9.315420873E-3
5.059790381E0,1.710372418E-2,7.879929990E-2,8.093725890E-3
5.069503870E0,1.710372418E-2,8.368607610E-2,8.093725890E-3
5.079216578E0,1.710372418E-2,7.635590434E-2,4.428642802E-3
5.088930068E0,1.466033421E-2,6.169557199E-2,7.635590737E-4
5.098644443E0,1.221694518E-2,4.092676565E-2,-1.679830020E-3
5.108357933E0,1.221694518E-2,1.404948719E-2,-2.901524538E-3
5.118070641E0,1.221694518E-2,-1.527118124E-2,-5.344913341E-3
5.127784235E0,1.099525020E-2,-3.726168349E-2,-2.901524538E-3
5.137498506E0,1.221694518E-2,-4.825693369E-2,-4.581354442E-4
5.147211995E0,1.099525020E-2,-4.337015375E-2,3.206948051E-3
5.156924703E0,8.551862091E-3,-2.993151546E-2,4.428642802E-3
5.166638297E0,8.551862091E-3,-1.282779220E-2,4.428642802E-3
5.176352568E0,8.551862091E-3,6.719320081E-3,1.985253533E-3
5.186066058E0,9.773556143E-3,2.504473738E-2,-4.581354442E-4
5.195778766E0,1.343864016E-2,3.848337755E-2,-4.123218823E-3
5.205492360E0,1.710372418E-2,4.581354558E-2,-7.788302377E-3
5.215206631E0,1.954711229E-2,4.581354558E-2,-9.009997360E-3
5.224920120E0,2.199050039E-2,3.848337755E-2,-9.009997360E-3
5.234632828E0,2.321219631E-2,2.626643144E-2,-5.344913341E-3
5.244346422E0,2.199050039E-2,7.941014133E-3,-1.679830020E-3
5.254060745E0,1.954711229E-2,-1.160609815E-2,1.985253533E-3
5.263774183E0,1.710372418E-2,-2.993151546E-2,5.650337320E-3
5.273486943E0,1.343864016E-2,-4.214845970E-2,6.872031838E-3
5.283200433E0,9.773556143E-3,-5.070032179E-2,6.872031838E-3
5.292914808E0,9.773556143E-3,-5.192201585E-2,4.428642802E-3
5.302628245E0,9.773556143E-3,-4.581354558E-2,1.985253533E-3
5.312341006E0,1.343864016E-2,-3.115320951E-2,-4.581354442E-4
5.322054495E0,1.710372418E-2,-1.404948719E-2,-1.679830020E-3
5.331768870E0,2.076880634E-2,3.054236295E-3,-1.679830020E-3
5.341482308E0,2.443389036E-2,1.527118124E-2,7.635590737E-4
5.351195068E0,2.809897438E-2,2.015795931E-2,1.985253533E-3
5.360908558E0,3.176405653E-2,1.527118124E-2,1.985253533E-3
5.370622933E0,3.176405653E-2,7.941014133E-3,4.428642802E-3
5.380336370E0,2.932066843E-2,1.832541777E-3,1.985253533E-3
5.390049131E0,2.321219631E-2,-5.497625098E-3,-1.679830020E-3
5.399762620E0,1.832541823E-2,-1.160609815E-2,-5.344913341E-3
5.409476995E0,1.466033421E-2,-1.649287529E-2,-1.023169141E-2
5.419190433E0,1.343864016E-2,-2.137965336E-2,-1.267508045E-2
5.428903193E0,1.710372418E-2,-2.260134928E-2,-1.145338640E-2
5.438616683E0,1.832541823E-2,-2.382304333E-2,-1.023169141E-2
5.448331058E0,2.076880634E-2,-2.260134928E-2,-7.788302377E-3
5.458044547E0,2.076880634E-2,-1.771457121E-2,-1.679830020E-3
5.467757256E0,1.832541823E-2,-7.941014133E-3,5.650337320E-3
5.477470745E0,1.343864016E-2,-6.108472589E-4,6.872031838E-3
5.487185120E0,8.551862091E-3,9.162709117E-3,5.650337320E-3
5.496898610E0,3.665083554E-3,1.893626526E-2,1.985253533E-3
5.506611318E0,2.443389036E-3,2.993151546E-2,7.635590737E-4
5.516324912E0,4.886778072E-3,4.459185153E-2,7.635590737E-4
5.526039183E0,8.551862091E-3,6.169557199E-2,7.635590737E-4
5.535752672E0,1.221694518E-2,7.757759839E-2,7.635590737E-4
5.545465381E0,1.588202827E-2,8.735115826E-2,4.428642802E-3
5.555178974E0,1.832541823E-2,8.735115826E-2,8.093725890E-3
5.564893245E0,1.832541823E-2,8.002099395E-2,9.315420873E-3
5.574606735E0,1.710372418E-2,6.658235192E-2,1.175880991E-2
5.584319443E0,1.466033421E-2,4.947862774E-2,1.175880991E-2
5.594033037E0,1.221694518E-2,2.870982140E-2,1.053711493E-2
5.603747360E0,1.099525020E-2,9.162709117E-3,6.872031838E-3
5.613460797E0,1.099525020E-2,-1.038440317E-2,4.428642802E-3
5.623173558E0,1.099525020E-2,-2.137965336E-2,3.206948051E-3
5.632887047E0,1.221694518E-2,-2.626643144E-2,1.985253533E-3
5.642601422E0,1.466033421E-2,-2.504473738E-2,7.635590737E-4
5.652314860E0,1.343864016E-2,-1.893626526E-2,7.635590737E-4
5.662027620E0,9.773556143E-3,-1.282779220E-2,-4.581354442E-4
5.671741110E0,6.108472589E-3,-3.054236295E-3,7.635590737E-4
5.681455485E0,1.221694518E-3,6.719320081E-3,7.635590737E-4
5.691168922E0,-2.443389036E-3,1.893626526E-2,7.635590737E-4
5.700881683E0,-4.886778072E-3,2.748812735E-2,-4.581354442E-4
5.710595172E0,-7.330167107E-3,3.237490356E-2,7.635590737E-4
5.720309547E0,-7.330167107E-3,3.115320951E-2,-4.581354442E-4
5.730023037E0,-6.108472589E-3,2.382304333E-2,-4.581354442E-4
5.739735745E0,-2.443389036E-3,1.282779220E-2,1.985253533E-3
5.749449339E0,1.221694518E-3,1.832541777E-3,1.985253533E-3
5.759163610E0,3.665083554E-3,-7.941014133E-3,3.206948051E-3
5.768877099E0,4.886778072E-3,-1.404948719E-2,1.985253533E-3
5.778589808E0,6.108472589E-3,-1.771457121E-2,1.985253533E-3
5.788303401E0,7.330167107E-3,-1.771457121E-2,1.985253533E-3
5.798017672E0,6.108472589E-3,-1.404948719E-2,1.985253533E-3
5.807731162E0,4.886778072E-3,-6.719320081E-3,3.206948051E-3
5.817443870E0,4.886778072E-3,-1.832541777E-3,4.428642802E-3
5.827157464E0,4.886778072E-3,-1.832541777E-3,5.650337320E-3
5.836871787E0,6.108472589E-3,-4.275931045E-3,5.650337320E-3
5.846585224E0,7.330167107E-3,-3.054236295E-3,6.872031838E-3
5.856297985E0,7.330167107E-3,5.497625098E-3,8.093725890E-3
5.866011474E0,8.551862091E-3,1.649287529E-2,6.872031838E-3
5.875725849E0,1.099525020E-2,2.504473738E-2,4.428642802E-3
5.885439339E0,1.221694518E-2,2.870982140E-2,4.428642802E-3
5.895152047E0,1.466033421E-2,2.748812735E-2,3.206948051E-3
5.904865641E0,1.466033421E-2,2.260134928E-2,1.985253533E-3
5.914579912E0,1.099525020E-2,1.404948719E-2,3.206948051E-3
5.924293401E0,6.108472589E-3,3.054236295E-3,1.985253533E-3
5.934006110E0,-0.000000000E0,-9.162709117E-3,1.985253533E-3
5.943719703E0,-6.108472589E-3,-1.893626526E-2,3.206948051E-3
5.953433974E0,-7.330167107E-3,-2.748812735E-2,4.428642802E-3
5.963147464E0,-8.551862091E-3,-3.237490356E-2,6.872031838E-3
5.972860172E0,-7.330167107E-3,-3.237490356E-2,6.872031838E-3
5.982573766E0,-4.886778072E-3,-3.115320951E-2,6.872031838E-3
5.992288089E0,-1.221694518E-3,-2.870982140E-2,3.206948051E-3
6.002001526E0,3.665083554E-3,-2.382304333E-2,7.635590737E-4
6.011714287E0,6.108472589E-3,-1.282779220E-2,7.635590737E-4
6.021427881E0,6.108472589E-3,1.832541777E-3,-4.581354442E-4
6.031142151E0,7.330167107E-3,1.160609815E-2,-1.679830020E-3
6.040855641E0,7.330167107E-3,1.527118124E-2,-1.679830020E-3
6.050568349E0,8.551862091E-3,1.282779220E-2,-4.581354442E-4
6.060281943E0,9.773556143E-3,5.497625098E-3,7.635590737E-4
6.069996266E0,1.099525020E-2,-6.719320081E-3,7.635590737E-4
6.079709703E0,9.773556143E-3,-2.015795931E-2,7.635590737E-4
6.089422464E0,7.330167107E-3,-3.359659761E-2,7.635590737E-4
6.099135953E0,4.886778072E-3,-4.092676565E-2,-4.581354442E-4
6.108850328E0,1.221694518E-3,-4.459185153E-2,-4.581354442E-4
6.118563818E0,-2.443389036E-3,-4.214845970E-2,-4.581354442E-4
6.128276526E0,-3.665083554E-3,-3.848337755E-2,1.985253533E-3
6.137990120E0,-4.886778072E-3,-3.237490356E-2,4.428642802E-3
6.147704391E0,-4.886778072E-3,-2.260134928E-2,3.206948051E-3
6.157417881E0,-6.108472589E-3,-1.160609815E-2,1.985253533E-3
6.167130589E0,-7.330167107E-3,-1.832541777E-3,-4.581354442E-4
6.176844183E0,-6.108472589E-3,6.719320081E-3,-1.679830020E-3
6.186558506E0,-4.886778072E-3,1.160609815E-2,-2.901524538E-3
6.196271943E0,-2.443389036E-3,1.527118124E-2,-5.344913341E-3
6.205984703E0,-0.000000000E0,1.160609815E-2,-5.344913341E-3
6.215698193E0,4.886778072E-3,1.832541777E-3,-5.344913341E-3
6.225412568E0,8.551862091E-3,-1.038440317E-2,-4.123218823E-3
6.235126058E0,1.099525020E-2,-2.504473738E-2,7.635590737E-4
6.244838766E0,1.221694518E-2,-3.726168349E-2,1.985253533E-3
6.254552360E0,1.221694518E-2,-4.337015375E-2,5.650337320E-3
6.264266683E0,9.773556143E-3,-4.581354558E-2,9.315420873E-3
6.273980120E0,7.330167107E-3,-4.703523964E-2,8.093725890E-3
6.283692881E0,4.886778072E-3,-4.825693369E-2,6.872031838E-3
6.293406370E0,4.886778072E-3,-4.581354558E-2,4.428642802E-3
6.303120745E0,6.108472589E-3,-4.092676565E-2,1.985253533E-3
6.312834235E0,7.330167107E-3,-2.993151546E-2,1.985253533E-3
6.322546943E0,8.551862091E-3,-1.404948719E-2,-4.581354442E-4
6.332260537E0,9.773556143E-3,-1.832541777E-3,-2.901524538E-3
6.341974860E0,8.551862091E-3,4.275931045E-3,-6.566607859E-3
6.351688297E0,7.330167107E-3,4.275931045E-3,-7.788302377E-3
6.361401058E0,2.443389036E-3,-1.832541777E-3,-6.566607859E-3
6.371114547E0,-4.886778072E-3,-9.162709117E-3,-5.344913341E-3
6.380828922E0,-1.221694518E-2,-7.941014133E-3,-1.679830020E-3
6.390542412E0,-2.076880634E-2,1.832541777E-3,7.635590737E-4
6.400255120E0,-2.565558441E-2,2.015795931E-2,4.428642802E-3
6.409968714E0,-2.321219631E-2,3.848337755E-2,5.650337320E-3
6.419683037E0,-1.588202827E-2,5.070032179E-2,8.093725890E-3
6.429396474E0,-4.886778072E-3,5.314370990E-2,6.872031838E-3
6.439109235E0,4.886778072E-3,4.947862774E-2,5.650337320E-3
6.448822724E0,1.221694518E-2,4.214845970E-2,4.428642802E-3
6.458537099E0,1.588202827E-2,3.481829539E-2,3.206948051E-3
6.468250589E0,1.832541823E-2,2.382304333E-2,3.206948051E-3
6.477963297E0,1.954711229E-2,1.038440317E-2,5.650337320E-3
6.487676891E0,1.954711229E-2,-3.054236295E-3,5.650337320E-3
6.497391214E0,1.832541823E-2,-1.282779220E-2,8.093725890E-3
6.507104651E0,1.710372418E-2,-1.282779220E-2,9.315420873E-3
6.516817412E0,1.588202827E-2,-5.497625098E-3,9.315420873E-3
6.526530901E0,1.221694518E-2,5.497625098E-3,6.872031838E-3
6.536245276E0,1.099525020E-2,1.527118124E-2,3.206948051E-3
6.545958766E0,1.099525020E-2,2.137965336E-2,-4.581354442E-4
6.555671474E0,1.099525020E-2,2.137965336E-2,-2.901524538E-3
6.565385068E0,1.221694518E-2,1.649287529E-2,-5.344913341E-3
6.575099391E0,9.773556143E-3,9.162709117E-3,-5.344913341E-3
6.584812828E0,3.665083554E-3,-6.108472589E-4,-2.901524538E-3
6.594525589E0,-3.665083554E-3,-7.941014133E-3,1.985253533E-3
6.604239078E0,-1.221694518E-2,-1.038440317E-2,5.650337320E-3
6.613953453E0,-1.832541823E-2,-6.719320081E-3,6.872031838E-3
6.623666943E0,-2.199050039E-2,-6.108472589E-4,1.053711493E-2
6.633379651E0,-2.199050039E-2,1.038440317E-2,1.053711493E-2
6.643093245E0,-1.710372418E-2,2.260134928E-2,9.315420873E-3
6.652807568E0,-8.551862091E-3,3.481829539E-2,6.872031838E-3
6.662521006E0,4.886778072E-3,3.970507160E-2,1.985253533E-3
6.672233766E0,1.710372418E-2,3.603998944E-2,-1.679830020E-3
6.681947256E0,2.565558441E-2,2.382304333E-2,-4.123218823E-3
6.691661631E0,3.054236248E-2,9.162709117E-3,-5.344913341E-3
6.701375120E0,2.687728032E-2,-6.719320081E-3,-2.901524538E-3
6.711087828E0,1.954711229E-2,-2.137965336E-2,1.985253533E-3
6.720801422E0,9.773556143E-3,-3.603998944E-2,4.428642802E-3
6.730515745E0,1.221694518E-3,-4.214845970E-2,8.093725890E-3
6.740229183E0,-4.886778072E-3,-4.214845970E-2,9.315420873E-3
6.749941943E0,-6.108472589E-3,-3.237490356E-2,1.053711493E-2
6.759655433E0,-2.443389036E-3,-1.893626526E-2,8.093725890E-3
6.769369808E0,2.443389036E-3,-6.108472589E-4,6.872031838E-3
6.779083297E0,7.330167107E-3,1.893626526E-2,6.872031838E-3
6.788796006E0,1.221694518E-2,3.603998944E-2,5.650337320E-3
6.798509599E0,1.466033421E-2,4.581354558E-2,4.428642802E-3
6.808223922E0,1.466033421E-2,4.581354558E-2,3.206948051E-3
6.817937412E0,1.466033421E-2,3.726168349E-2,3.206948051E-3
6.827650120E0,1.343864016E-2,2.504473738E-2,3.206948051E-3
6.837363714E0,1.099525020E-2,1.038440317E-2,3.206948051E-3
6.847077985E0,7.330167107E-3,-1.832541777E-3,4.428642802E-3
6.856791474E0,4.886778072E-3,-1.038440317E-2,3.206948051E-3
6.866504183E0,1.221694518E-3,-1.404948719E-2,1.985253533E-3
6.876217776E0,-2.443389036E-3,-1.404948719E-2,1.985253533E-3
6.885932099E0,-4.886778072E-3,-9.162709117E-3,7.635590737E-4
6.895645589E0,-7.330167107E-3,-6.108472589E-4,7.635590737E-4
6.905358297E0,-7.330167107E-3,1.160609815E-2,3.206948051E-3
6.915071891E0,-6.108472589E-3,2.015795931E-2,-4.581354442E-4
6.924786162E0,-3.665083554E-3,2.870982140E-2,7.635590737E-4
6.934499651E0,-1.221694518E-3,3.237490356E-2,7.635590737E-4
6.944212412E0,-0.000000000E0,2.993151546E-2,1.985253533E-3
6.953925901E0,3.665083554E-3,2.382304333E-2,1.985253533E-3
6.963640276E0,3.665083554E-3,1.649287529E-2,5.650337320E-3
6.973353766E0,3.665083554E-3,7.941014133E-3,6.872031838E-3
6.983066474E0,3.665083554E-3,-1.832541777E-3,6.872031838E-3
6.992780068E0,6.108472589E-3,-1.282779220E-2,5.650337320E-3
7.002494339E0,8.551862091E-3,-2.260134928E-2,5.650337320E-3
7.012207828E0,1.221694518E-2,-2.870982140E-2,4.428642802E-3
7.021920589E0,1.221694518E-2,-3.115320951E-2,3.206948051E-3
7.031634078E0,1.099525020E-2,-2.748812735E-2,-4.581354442E-4
7.041348453E0,8.551862091E-3,-2.260134928E-2,-2.901524538E-3
7.051061943E0,3.665083554E-3,-1.404948719E-2,-2.901524538E-3
7.060774651E0,1.221694518E-3,-7.941014133E-3,-2.901524538E-3
7.070488245E0,-1.221694518E-3,-6.108472589E-4,-1.679830020E-3
7.080202568E0,-3.665083554E-3,4.275931045E-3,-1.679830020E-3
7.089916006E0,-7.330167107E-3,1.038440317E-2,-4.581354442E-4
7.099628766E0,-9.773556143E-3,1.649287529E-2,7.635590737E-4
7.109342256E0,-1.343864016E-2,1.893626526E-2,7.635590737E-4
7.119056631E0,-1.221694518E-2,1.649287529E-2,1.985253533E-3
7.128770120E0,-8.551862091E-3,5.497625098E-3,1.985253533E-3
7.138482828E0,-2.443389036E-3,-6.719320081E-3,7.635590737E-4
7.148196422E0,2.443389036E-3,-2.137965336E-2,-4.581354442E-4
7.157910745E0,6.108472589E-3,-3.481829539E-2,-1.679830020E-3
7.167624183E0,9.773556143E-3,-4.459185153E-2,-2.901524538E-3
7.177336943E0,1.099525020E-2,-5.314370990E-2,-4.123218823E-3
7.187050433E0,9.773556143E-3,-5.436540768E-2,-2.901524538E-3
7.196764808E0,8.551862091E-3,-4.459185153E-2,-4.581354442E-4
7.206478297E0,4.886778072E-3,-3.115320951E-2,7.635590737E-4
7.216191006E0,2.443389036E-3,-1.893626526E-2,1.985253533E-3
7.225904599E0,3.665083554E-3,-1.038440317E-2,3.206948051E-3
7.235618922E0,6.108472589E-3,-6.719320081E-3,1.985253533E-3
7.245332360E0,1.099525020E-2,-3.054236295E-3,-4.581354442E-4
7.255045120E0,1.221694518E-2,1.832541777E-3,-4.581354442E-4
7.264758610E0,1.221694518E-2,9.162709117E-3,-1.679830020E-3
7.274472985E0,1.099525020E-2,1.282779220E-2,-2.901524538E-3
7.284186474E0,9.773556143E-3,1.527118124E-2,-2.901524538E-3
7.293899183E0,8.551862091E-3,1.282779220E-2,-1.679830020E-3
7.303612776E0,8.551862091E-3,6.719320081E-3,-1.679830020E-3
7.313327099E0,8.551862091E-3,-3.054236295E-3,-4.581354442E-4
7.323040537E0,9.773556143E-3,-1.282779220E-2,-4.581354442E-4
7.332753297E0,8.551862091E-3,-2.137965336E-2,7.635590737E-4
7.342466891E0,7.330167107E-3,-2.504473738E-2,7.635590737E-4
7.352181162E0,4.886778072E-3,-2.260134928E-2,1.985253533E-3
7.361894651E0,2.443389036E-3,-1.282779220E-2,1.985253533E-3
7.371607360E0,-1.221694518E-3,4.275931045E-3,3.206948051E-3
7.381320953E0,-1.221694518E-3,2.382304333E-2,5.650337320E-3
7.391035276E0,-1.221694518E-3,3.970507160E-2,5.650337320E-3
7.400748766E0,2.443389036E-3,5.314370990E-2,5.650337320E-3
7.410461474E0,4.886778072E-3,6.047387794E-2,5.650337320E-3
7.420175068E0,8.551862091E-3,6.169557199E-2,5.650337320E-3
7.429889339E0,1.221694518E-2,5.558710173E-2,5.650337320E-3
7.439602828E0,1.343864016E-2,4.459185153E-2,1.985253533E-3
7.449315589E0,1.466033421E-2,3.115320951E-2,7.635590737E-4
7.459029078E0,1.343864016E-2,1.527118124E-2,-4.581354442E-4
7.468743453E0,1.099525020E-2,6.108472589E-4,-4.581354442E-4
7.478456943E0,7.330167107E-3,-1.282779220E-2,-1.679830020E-3
7.488169651E0,3.665083554E-3,-2.260134928E-2,-4.581354442E-4
7.497883245E0,-0.000000000E0,-3.237490356E-2,7.635590737E-4
7.507597568E0,-2.443389036E-3,-3.848337755E-2,7.635590737E-4
7.517311006E0,-3.665083554E-3,-3.848337755E-2,1.985253533E-3
7.527023766E0,-3.665083554E-3,-3.237490356E-2,1.985253533E-3
7.536737256E0,-2.443389036E-3,-1.893626526E-2,1.985253533E-3
7.546451631E0,-0.000000000E0,-4.275931045E-3,3.206948051E-3
7.556165120E0,1.221694518E-3,9.162709117E-3,7.635590737E-4
7.565877828E0,2.443389036E-3,1.893626526E-2,-4.581354442E-4
7.575591422E0,1.221694518E-3,2.382304333E-2,-2.901524538E-3
7.585305745E0,-0.000000000E0,2.626643144E-2,-4.123218823E-3
7.595019183E0,-1.221694518E-3,2.382304333E-2,-6.566607859E-3
7.604731943E0,-2.443389036E-3,1.771457121E-2,-7.788302377E-3
7.614445433E0,-1.221694518E-3,5.497625098E-3,-7.788302377E-3
7.624159808E0,-0.000000000E0,-9.162709117E-3,-5.344913341E-3
7.633873297E0,2.443389036E-3,-2.748812735E-2,-4.123218823E-3
7.643586006E0,4.886778072E-3,-4.825693369E-2,-1.679830020E-3
7.653299599E0,6.108472589E-3,-6.291726977E-2,7.635590737E-4
7.663013922E0,7.330167107E-3,-7.391251624E-2,3.206948051E-3
7.672727360E0,4.886778072E-3,-7.757759839E-2,4.428642802E-3
7.682440120E0,3.665083554E-3,-6.902574003E-2,6.872031838E-3
7.692153610E0,2.443389036E-3,-5.070032179E-2,6.872031838E-3
7.701867985E0,3.665083554E-3,-2.870982140E-2,5.650337320E-3
7.711581474E0,7.330167107E-3,-6.719320081E-3,4.428642802E-3
7.721294183E0,1.099525020E-2,1.160609815E-2,1.985253533E-3
7.731007776E0,1.588202827E-2,3.115320951E-2,7.635590737E-4
7.740722099E0,1.954711229E-2,5.192201585E-2,-1.679830020E-3
7.750435537E0,2.076880634E-2,7.391251624E-2,7.635590737E-4
7.760148297E0,2.076880634E-2,8.857285231E-2,1.985253533E-3
7.769861891E0,2.199050039E-2,8.612946421E-2,4.428642802E-3
7.779576162E0,2.076880634E-2,6.658235192E-2,4.428642802E-3
7.789289651E0,1.832541823E-2,3.726168349E-2,4.428642802E-3
7.799002412E0,1.221694518E-2,7.941014133E-3,4.428642802E-3
7.808715901E0,4.886778072E-3,-1.404948719E-2,3.206948051E-3
7.818430276E0,-3.665083554E-3,-2.993151546E-2,7.635590737E-4
7.828143766E0,-8.551862091E-3,-3.481829539E-2,-4.581354442E-4
7.837856474E0,-8.551862091E-3,-3.359659761E-2,-4.581354442E-4
7.847570068E0,-4.886778072E-3,-2.626643144E-2,-4.581354442E-4
7.857284391E0,1.221694518E-3,-1.649287529E-2,-4.581354442E-4
7.866997828E0,6.108472589E-3,-6.719320081E-3,7.635590737E-4
7.876710589E0,7.330167107E-3,4.275931045E-3,1.985253533E-3
7.886424078E0,8.551862091E-3,1.282779220E-2,7.635590737E-4
7.896138453E0,8.551862091E-3,2.137965336E-2,7.635590737E-4
7.905851943E0,7.330167107E-3,2.748812735E-2,7.635590737E-4
7.915564651E0,6.108472589E-3,3.115320951E-2,7.635590737E-4
7.925278245E0,8.551862091E-3,3.237490356E-2,1.985253533E-3
7.934992568E0,1.099525020E-2,2.748812735E-2,1.985253533E-3
7.944706006E0,1.343864016E-2,1.893626526E-2,7.635590737E-4
7.954418766E0,1.466033421E-2,6.719320081E-3,7.635590737E-4
7.964132360E0,1.588202827E-2,-7.941014133E-3,-4.581354442E-4
7.973846631E0,1.343864016E-2,-2.015795931E-2,-4.581354442E-4
7.983560120E0,1.099525020E-2,-2.870982140E-2,-4.581354442E-4
7.993272881E0,8.551862091E-3,-3.481829539E-2,-4.581354442E-4
8.002986370E0,7.330167107E-3,-3.237490356E-2,7.635590737E-4
8.012700745E0,8.551862091E-3,-2.504473738E-2,7.635590737E-4
8.022414235E0,8.551862091E-3,-1.038440317E-2,-4.581354442E-4
8.032126943E0,7.330167107E-3,1.282779220E-2,-4.581354442E-4
8.041840537E0,6.108472589E-3,3.726168349E-2,7.635590737E-4
8.051554860E0,8.551862091E-3,5.680879578E-2,-4.581354442E-4
8.061268297E0,1.221694518E-2,6.536065787E-2,-4.581354442E-4
8.070981058E0,1.588202827E-2,6.536065787E-2,7.635590737E-4
8.080694547E0,1.466033421E-2,6.047387794E-2,7.635590737E-4
8.090408922E0,1.221694518E-2,5.436540768E-2,-4.581354442E-4
8.100122412E0,8.551862091E-3,4.825693369E-2,-1.679830020E-3
8.109835120E0,3.665083554E-3,3.970507160E-2,-4.581354442E-4
8.119548714E0,2.443389036E-3,2.626643144E-2,-4.581354442E-4
8.129263037E0,2.443389036E-3,1.160609815E-2,-1.679830020E-3
8.138976526E0,6.108472589E-3,-3.054236295E-3,-4.581354442E-4
8.148689235E0,9.773556143E-3,-1.404948719E-2,-4.581354442E-4
8.158402828E0,1.466033421E-2,-2.260134928E-2,-4.581354442E-4
8.168117099E0,1.710372418E-2,-2.748812735E-2,7.635590737E-4
8.177830589E0,1.710372418E-2,-2.870982140E-2,1.985253533E-3
8.187543349E0,1.466033421E-2,-2.748812735E-2,3.206948051E-3
8.197256839E0,1.099525020E-2,-2.504473738E-2,3.206948051E-3
8.206971214E0,7.330167107E-3,-2.015795931E-2,4.428642802E-3
8.216684703E0,1.221694518E-3,-1.038440317E-2,1.985253533E-3
8.226397412E0,-2.443389036E-3,1.832541777E-3,1.985253533E-3
8.236111006E0,-4.886778072E-3,1.404948719E-2,7.635590737E-4
8.245825328E0,-6.108472589E-3,2.626643144E-2,-4.581354442E-4
8.255538766E0,-4.886778072E-3,3.359659761E-2,-4.123218823E-3
8.265251526E0,-3.665083554E-3,3.603998944E-2,-5.344913341E-3
8.274965120E0,-3.665083554E-3,3.359659761E-2,-2.901524538E-3
8.284679391E0,-2.443389036E-3,2.504473738E-2,-4.123218823E-3
8.294392881E0,-4.886778072E-3,1.527118124E-2,-4.123218823E-3
8.304105641E0,-8.551862091E-3,1.832541777E-3,-2.901524538E-3
8.313819131E0,-1.221694518E-2,-1.527118124E-2,-1.679830020E-3
8.323533506E0,-1.343864016E-2,-3.359659761E-2,-1.679830020E-3
8.333246995E0,-1.466033421E-2,-4.703523964E-2,-4.581354442E-4
8.342959703E0,-1.588202827E-2,-5.436540768E-2,7.635590737E-4
8.352673297E0,-1.588202827E-2,-5.070032179E-2,1.985253533E-3
8.362387620E0,-1.588202827E-2,-3.726168349E-2,3.206948051E-3
8.372101058E0,-1.466033421E-2,-2.260134928E-2,3.206948051E-3
8.381813818E0,-9.773556143E-3,-1.038440317E-2,3.206948051E-3
8.391527308E0,-3.665083554E-3,-4.275931045E-3,4.428642802E-3
8.401241683E0,1.221694518E-3,-6.108472589E-4,3.206948051E-3
8.410955172E0,3.665083554E-3,1.832541777E-3,5.650337320E-3
8.420667881E0,4.886778072E-3,6.108472589E-4,4.428642802E-3
8.430381474E0,3.665083554E-3,-1.832541777E-3,1.985253533E-3
8.440095797E0,1.221694518E-3,-1.038440317E-2,7.635590737E-4
8.449809235E0,-3.665083554E-3,-2.137965336E-2,-4.581354442E-4
8.459521995E0,-6.108472589E-3,-3.115320951E-2,-2.901524538E-3
8.469235589E0,-8.551862091E-3,-3.481829539E-2,-4.123218823E-3
8.478949912E0,-9.773556143E-3,-3.603998944E-2,-7.788302377E-3
8.488663349E0,-8.551862091E-3,-3.481829539E-2,-7.788302377E-3
8.498376110E0,-7.330167107E-3,-3.115320951E-2,-5.344913341E-3
8.508089599E0,-6.108472589E-3,-2.626643144E-2,-4.123218823E-3
8.517803974E0,-6.108472589E-3,-2.015795931E-2,-2.901524538E-3
8.527517464E0,-7.330167107E-3,-1.404948719E-2,-4.581354442E-4
8.537230172E0,-8.551862091E-3,-9.162709117E-3,-4.581354442E-4
8.546943766E0,-9.773556143E-3,-5.497625098E-3,7.635590737E-4
8.556658089E0,-9.773556143E-3,-3.054236295E-3,-4.581354442E-4
8.566371526E0,-8.551862091E-3,1.832541777E-3,-4.581354442E-4
8.576084287E0,-6.108472589E-3,4.275931045E-3,-4.581354442E-4
8.585797881E0,-3.665083554E-3,6.719320081E-3,-4.581354442E-4
8.595512151E0,-2.443389036E-3,5.497625098E-3,-4.581354442E-4
8.605225641E0,-2.443389036E-3,4.275931045E-3,7.635590737E-4
8.614938349E0,-3.665083554E-3,6.108472589E-4,-4.581354442E-4
8.624651943E0,-4.886778072E-3,-3.054236295E-3,7.635590737E-4
8.634366266E0,-6.108472589E-3,-6.719320081E-3,7.635590737E-4
8.644079756E0,-4.886778072E-3,-7.941014133E-3,7.635590737E-4
8.653792464E0,-3.665083554E-3,-5.497625098E-3,-4.581354442E-4
8.663506058E0,1.221694518E-3,-6.108472589E-4,-1.679830020E-3
8.673220328E0,2.443389036E-3,6.108472589E-4,-1.679830020E-3
8.682933818E0,3.665083554E-3,1.832541777E-3,-2.901524538E-3
8.692646578E0,3.665083554E-3,-6.108472589E-4,-1.679830020E-3
8.702360068E0,1.221694518E-3,-6.719320081E-3,-2.901524538E-3
8.712074443E0,-1.221694518E-3,-1.160609815E-2,-4.123218823E-3
8.721787933E0,-4.886778072E-3,-1.282779220E-2,-2.901524538E-3
8.731500641E0,-8.551862091E-3,-1.160609815E-2,-4.581354442E-4
8.741214235E0,-9.773556143E-3,-9.162709117E-3,-4.581354442E-4
8.750928558E0,-9.773556143E-3,-5.497625098E-3,7.635590737E-4
8.760641995E0,-9.773556143E-3,-6.108472589E-4,3.206948051E-3
8.770354756E0,-9.773556143E-3,5.497625098E-3,5.650337320E-3
8.780068245E0,-8.551862091E-3,1.282779220E-2,4.428642802E-3
8.789782620E0,-7.330167107E-3,2.015795931E-2,3.206948051E-3
8.799496110E0,-4.886778072E-3,2.382304333E-2,1.985253533E-3
8.809208818E0,-1.221694518E-3,2.382304333E-2,-1.679830020E-3
8.818922412E0,3.665083554E-3,2.015795931E-2,-1.679830020E-3
8.828636735E0,6.108472589E-3,1.527118124E-2,-2.901524538E-3
8.838350172E0,6.108472589E-3,1.038440317E-2,-1.679830020E-3
8.848062933E0,4.886778072E-3,4.275931045E-3,7.635590737E-4
8.857776422E0,1.221694518E-3,-5.497625098E-3,7.635590737E-4
8.867490797E0,-3.665083554E-3,-1.282779220E-2,7.635590737E-4
8.877204287E0,-7.330167107E-3,-1.771457121E-2,-1.679830020E-3
8.886916995E0,-9.773556143E-3,-1.527118124E-2,-1.679830020E-3
8.896630589E0,-1.099525020E-2,-4.275931045E-3,-1.679830020E-3
8.906344912E0,-1.099525020E-2,1.160609815E-2,1.985253533E-3
8.916058349E0,-7.330167107E-3,2.870982140E-2,4.428642802E-3
8.925771110E0,-3.665083554E-3,4.092676565E-2,6.872031838E-3
8.935484599E0,-1.221694518E-3,4.947862774E-2,8.093725890E-3
8.945198974E0,2.443389036E-3,5.314370990E-2,8.093725890E-3
8.954912464E0,2.443389036E-3,4.947862774E-2,6.872031838E-3
8.964625172E0,2.443389036E-3,4.214845970E-2,3.206948051E-3
8.974338766E0,2.443389036E-3,3.237490356E-2,-4.581354442E-4
8.984053089E0,1.221694518E-3,2.015795931E-2,-2.901524538E-3
8.993766526E0,2.443389036E-3,9.162709117E-3,-4.123218823E-3
9.003479287E0,2.443389036E-3,-1.832541777E-3,-5.344913341E-3
9.013192776E0,1.221694518E-3,-1.160609815E-2,-2.901524538E-3
9.022907151E0,1.221694518E-3,-2.137965336E-2,-2.901524538E-3
9.032620641E0,-3.665083554E-3,-2.504473738E-2,-4.581354442E-4
9.042333349E0,-9.773556143E-3,-2.260134928E-2,1.985253533E-3
9.052046943E0,-1.588202827E-2,-1.282779220E-2,3.206948051E-3
9.061761266E0,-1.954711229E-2,-6.108472589E-4,1.985253533E-3
9.071474703E0,-2.076880634E-2,9.162709117E-3,1.985253533E-3
9.081187464E0,-1.954711229E-2,1.404948719E-2,7.635590737E-4
9.090900953E0,-1.466033421E-2,1.649287529E-2,-1.679830020E-3
9.100615328E0,-9.773556143E-3,1.893626526E-2,-1.679830020E-3
9.110328818E0,-4.886778072E-3,2.137965336E-2,-4.123218823E-3
9.120041526E0,-3.665083554E-3,2.137965336E-2,-7.788302377E-3
9.129755120E0,-2.443389036E-3,1.649287529E-2,-9.009997360E-3
9.139469391E0,-3.665083554E-3,6.719320081E-3,-9.009997360E-3
9.149182881E0,-4.886778072E-3,-3.054236295E-3,-6.566607859E-3
9.158895589E0,-7.330167107E-3,-1.160609815E-2,-2.901524538E-3
9.168609183E0,-1.099525020E-2,-2.137965336E-2,-4.581354442E-4
9.178323506E0,-1.221694518E-2,-2.870982140E-2,7.635590737E-4
9.188036943E0,-1.221694518E-2,-3.481829539E-2,3.206948051E-3
9.197749703E0,-7.330167107E-3,-3.603998944E-2,3.206948051E-3
9.207463297E0,-3.665083554E-3,-3.237490356E-2,3.206948051E-3
9.217177568E0,1.221694518E-3,-2.260134928E-2,1.985253533E-3
9.226891058E0,4.886778072E-3,-1.038440317E-2,7.635590737E-4
9.236603766E0,9.773556143E-3,1.832541777E-3,-4.581354442E-4
9.246317360E0,1.099525020E-2,9.162709117E-3,-1.679830020E-3
9.256031683E0,1.099525020E-2,7.941014133E-3,-1.679830020E-3
9.265745120E0,8.551862091E-3,3.054236295E-3,-1.679830020E-3
9.275457881E0,4.886778072E-3,-3.054236295E-3,7.635590737E-4
9.285171370E0,-0.000000000E0,-7.941014133E-3,1.985253533E-3
9.294885745E0,-3.665083554E-3,-1.282779220E-2,3.206948051E-3
9.304599235E0,-6.108472589E-3,-1.527118124E-2,3.206948051E-3
9.314311943E0,-4.886778072E-3,-1.893626526E-2,3.206948051E-3
9.324025537E0,-2.443389036E-3,-1.893626526E-2,3.206948051E-3
9.333739860E0,1.221694518E-3,-1.771457121E-2,1.985253533E-3
9.343453297E0,6.108472589E-3,-1.282779220E-2,-4.581354442E-4
9.353166058E0,9.773556143E-3,-4.275931045E-3,-1.679830020E-3
9.362879547E0,8.551862091E-3,6.719320081E-3,-2.901524538E-3
9.372593922E0,6.108472589E-3,1.893626526E-2,-5.344913341E-3
9.382307360E0,4.886778072E-3,2.382304333E-2,-5.344913341E-3
9.392020120E0,3.665083554E-3,2.260134928E-2,-4.123218823E-3
9.401733610E0,2.443389036E-3,1.771457121E-2,-2.901524538E-3
9.411447985E0,1.221694518E-3,1.282779220E-2,-1.679830020E-3
9.421161474E0,-1.221694518E-3,1.160609815E-2,1.985253533E-3
9.430874183E0,-3.665083554E-3,1.282779220E-2,6.872031838E-3
9.440587776E0,-2.443389036E-3,1.282779220E-2,8.093725890E-3
9.450302047E0,2.443389036E-3,1.038440317E-2,9.315420873E-3
9.460015537E0,8.551862091E-3,3.054236295E-3,1.053711493E-2
9.469728245E0,1.466033421E-2,-4.275931045E-3,8.093725890E-3
9.479441839E0,2.076880634E-2,-5.497625098E-3,5.650337320E-3
9.489156162E0,2.321219631E-2,-4.275931045E-3,3.206948051E-3
9.498869599E0,2.443389036E-2,-5.497625098E-3,1.985253533E-3
9.508582360E0,2.443389036E-2,-5.497625098E-3,7.635590737E-4
9.518295849E0,1.954711229E-2,-4.275931045E-3,1.985253533E-3
9.528010224E0,1.099525020E-2,-6.108472589E-4,3.206948051E-3
9.537723714E0,2.443389036E-3,5.497625098E-3,4.428642802E-3
9.547436422E0,-4.886778072E-3,9.162709117E-3,3.206948051E-3
9.557150016E0,-1.099525020E-2,1.038440317E-2,3.206948051E-3
9.566864287E0,-1.221694518E-2,7.941014133E-3,7.635590737E-4
9.576577776E0,-1.343864016E-2,5.497625098E-3,-4.581354442E-4
9.586290485E0,-1.221694518E-2,5.497625098E-3,-1.679830020E-3
9.596004078E0,-1.099525020E-2,5.497625098E-3,-4.123218823E-3
9.605718401E0,-1.099525020E-2,4.275931045E-3,-2.901524538E-3
9.615431839E0,-1.099525020E-2,3.054236295E-3,-4.123218823E-3
9.625144599E0,-9.773556143E-3,-6.108472589E-4,-6.566607859E-3
9.634858089E0,-4.886778072E-3,-4.275931045E-3,-6.566607859E-3
9.644572464E0,2.443389036E-3,-7.941014133E-3,-2.901524538E-3
9.654285901E0,9.773556143E-3,-1.282779220E-2,1.985253533E-3
9.663998662E0,1.221694518E-2,-1.404948719E-2,4.428642802E-3
9.673712151E0,9.773556143E-3,-7.941014133E-3,4.428642802E-3
9.683426526E0,8.551862091E-3,-1.832541777E-3,4.428642802E-3
9.693140016E0,9.773556143E-3,-3.054236295E-3,3.206948051E-3
9.702852724E0,1.221694518E-2,-6.719320081E-3,7.635590737E-4
9.712566318E0,1.588202827E-2,-1.282779220E-2,-1.679830020E-3
9.722280589E0,1.954711229E-2,-1.771457121E-2,-4.123218823E-3
9.731994078E0,2.076880634E-2,-2.260134928E-2,-5.344913341E-3
9.741706787E0,1.954711229E-2,-2.993151546E-2,-6.566607859E-3
9.751420381E0,1.588202827E-2,-3.359659761E-2,-4.123218823E-3
9.761134703E0,4.886778072E-3,-2.870982140E-2,7.635590737E-4
9.770848141E0,-8.551862091E-3,-1.038440317E-2,4.428642802E-3
9.780560849E0,-2.321219631E-2,2.015795931E-2,6.872031838E-3
9.790274443E0,-3.542914242E-2,5.803048983E-2,1.053711493E-2
9.799988766E0,-4.031591862E-2,9.101624042E-2,1.053711493E-2
9.809702203E0,-3.909422457E-2,1.105633527E-1,8.093725890E-3
9.819414964E0,-3.420744836E-2,1.178935245E-1,6.872031838E-3
9.829128453E0,-2.687728032E-2,1.178935245E-1,3.206948051E-3
9.838842828E0,-1.954711229E-2,1.117850468E-1,-4.581354442E-4
9.848556266E0,-1.099525020E-2,9.956810623E-2,-1.679830020E-3
9.858269026E0,-4.886778072E-3,7.513421029E-2,-1.679830020E-3
9.867982516E0,-0.000000000E0,4.092676565E-2,-2.901524538E-3
9.877696891E0,3.665083554E-3,-3.054236295E-3,-2.901524538E-3
9.887410328E0,4.886778072E-3,-4.581354558E-2,-2.901524538E-3
9.897123089E0,6.108472589E-3,-8.368607610E-2,-4.581354442E-4
9.906836578E0,6.108472589E-3,-1.093416587E-1,-4.581354442E-4
9.916550953E0,6.108472589E-3,-1.215586066E-1,1.985253533E-3
9.926264443E0,7.330167107E-3,-1.203369126E-1,3.206948051E-3
9.935977151E0,8.551862091E-3,-1.081199646E-1,3.206948051E-3
9.945690745E0,9.773556143E-3,-8.979454637E-2,3.206948051E-3
9.955405016E0,1.221694518E-2,-6.536065787E-2,1.985253533E-3
9.965118506E0,1.466033421E-2,-3.970507160E-2,-1.679830020E-3
9.974831214E0,1.466033421E-2,-1.649287529E-2,-2.901524538E-3
9.984544808E0,1.099525020E-2,6.108472589E-4,-2.901524538E-3
9.994259078E0,3.665083554E-3,9.162709117E-3,-2.901524538E-3
1.000397257E1,-6.108472589E-3,1.404948719E-2,-2.901524538E-3
1.001368528E1,-1.466033421E-2,1.771457121E-2,-4.581354442E-4
1.002339887E1,-2.076880634E-2,2.260134928E-2,1.985253533E-3
1.003311319E1,-2.321219631E-2,2.260134928E-2,3.206948051E-3
1.004282663E1,-2.076880634E-2,1.893626526E-2,4.428642802E-3
1.005253934E1,-1.588202827E-2,1.404948719E-2,3.206948051E-3
1.006225293E1,-9.773556143E-3,1.038440317E-2,-4.581354442E-4
1.007196726E1,-3.665083554E-3,1.404948719E-2,-1.679830020E-3
1.008168069E1,2.443389036E-3,2.137965336E-2,-2.901524538E-3
1.009139340E1,9.773556143E-3,2.626643144E-2,-4.123218823E-3
1.010110700E1,1.343864016E-2,2.504473738E-2,-2.901524538E-3
1.011082132E1,1.466033421E-2,1.160609815E-2,-4.581354442E-4
1.012053476E1,1.221694518E-2,-5.497625098E-3,7.635590737E-4
1.013024752E1,8.551862091E-3,-2.382304333E-2,7.635590737E-4
1.013996101E1,2.443389036E-3,-3.481829539E-2,1.985253533E-3
1.014967538E1,-2.443389036E-3,-3.726168349E-2,7.635590737E-4
1.015938882E1,-4.886778072E-3,-3.237490356E-2,7.635590737E-4
1.016910158E1,-7.330167107E-3,-2.260134928E-2,-4.581354442E-4
1.017881507E1,-7.330167107E-3,-1.160609815E-2,-1.679830020E-3
1.018852944E1,-3.665083554E-3,6.108472589E-4,-1.679830020E-3
1.019824288E1,-1.221694518E-3,1.160609815E-2,-4.581354442E-4
1.020795564E1,-1.221694518E-3,2.382304333E-2,3.206948051E-3
1.021766913E1,-3.665083554E-3,3.481829539E-2,3.206948051E-3
1.022738351E1,-7.330167107E-3,4.214845970E-2,3.206948051E-3
1.023709694E1,-1.221694518E-2,4.214845970E-2,1.985253533E-3
1.024680970E1,-1.466033421E-2,3.726168349E-2,-4.581354442E-4
1.025652319E1,-1.343864016E-2,2.870982140E-2,-4.123218823E-3
1.026623757E1,-7.330167107E-3,1.893626526E-2,-7.788302377E-3
1.027595101E1,-1.221694518E-3,6.719320081E-3,-1.023169141E-2
1.028566377E1,3.665083554E-3,-7.941014133E-3,-6.566607859E-3
1.029537726E1,9.773556143E-3,-2.504473738E-2,-4.123218823E-3
1.030509163E1,9.773556143E-3,-3.848337755E-2,7.635590737E-4
1.031480507E1,4.886778072E-3,-4.459185153E-2,4.428642802E-3
1.032451783E1,-0.000000000E0,-4.337015375E-2,6.872031838E-3
1.033423132E1,-6.108472589E-3,-4.092676565E-2,5.650337320E-3
1.034394569E1,-8.551862091E-3,-3.726168349E-2,5.650337320E-3
1.035365913E1,-6.108472589E-3,-3.481829539E-2,5.650337320E-3
1.036337189E1,-0.000000000E0,-2.626643144E-2,4.428642802E-3
1.037308538E1,3.665083554E-3,-1.404948719E-2,1.985253533E-3
1.038279976E1,6.108472589E-3,1.832541777E-3,-2.901524538E-3
1.039251319E1,7.330167107E-3,1.771457121E-2,-4.123218823E-3
1.040222595E1,7.330167107E-3,2.870982140E-2,-5.344913341E-3
1.041193944E1,3.665083554E-3,3.726168349E-2,-2.901524538E-3
1.042165382E1,-1.221694518E-3,3.848337755E-2,-1.679830020E-3
1.043136726E1,-6.108472589E-3,3.237490356E-2,-4.581354442E-4
1.044107996E1,-1.099525020E-2,1.893626526E-2,3.206948051E-3
1.045079356E1,-1.466033421E-2,3.054236295E-3,5.650337320E-3
1.046050788E1,-1.710372418E-2,-6.719320081E-3,6.872031838E-3
1.047022132E1,-1.710372418E-2,-3.054236295E-3,5.650337320E-3
1.047993403E1,-1.466033421E-2,9.162709117E-3,4.428642802E-3
1.048964762E1,-4.886778072E-3,2.504473738E-2,4.428642802E-3
1.049936189E1,8.551862091E-3,3.481829539E-2,3.206948051E-3
1.050907538E1,2.199050039E-2,3.481829539E-2,7.635590737E-4
1.051878809E1,3.298575059E-2,2.504473738E-2,-1.679830020E-3
1.052850168E1,3.665083647E-2,1.038440317E-2,-2.901524538E-3
1.053821595E1,3.298575059E-2,-5.497625098E-3,7.635590737E-4
1.054792944E1,2.076880634E-2,-1.771457121E-2,1.985253533E-3
1.055764215E1,2.443389036E-3,-2.504473738E-2,1.985253533E-3
1.056735574E1,-1.588202827E-2,-2.382304333E-2,7.635590737E-4
1.057707002E1,-2.932066843E-2,-1.282779220E-2,-1.679830020E-3
1.058678351E1,-3.420744836E-2,6.108472589E-4,-4.123218823E-3
1.059649621E1,-3.298575059E-2,1.404948719E-2,-7.788302377E-3
1.060620981E1,-2.321219631E-2,2.748812735E-2,-7.788302377E-3
1.061592408E1,-9.773556143E-3,3.237490356E-2,-6.566607859E-3
1.062563757E1,1.221694518E-3,2.993151546E-2,-2.901524538E-3
1.063535028E1,7.330167107E-3,2.137965336E-2,7.635590737E-4
1.064506377E1,9.773556143E-3,6.719320081E-3,1.985253533E-3
1.065477814E1,8.551862091E-3,-6.719320081E-3,4.428642802E-3
1.066449163E1,3.665083554E-3,-1.649287529E-2,5.650337320E-3
1.067420434E1,-0.000000000E0,-2.260134928E-2,5.650337320E-3
1.068391783E1,-0.000000000E0,-2.382304333E-2,4.428642802E-3
1.069363220E1,2.443389036E-3,-2.015795931E-2,1.985253533E-3
1.070334564E1,6.108472589E-3,-1.527118124E-2,-1.679830020E-3
1.071305840E1,1.099525020E-2,-1.404948719E-2,-4.123218823E-3
1.072277189E1,1.343864016E-2,-1.771457121E-2,-4.123218823E-3
1.073248627E1,1.343864016E-2,-2.137965336E-2,-4.123218823E-3
1.074219970E1,7.330167107E-3,-2.260134928E-2,-4.123218823E-3
1.075191246E1,-0.000000000E0,-1.893626526E-2,-4.123218823E-3
1.076162595E1,-7.330167107E-3,-9.162709117E-3,-4.581354442E-4
1.077134033E1,-1.221694518E-2,1.832541777E-3,1.985253533E-3
1.078105377E1,-1.221694518E-2,1.282779220E-2,1.985253533E-3
1.079076647E1,-8.551862091E-3,2.137965336E-2,3.206948051E-3
1.080048007E1,-2.443389036E-3,2.870982140E-2,7.635590737E-4
1.081019434E1,2.443389036E-3,2.993151546E-2,-1.679830020E-3
1.081990783E1,4.886778072E-3,2.626643144E-2,-2.901524538E-3
1.082962054E1,7.330167107E-3,1.771457121E-2,-6.566607859E-3
1.083933413E1,7.330167107E-3,1.038440317E-2,-5.344913341E-3
1.084904840E1,6.108472589E-3,7.941014133E-3,-2.901524538E-3
1.085876189E1,1.221694518E-3,6.719320081E-3,-4.581354442E-4
1.086847460E1,-2.443389036E-3,6.719320081E-3,7.635590737E-4
1.087818809E1,-3.665083554E-3,4.275931045E-3,-4.581354442E-4
1.088790246E1,-3.665083554E-3,-1.832541777E-3,-1.679830020E-3
1.089761590E1,-1.221694518E-3,-7.941014133E-3,-4.581354442E-4
1.090732866E1,-1.221694518E-3,-1.282779220E-2,-4.581354442E-4
1.091704215E1,-3.665083554E-3,-1.282779220E-2,1.985253533E-3
1.092675653E1,-6.108472589E-3,-1.160609815E-2,3.206948051E-3
1.093646996E1,-9.773556143E-3,-1.038440317E-2,3.206948051E-3
1.094618267E1,-1.343864016E-2,-1.038440317E-2,3.206948051E-3
1.095589627E1,-1.466033421E-2,-5.497625098E-3,1.985253533E-3
1.096561059E1,-1.588202827E-2,4.275931045E-3,1.985253533E-3
1.097532403E1,-1.343864016E-2,1.649287529E-2,-2.901524538E-3
1.098503674E1,-9.773556143E-3,2.748812735E-2,-5.344913341E-3
1.099475033E1,-4.886778072E-3,3.359659761E-2,-6.566607859E-3
1.100446460E1,-1.221694518E-3,3.115320951E-2,-7.788302377E-3
1.101417809E1,1.221694518E-3,2.137965336E-2,-6.566607859E-3
1.102389080E1,1.221694518E-3,1.038440317E-2,-6.566607859E-3
1.103360439E1,-3.665083554E-3,-1.832541777E-3,-5.344913341E-3
1.104331866E1,-7.330167107E-3,-9.162709117E-3,-2.901524538E-3
1.105303215E1,-1.099525020E-2,-1.404948719E-2,-4.581354442E-4
1.106274486E1,-1.466033421E-2,-1.649287529E-2,7.635590737E-4
1.107245835E1,-1.466033421E-2,-1.282779220E-2,3.206948051E-3
1.108217272E1,-1.221694518E-2,-4.275931045E-3,3.206948051E-3
1.109188616E1,-7.330167107E-3,7.941014133E-3,3.206948051E-3
1.110159892E1,-3.665083554E-3,1.893626526E-2,3.206948051E-3
1.111131241E1,-0.000000000E0,1.893626526E-2,3.206948051E-3
1.112102679E1,1.221694518E-3,1.038440317E-2,1.985253533E-3
1.113074022E1,-0.000000000E0,-4.275931045E-3,-4.581354442E-4
1.114045293E1,-4.886778072E-3,-1.893626526E-2,-2.901524538E-3
1.115016653E1,-9.773556143E-3,-3.726168349E-2,-2.901524538E-3
1.115988080E1,-1.221694518E-2,-5.558710173E-2,-2.901524538E-3
1.116959429E1,-1.466033421E-2,-7.391251624E-2,-5.344913341E-3
1.117930700E1,-1.710372418E-2,-8.368607610E-2,-6.566607859E-3
1.118902048E1,-1.832541823E-2,-8.246438205E-2,-7.788302377E-3
1.119873486E1,-1.832541823E-2,-7.146912813E-2,-7.788302377E-3
1.120844830E1,-1.588202827E-2,-4.947862774E-2,-7.788302377E-3
1.121816106E1,-1.099525020E-2,-1.893626526E-2,-7.788302377E-3
1.122787455E1,-8.551862091E-3,1.160609815E-2,-6.566607859E-3
1.123758887E1,-3.665083554E-3,3.603998944E-2,-4.123218823E-3
1.124730236E1,-0.000000000E0,4.947862774E-2,-2.901524538E-3
1.125701507E1,-1.221694518E-3,4.703523964E-2,-1.679830020E-3
1.126672866E1,-1.221694518E-3,3.359659761E-2,-4.581354442E-4
1.127644293E1,-3.665083554E-3,1.893626526E-2,7.635590737E-4
1.128615642E1,-6.108472589E-3,5.497625098E-3,1.985253533E-3
1.129586913E1,-7.330167107E-3,-3.054236295E-3,1.985253533E-3
1.130558262E1,-4.886778072E-3,-1.038440317E-2,4.428642802E-3
1.131529700E1,-1.221694518E-3,-1.404948719E-2,5.650337320E-3
1.132501043E1,3.665083554E-3,-1.649287529E-2,5.650337320E-3
1.133472319E1,9.773556143E-3,-1.649287529E-2,3.206948051E-3
1.134443668E1,1.221694518E-2,-1.404948719E-2,3.206948051E-3
1.135415106E1,1.343864016E-2,-1.160609815E-2,1.985253533E-3
1.136386450E1,9.773556143E-3,-5.497625098E-3,-4.581354442E-4
1.137357720E1,4.886778072E-3,6.108472589E-4,-5.344913341E-3
1.138329080E1,1.221694518E-3,1.282779220E-2,-6.566607859E-3
1.139300507E1,-2.443389036E-3,2.504473738E-2,-6.566607859E-3
1.140271856E1,-4.886778072E-3,3.603998944E-2,-6.566607859E-3
1.141243127E1,-6.108472589E-3,4.337015375E-2,-2.901524538E-3
1.142214476E1,-6.108472589E-3,4.581354558E-2,1.985253533E-3
1.143185913E1,-6.108472589E-3,4.337015375E-2,4.428642802E-3
1.144157257E1,-3.665083554E-3,3.481829539E-2,6.872031838E-3
1.145128528E1,-2.443389036E-3,2.137965336E-2,6.872031838E-3
1.146099887E1,-1.221694518E-3,4.275931045E-3,5.650337320E-3
1.147071314E1,1.221694518E-3,-1.282779220E-2,3.206948051E-3
1.148042663E1,3.665083554E-3,-2.748812735E-2,7.635590737E-4
1.149013934E1,6.108472589E-3,-3.603998944E-2,-1.679830020E-3
1.149985283E1,6.108472589E-3,-3.603998944E-2,-4.123218823E-3
1.150956720E1,4.886778072E-3,-2.870982140E-2,-2.901524538E-3
1.151928064E1,4.886778072E-3,-1.893626526E-2,-4.123218823E-3
1.152899340E1,2.443389036E-3,-1.160609815E-2,-2.901524538E-3
1.153870689E1,2.443389036E-3,-4.275931045E-3,-4.123218823E-3
1.154842127E1,-0.000000000E0,3.054236295E-3,-2.901524538E-3
1.155813470E1,-2.443389036E-3,1.282779220E-2,-2.901524538E-3
1.156784741E1,-3.665083554E-3,2.260134928E-2,-1.679830020E-3
1.157756101E1,-2.443389036E-3,2.626643144E-2,7.635590737E-4
1.158727528E1,-1.221694518E-3,2.504473738E-2,1.985253533E-3
1.159698877E1,-0.000000000E0,1.771457121E-2,3.206948051E-3
1.160670147E1,1.221694518E-3,6.719320081E-3,3.206948051E-3
1.161641496E1,2.443389036E-3,-1.832541777E-3,3.206948051E-3
1.162612934E1,3.665083554E-3,-1.038440317E-2,3.206948051E-3
1.163584278E1,4.886778072E-3,-1.649287529E-2,3.206948051E-3
1.164555549E1,7.330167107E-3,-1.893626526E-2,3.206948051E-3
1.165526908E1,9.773556143E-3,-1.893626526E-2,1.985253533E-3
1.166498335E1,1.221694518E-2,-2.015795931E-2,7.635590737E-4
1.167469684E1,1.343864016E-2,-2.260134928E-2,1.985253533E-3
1.168440955E1,1.221694518E-2,-2.626643144E-2,1.985253533E-3
1.169412304E1,7.330167107E-3,-2.260134928E-2,-4.581354442E-4
1.170383741E1,1.221694518E-3,-7.941014133E-3,1.985253533E-3
1.171355085E1,-3.665083554E-3,1.893626526E-2,3.206948051E-3
1.172326361E1,-4.886778072E-3,4.459185153E-2,4.428642802E-3
1.173297710E1,-1.221694518E-3,5.925218388E-2,5.650337320E-3
1.174269142E1,8.551862091E-3,6.047387794E-2,5.650337320E-3
1.175240491E1,1.710372418E-2,4.947862774E-2,4.428642802E-3
1.176211762E1,2.199050039E-2,3.359659761E-2,7.635590737E-4
1.177183111E1,2.199050039E-2,1.771457121E-2,7.635590737E-4
1.178154548E1,1.710372418E-2,3.054236295E-3,7.635590737E-4
1.179125892E1,9.773556143E-3,-9.162709117E-3,3.206948051E-3
1.180097163E1,1.221694518E-3,-1.771457121E-2,4.428642802E-3
1.181068522E1,-4.886778072E-3,-2.260134928E-2,5.650337320E-3
1.182039950E1,-9.773556143E-3,-2.626643144E-2,5.650337320E-3
1.183011299E1,-9.773556143E-3,-2.748812735E-2,4.428642802E-3
1.183982569E1,-8.551862091E-3,-2.260134928E-2,4.428642802E-3
1.184953918E1,-7.330167107E-3,-1.160609815E-2,4.428642802E-3
1.185925356E1,-8.551862091E-3,5.497625098E-3,7.635590737E-4
1.186896700E1,-9.773556143E-3,2.015795931E-2,-2.901524538E-3
1.187867970E1,-8.551862091E-3,3.115320951E-2,-4.123218823E-3
1.188839330E1,-3.665083554E-3,3.726168349E-2,-4.123218823E-3
1.189810757E1,2.443389036E-3,3.603998944E-2,-4.581354442E-4
1.190782106E1,9.773556143E-3,2.870982140E-2,3.206948051E-3
1.191753377E1,1.466033421E-2,1.282779220E-2,5.650337320E-3
1.192724726E1,1.832541823E-2,-6.719320081E-3,6.872031838E-3
1.193696163E1,1.588202827E-2,-2.504473738E-2,8.093725890E-3
1.194667507E1,9.773556143E-3,-3.359659761E-2,6.872031838E-3
1.195638778E1,2.443389036E-3,-3.359659761E-2,6.872031838E-3
1.196610137E1,-2.443389036E-3,-3.237490356E-2,3.206948051E-3
1.197581564E1,-6.108472589E-3,-2.626643144E-2,1.985253533E-3
1.198552913E1,-4.886778072E-3,-1.893626526E-2,-1.679830020E-3
1.199524184E1,-4.886778072E-3,-7.941014133E-3,-2.901524538E-3
1.200495533E1,-3.665083554E-3,4.275931045E-3,-2.901524538E-3
1.201466970E1,-2.443389036E-3,9.162709117E-3,-1.679830020E-3
1.202438314E1,-3.665083554E-3,7.941014133E-3,-4.581354442E-4
1.203409585E1,-6.108472589E-3,4.275931045E-3,7.635590737E-4
1.204380944E1,-9.773556143E-3,1.832541777E-3,1.985253533E-3
1.205352371E1,-1.343864016E-2,3.054236295E-3,7.635590737E-4
1.206323715E1,-1.466033421E-2,4.275931045E-3,-1.679830020E-3
1.207294991E1,-1.221694518E-2,6.719320081E-3,-2.901524538E-3
1.208266340E1,-6.108472589E-3,9.162709117E-3,-2.901524538E-3
1.209237778E1,2.443389036E-3,6.719320081E-3,-2.901524538E-3
1.210209121E1,9.773556143E-3,-6.108472589E-4,-2.901524538E-3
1.211180392E1,1.466033421E-2,-1.404948719E-2,-1.679830020E-3
1.212151741E1,1.466033421E-2,-2.870982140E-2,-1.679830020E-3
1.213123179E1,1.099525020E-2,-3.970507160E-2,-4.581354442E-4
1.214094522E1,6.108472589E-3,-4.581354558E-2,-4.581354442E-4
1.215065798E1,-0.000000000E0,-4.581354558E-2,7.635590737E-4
1.216037147E1,-2.443389036E-3,-4.214845970E-2,7.635590737E-4
1.217008580E1,-1.221694518E-3,-3.726168349E-2,-4.581354442E-4
1.217979929E1,2.443389036E-3,-3.359659761E-2,-1.679830020E-3
1.218951200E1,6.108472589E-3,-2.993151546E-2,-1.679830020E-3
1.219922549E1,7.330167107E-3,-2.260134928E-2,7.635590737E-4
1.220893986E1,6.108472589E-3,-1.038440317E-2,3.206948051E-3
1.221865330E1,2.443389036E-3,1.038440317E-2,5.650337320E-3
1.222836601E1,-0.000000000E0,3.237490356E-2,4.428642802E-3
1.223807960E1,-2.443389036E-3,4.581354558E-2,3.206948051E-3
1.224779387E1,-2.443389036E-3,4.581354558E-2,1.985253533E-3
1.225750731E1,1.221694518E-3,3.603998944E-2,7.635590737E-4
1.226722007E1,3.665083554E-3,2.015795931E-2,-4.581354442E-4
1.227693356E1,4.886778072E-3,5.497625098E-3,-4.581354442E-4
1.228664788E1,4.886778072E-3,-3.054236295E-3,-4.581354442E-4
1.229636137E1,3.665083554E-3,-1.038440317E-2,-4.581354442E-4
1.230607408E1,1.221694518E-3,-1.527118124E-2,7.635590737E-4
1.231578757E1,1.221694518E-3,-2.015795931E-2,7.635590737E-4
1.232550194E1,1.221694518E-3,-2.260134928E-2,-4.581354442E-4
1.233521538E1,3.665083554E-3,-2.015795931E-2,7.635590737E-4
1.234492809E1,7.330167107E-3,-1.527118124E-2,3.206948051E-3
1.235464168E1,8.551862091E-3,-7.941014133E-3,8.093725890E-3
1.236435595E1,8.551862091E-3,-6.108472589E-4,8.093725890E-3
1.237406939E1,6.108472589E-3,7.941014133E-3,9.315420873E-3
1.238378215E1,6.108472589E-3,1.527118124E-2,6.872031838E-3
1.239349564E1,6.108472589E-3,2.137965336E-2,5.650337320E-3
1.240320996E1,7.330167107E-3,2.504473738E-2,4.428642802E-3
1.241292345E1,6.108472589E-3,2.748812735E-2,3.206948051E-3
1.242263616E1,6.108472589E-3,2.748812735E-2,1.985253533E-3
1.243234965E1,8.551862091E-3,2.260134928E-2,7.635590737E-4
1.244206403E1,8.551862091E-3,1.404948719E-2,7.635590737E-4
1.245177746E1,8.551862091E-3,-6.108472589E-4,-1.679830020E-3
1.246149017E1,7.330167107E-3,-1.404948719E-2,-1.679830020E-3
1.247120377E1,3.665083554E-3,-2.260134928E-2,-4.581354442E-4
1.248091804E1,-0.000000000E0,-2.382304333E-2,-1.679830020E-3
1.249063147E1,-3.665083554E-3,-1.527118124E-2,-1.679830020E-3
1.250034424E1,-4.886778072E-3,-5.497625098E-3,-4.581354442E-4
1.251005772E1,-2.443389036E-3,6.719320081E-3,7.635590737E-4
1.251977205E1,2.443389036E-3,1.527118124E-2,7.635590737E-4
1.252948554E1,7.330167107E-3,2.137965336E-2,1.985253533E-3
1.253919825E1,8.551862091E-3,2.626643144E-2,3.206948051E-3
1.254891174E1,7.330167107E-3,2.748812735E-2,1.985253533E-3
1.255862611E1,3.665083554E-3,2.993151546E-2,1.985253533E-3
1.256833955E1,-0.000000000E0,3.115320951E-2,-4.581354442E-4
1.257805226E1,-2.443389036E-3,2.993151546E-2,-1.679830020E-3
1.258776585E1,-3.665083554E-3,2.504473738E-2,-4.581354442E-4
1.259748012E1,-1.221694518E-3,1.649287529E-2,-4.581354442E-4
1.260719356E1,-0.000000000E0,5.497625098E-3,-2.901524538E-3
1.261690627E1,2.443389036E-3,-6.719320081E-3,-1.679830020E-3
1.262661986E1,2.443389036E-3,-1.527118124E-2,-4.581354442E-4
1.263633413E1,1.221694518E-3,-1.771457121E-2,-1.679830020E-3
1.264604757E1,-2.443389036E-3,-1.404948719E-2,7.635590737E-4
1.265576033E1,-4.886778072E-3,-4.275931045E-3,7.635590737E-4
1.266547382E1,-4.886778072E-3,6.719320081E-3,7.635590737E-4
1.267518814E1,-3.665083554E-3,1.771457121E-2,7.635590737E-4
1.268490163E1,-2.443389036E-3,2.137965336E-2,7.635590737E-4
1.269461434E1,-0.000000000E0,2.137965336E-2,-4.581354442E-4
1.270432783E1,3.665083554E-3,1.649287529E-2,-1.679830020E-3
1.271404220E1,4.886778072E-3,6.719320081E-3,-4.123218823E-3
1.272375564E1,4.886778072E-3,-7.941014133E-3,-4.123218823E-3
1.273346835E1,3.665083554E-3,-2.504473738E-2,-5.344913341E-3
1.274318194E1,2.443389036E-3,-3.970507160E-2,-7.788302377E-3
1.275289621E1,-1.221694518E-3,-4.947862774E-2,-7.788302377E-3
1.276260965E1,-3.665083554E-3,-5.314370990E-2,-7.788302377E-3
1.277232236E1,-6.108472589E-3,-4.947862774E-2,-7.788302377E-3
1.278203595E1,-8.551862091E-3,-4.214845970E-2,-5.344913341E-3
1.279175022E1,-9.773556143E-3,-2.870982140E-2,-2.901524538E-3
1.280146366E1,-1.099525020E-2,-1.282779220E-2,-4.581354442E-4
1.281117642E1,-1.221694518E-2,6.108472589E-4,-4.581354442E-4
1.282088991E1,-1.343864016E-2,1.160609815E-2,-4.581354442E-4
1.283060424E1,-1.221694518E-2,1.893626526E-2,-4.581354442E-4
1.284031772E1,-1.221694518E-2,2.504473738E-2,-1.679830020E-3
1.285003043E1,-9.773556143E-3,2.626643144E-2,-2.901524538E-3
1.285974392E1,-6.108472589E-3,2.382304333E-2,-4.123218823E-3
1.286945830E1,-2.443389036E-3,1.649287529E-2,-4.123218823E-3
1.287917174E1,2.443389036E-3,5.497625098E-3,-6.566607859E-3
1.288888444E1,7.330167107E-3,-7.941014133E-3,-7.788302377E-3
1.289859793E1,1.099525020E-2,-2.504473738E-2,-6.566607859E-3
1.290831231E1,1.099525020E-2,-3.970507160E-2,-4.123218823E-3
1.291802575E1,7.330167107E-3,-5.192201585E-2,-4.581354442E-4
1.292773845E1,1.221694518E-3,-6.169557199E-2,3.206948051E-3
1.293745205E1,-6.108472589E-3,-6.658235192E-2,4.428642802E-3
1.294716632E1,-1.343864016E-2,-6.291726977E-2,5.650337320E-3
1.295687976E1,-1.832541823E-2,-4.825693369E-2,3.206948051E-3
1.296659246E1,-1.954711229E-2,-2.382304333E-2,7.635590737E-4
1.297630606E1,-1.832541823E-2,6.719320081E-3,-2.901524538E-3
1.298602033E1,-1.099525020E-2,3.603998944E-2,-6.566607859E-3
1.299573377E1,-1.221694518E-3,5.558710173E-2,-9.009997360E-3
1.300544653E1,8.551862091E-3,6.413896382E-2,-1.023169141E-2
1.301516002E1,1.466033421E-2,6.047387794E-2,-9.009997360E-3
1.302487434E1,1.588202827E-2,4.581354558E-2,-7.788302377E-3
1.303458783E1,1.099525020E-2,2.260134928E-2,-4.123218823E-3
1.304430054E1,3.665083554E-3,-6.719320081E-3,-1.679830020E-3
1.305401403E1,-6.108472589E-3,-3.726168349E-2,7.635590737E-4
1.306372835E1,-1.221694518E-2,-5.925218388E-2,1.985253533E-3
1.307344184E1,-1.588202827E-2,-7.391251624E-2,7.635590737E-4
1.308315455E1,-1.588202827E-2,-7.513421029E-2,-4.581354442E-4
1.309286804E1,-1.221694518E-2,-6.413896382E-2,-2.901524538E-3
1.310258241E1,-6.108472589E-3,-4.337015375E-2,-5.344913341E-3
1.311229585E1,1.221694518E-3,-2.260134928E-2,-5.344913341E-3
1.312200856E1,6.108472589E-3,-1.832541777E-3,-7.788302377E-3
1.313172205E1,8.551862091E-3,1.282779220E-2,-5.344913341E-3
1.314143642E1,8.551862091E-3,2.260134928E-2,-4.123218823E-3
1.315114986E1,3.665083554E-3,3.115320951E-2,-4.581354442E-4
1.316086257E1,-1.221694518E-3,3.726168349E-2,1.985253533E-3
1.317057606E1,-2.443389036E-3,4.092676565E-2,5.650337320E-3
1.318029043E1,-0.000000000E0,3.848337755E-2,4.428642802E-3
1.319000387E1,2.443389036E-3,3.115320951E-2,3.206948051E-3
1.319971658E1,7.330167107E-3,2.015795931E-2,1.985253533E-3
1.320943017E1,1.221694518E-2,4.275931045E-3,7.635590737E-4
1.321914444E1,1.588202827E-2,-1.160609815E-2,-1.679830020E-3
1.322885788E1,1.832541823E-2,-2.870982140E-2,-4.123218823E-3
1.323857059E1,1.832541823E-2,-4.459185153E-2,-5.344913341E-3
1.324828418E1,1.588202827E-2,-5.803048983E-2,-5.344913341E-3
1.325799845E1,1.221694518E-2,-6.780404598E-2,-4.123218823E-3
1.326771189E1,8.551862091E-3,-7.269082218E-2,-2.901524538E-3
1.327742460E1,2.443389036E-3,-7.146912813E-2,-1.679830020E-3
1.328713819E1,-3.665083554E-3,-6.169557199E-2,-4.581354442E-4
1.329685246E1,-8.551862091E-3,-4.092676565E-2,-4.581354442E-4
1.330656590E1,-1.343864016E-2,-1.160609815E-2,7.635590737E-4
1.331627866E1,-1.588202827E-2,2.015795931E-2,-4.581354442E-4
1.332599215E1,-1.343864016E-2,4.703523964E-2,-2.901524538E-3
1.333570647E1,-7.330167107E-3,6.169557199E-2,-5.344913341E-3
1.334541996E1,-0.000000000E0,6.413896382E-2,-5.344913341E-3
1.335513267E1,7.330167107E-3,5.436540768E-2,-4.123218823E-3
1.336484616E1,1.343864016E-2,3.726168349E-2,-2.901524538E-3
1.337456049E1,1.588202827E-2,1.771457121E-2,-1.679830020E-3
1.338427397E1,1.466033421E-2,-3.054236295E-3,-2.901524538E-3
1.339398668E1,9.773556143E-3,-1.893626526E-2,-2.901524538E-3
1.340370017E1,7.330167107E-3,-2.870982140E-2,-2.901524538E-3
1.341341450E1,6.108472589E-3,-3.726168349E-2,-1.679830020E-3
1.342312798E1,7.330167107E-3,-4.092676565E-2,-4.581354442E-4
1.343284069E1,9.773556143E-3,-4.092676565E-2,1.985253533E-3
1.344255418E1,1.466033421E-2,-3.237490356E-2,4.428642802E-3
1.345226856E1,1.588202827E-2,-1.893626526E-2,3.206948051E-3
1.346198200E1,1.343864016E-2,1.832541777E-3,4.428642802E-3
1.347169470E1,1.099525020E-2,2.137965336E-2,4.428642802E-3
1.348140819E1,6.108472589E-3,3.603998944E-2,1.985253533E-3
1.349112257E1,3.665083554E-3,4.581354558E-2,7.635590737E-4
1.350083601E1,4.886778072E-3,4.581354558E-2,-1.679830020E-3
1.351054871E1,7.330167107E-3,3.848337755E-2,-4.123218823E-3
1.352026220E1,9.773556143E-3,2.626643144E-2,-4.123218823E-3
1.352997658E1,9.773556143E-3,1.404948719E-2,-1.679830020E-3
1.353969002E1,7.330167107E-3,6.108472589E-4,7.635590737E-4
1.354940272E1,4.886778072E-3,-1.038440317E-2,3.206948051E-3
1.355911621E1,1.221694518E-3,-2.015795931E-2,4.428642802E-3
1.356883059E1,-2.443389036E-3,-2.748812735E-2,3.206948051E-3
1.357854403E1,-3.665083554E-3,-2.870982140E-2,-4.581354442E-4
1.358825674E1,-1.221694518E-3,-2.626643144E-2,-2.901524538E-3
1.359797022E1,2.443389036E-3,-2.137965336E-2,-7.788302377E-3
1.360768460E1,7.330167107E-3,-1.771457121E-2,-1.023169141E-2
1.361739804E1,9.773556143E-3,-1.527118124E-2,-1.145338640E-2
1.362711075E1,8.551862091E-3,-1.527118124E-2,-9.009997360E-3
1.363682424E1,3.665083554E-3,-1.404948719E-2,-5.344913341E-3
1.364653861E1,-2.443389036E-3,-1.282779220E-2,-1.679830020E-3
1.365625205E1,-9.773556143E-3,-1.282779220E-2,1.985253533E-3
1.366596476E1,-1.466033421E-2,-1.404948719E-2,4.428642802E-3
1.367567824E1,-1.466033421E-2,-1.404948719E-2,4.428642802E-3
1.368539262E1,-8.551862091E-3,-6.719320081E-3,3.206948051E-3
1.369510606E1,-2.443389036E-3,6.108472589E-4,7.635590737E-4
1.370481877E1,4.886778072E-3,1.160609815E-2,-1.679830020E-3
1.371453226E1,1.466033421E-2,1.771457121E-2,-5.344913341E-3
1.372424663E1,2.076880634E-2,1.649287529E-2,-5.344913341E-3
1.373396007E1,2.321219631E-2,6.719320081E-3,-5.344913341E-3
1.374367278E1,2.076880634E-2,-6.719320081E-3,-1.679830020E-3
1.375338627E1,1.466033421E-2,-2.015795931E-2,7.635590737E-4
1.376310064E1,6.108472589E-3,-2.993151546E-2,-4.581354442E-4
1.377281408E1,-1.221694518E-3,-3.237490356E-2,1.985253533E-3
1.378252679E1,-6.108472589E-3,-2.993151546E-2,7.635590737E-4
1.379224028E1,-7.330167107E-3,-2.382304333E-2,7.635590737E-4
1.380195465E1,-4.886778072E-3,-1.282779220E-2,7.635590737E-4
1.381166809E1,-0.000000000E0,6.108472589E-4,7.635590737E-4
1.382138080E1,4.886778072E-3,1.404948719E-2,-4.581354442E-4
1.383109429E1,8.551862091E-3,2.504473738E-2,1.985253533E-3
1.384080866E1,9.773556143E-3,3.359659761E-2,3.206948051E-3
1.385052210E1,8.551862091E-3,3.726168349E-2,4.428642802E-3
1.386023481E1,3.665083554E-3,3.726168349E-2,5.650337320E-3
1.386994830E1,1.221694518E-3,3.481829539E-2,5.650337320E-3
1.387966267E1,-1.221694518E-3,3.115320951E-2,4.428642802E-3
1.388937611E1,-1.221694518E-3,2.870982140E-2,4.428642802E-3
1.389908882E1,1.221694518E-3,2.504473738E-2,3.206948051E-3
1.390880231E1,4.886778072E-3,1.649287529E-2,1.985253533E-3
1.391851668E1,8.551862091E-3,3.054236295E-3,-4.581354442E-4
1.392823012E1,1.099525020E-2,-1.527118124E-2,-5.344913341E-3
1.393794283E1,1.221694518E-2,-3.359659761E-2,-9.009997360E-3
1.394765632E1,1.099525020E-2,-3.970507160E-2,-9.009997360E-3
1.395737069E1,8.551862091E-3,-3.115320951E-2,-5.344913341E-3
1.396708413E1,4.886778072E-3,-1.282779220E-2,-1.679830020E-3
1.397679684E1,4.886778072E-3,5.497625098E-3,1.985253533E-3
1.398651033E1,8.551862091E-3,1.160609815E-2,5.650337320E-3
1.399622470E1,1.221694518E-2,7.941014133E-3,8.093725890E-3
1.400593814E1,1.466033421E-2,-1.832541777E-3,1.053711493E-2
1.401565085E1,1.221694518E-2,-7.941014133E-3,8.093725890E-3
1.402536434E1,6.108472589E-3,-7.941014133E-3,6.872031838E-3
1.403507866E1,1.221694518E-3,-1.832541777E-3,3.206948051E-3
1.404479215E1,-2.443389036E-3,3.054236295E-3,-4.581354442E-4
1.405450486E1,-3.665083554E-3,6.719320081E-3,-5.344913341E-3
1.406421835E1,-2.443389036E-3,6.719320081E-3,-5.344913341E-3
1.407393267E1,-0.000000000E0,5.497625098E-3,-6.566607859E-3
1.408364616E1,1.221694518E-3,3.054236295E-3,-5.344913341E-3
1.409335887E1,1.221694518E-3,6.108472589E-4,-4.123218823E-3
1.410307236E1,1.221694518E-3,-1.832541777E-3,-1.679830020E-3
1.411278668E1,-1.221694518E-3,-1.832541777E-3,-4.581354442E-4
1.412250012E1,-2.443389036E-3,-6.108472589E-4,-4.581354442E-4
1.413221283E1,-1.221694518E-3,-6.108472589E-4,-4.581354442E-4
1.414192642E1,-0.000000000E0,-6.719320081E-3,-4.581354442E-4
1.415164069E1,2.443389036E-3,-1.527118124E-2,-4.581354442E-4
1.416135413E1,7.330167107E-3,-2.382304333E-2,-4.581354442E-4
1.417106684E1,1.099525020E-2,-3.115320951E-2,7.635590737E-4
1.418078043E1,1.099525020E-2,-3.237490356E-2,3.206948051E-3
1.419049470E1,9.773556143E-3,-2.748812735E-2,5.650337320E-3
1.420020814E1,7.330167107E-3,-1.771457121E-2,6.872031838E-3
1.420992085E1,6.108472589E-3,-5.497625098E-3,6.872031838E-3
1.421963444E1,6.108472589E-3,1.832541777E-3,4.428642802E-3
1.422934871E1,7.330167107E-3,3.054236295E-3,1.985253533E-3
1.423906215E1,1.343864016E-2,3.054236295E-3,-1.679830020E-3
1.424877486E1,1.710372418E-2,1.832541777E-3,-6.566607859E-3
1.425848835E1,1.954711229E-2,3.054236295E-3,-7.788302377E-3
1.426820272E1,1.954711229E-2,5.497625098E-3,-9.009997360E-3
1.427791616E1,1.710372418E-2,7.941014133E-3,-9.009997360E-3
1.428762887E1,1.343864016E-2,7.941014133E-3,-7.788302377E-3
1.429734236E1,7.330167107E-3,3.054236295E-3,-7.788302377E-3
1.430705674E1,2.443389036E-3,-7.941014133E-3,-6.566607859E-3
1.431677017E1,-1.221694518E-3,-2.015795931E-2,-4.123218823E-3
1.432648288E1,-4.886778072E-3,-3.359659761E-2,-2.901524538E-3
1.433619637E1,-8.551862091E-3,-3.970507160E-2,-4.581354442E-4
1.434591075E1,-1.221694518E-2,-3.970507160E-2,1.985253533E-3
1.435562418E1,-1.588202827E-2,-2.993151546E-2,4.428642802E-3
1.436533689E1,-1.832541823E-2,-1.282779220E-2,4.428642802E-3
1.437505038E1,-1.832541823E-2,4.275931045E-3,1.985253533E-3
1.438476476E1,-1.588202827E-2,2.382304333E-2,-2.901524538E-3
1.439447819E1,-1.099525020E-2,4.092676565E-2,-2.901524538E-3
1.440419090E1,-6.108472589E-3,5.314370990E-2,-5.344913341E-3
1.441390439E1,2.443389036E-3,5.803048983E-2,-6.566607859E-3
1.442361871E1,9.773556143E-3,5.680879578E-2,-5.344913341E-3
1.443333215E1,1.343864016E-2,4.825693369E-2,-4.123218823E-3
1.444304491E1,1.466033421E-2,3.237490356E-2,-1.679830020E-3
1.445275840E1,1.221694518E-2,1.038440317E-2,-4.581354442E-4
1.446247272E1,9.773556143E-3,-1.649287529E-2,7.635590737E-4
1.447218616E1,6.108472589E-3,-4.092676565E-2,-4.581354442E-4
1.448189892E1,2.443389036E-3,-5.558710173E-2,7.635590737E-4
1.449161241E1,2.443389036E-3,-6.169557199E-2,-4.581354442E-4
1.450132674E1,1.221694518E-3,-6.047387794E-2,1.985253533E-3
1.451104017E1,1.221694518E-3,-5.436540768E-2,1.985253533E-3
1.452075288E1,2.443389036E-3,-4.214845970E-2,3.206948051E-3
1.453046647E1,1.221694518E-3,-2.504473738E-2,3.206948051E-3
1.454018074E1,-1.221694518E-3,-3.054236295E-3,7.635590737E-4
1.454989418E1,-4.886778072E-3,2.137965336E-2,7.635590737E-4
1.455960689E1,-7.330167107E-3,4.581354558E-2,-1.679830020E-3
1.456932038E1,-7.330167107E-3,6.169557199E-2,-2.901524538E-3
1.457903476E1,-7.330167107E-3,6.658235192E-2,-1.679830020E-3
1.458874819E1,-3.665083554E-3,5.925218388E-2,-4.581354442E-4
1.459846090E1,-2.443389036E-3,4.092676565E-2,-4.581354442E-4
1.460817439E1,-3.665083554E-3,2.015795931E-2,1.985253533E-3
1.461788877E1,-7.330167107E-3,-6.108472589E-4,1.985253533E-3
1.462760220E1,-1.343864016E-2,-1.527118124E-2,1.985253533E-3
1.463731491E1,-1.832541823E-2,-2.260134928E-2,7.635590737E-4
1.464702840E1,-2.076880634E-2,-2.504473738E-2,-1.679830020E-3
1.465674272E1,-1.954711229E-2,-2.260134928E-2,-4.581354442E-4
1.466645621E1,-1.343864016E-2,-1.771457121E-2,7.635590737E-4
1.467616892E1,-4.886778072E-3,-1.282779220E-2,-1.679830020E-3
1.468588241E1,2.443389036E-3,-9.162709117E-3,1.985253533E-3
1.469559674E1,8.551862091E-3,-6.719320081E-3,3.206948051E-3
1.470531017E1,1.221694518E-2,-5.497625098E-3,4.428642802E-3
1.471502288E1,1.221694518E-2,-1.832541777E-3,3.206948051E-3
1.472473647E1,8.551862091E-3,3.054236295E-3,4.428642802E-3
1.473445074E1,4.886778072E-3,5.497625098E-3,4.428642802E-3
1.474416418E1,2.443389036E-3,4.275931045E-3,3.206948051E-3
1.475387689E1,1.221694518E-3,-3.054236295E-3,7.635590737E-4
1.476359049E1,-1.221694518E-3,-1.160609815E-2,1.985253533E-3
1.477330476E1,-3.665083554E-3,-2.137965336E-2,-4.581354442E-4
1.478301819E1,-7.330167107E-3,-2.748812735E-2,-1.679830020E-3
1.479273090E1,-1.099525020E-2,-2.748812735E-2,-4.581354442E-4
1.480244439E1,-1.343864016E-2,-2.137965336E-2,7.635590737E-4
1.481215877E1,-1.588202827E-2,-1.038440317E-2,3.206948051E-3
1.482187220E1,-1.832541823E-2,3.054236295E-3,3.206948051E-3
1.483158491E1,-1.832541823E-2,1.893626526E-2,3.206948051E-3
1.484129840E1,-1.588202827E-2,3.115320951E-2,3.206948051E-3
1.485101272E1,-1.221694518E-2,4.092676565E-2,1.985253533E-3
1.486072621E1,-7.330167107E-3,4.581354558E-2,7.635590737E-4
1.487043892E1,-2.443389036E-3,4.703523964E-2,-2.901524538E-3
1.488015241E1,3.665083554E-3,3.970507160E-2,-4.123218823E-3
1.488986674E1,7.330167107E-3,2.382304333E-2,-4.123218823E-3
1.489958022E1,9.773556143E-3,5.497625098E-3,-1.679830020E-3
1.490929293E1,9.773556143E-3,-1.404948719E-2,-4.581354442E-4
1.491900642E1,8.551862091E-3,-2.993151546E-2,1.985253533E-3
1.492872075E1,3.665083554E-3,-4.337015375E-2,4.428642802E-3
1.493843418E1,-0.000000000E0,-4.825693369E-2,5.650337320E-3
1.494814689E1,-3.665083554E-3,-4.459185153E-2,6.872031838E-3
1.495786049E1,-4.886778072E-3,-3.481829539E-2,8.093725890E-3
1.496757476E1,-4.886778072E-3,-2.137965336E-2,5.650337320E-3
1.497728819E1,-3.665083554E-3,-6.719320081E-3,1.985253533E-3
1.498700090E1,-2.443389036E-3,9.162709117E-3,-1.679830020E-3
1.499671439E1,-2.443389036E-3,2.382304333E-2,-5.344913341E-3
1.500642877E1,-2.443389036E-3,3.726168349E-2,-6.566607859E-3
1.501614220E1,-3.665083554E-3,4.581354558E-2,-9.009997360E-3
1.502585491E1,-3.665083554E-3,4.825693369E-2,-6.566607859E-3
1.503556840E1,-3.665083554E-3,4.092676565E-2,-5.344913341E-3
1.504528278E1,-3.665083554E-3,2.870982140E-2,-2.901524538E-3
1.505499621E1,-3.665083554E-3,1.282779220E-2,-4.581354442E-4
1.506470892E1,-6.108472589E-3,-4.275931045E-3,1.985253533E-3
1.507442241E1,-7.330167107E-3,-2.137965336E-2,4.428642802E-3
