"Time (s)","Acceleration x (m/s^2)","Acceleration y (m/s^2)","Acceleration z (m/s^2)"
5.760192800E-2,-3.711267948E0,-9.138189316E0,9.391828626E-2
6.731619800E-2,-3.675375462E0,-9.152546883E0,7.956135273E-2
7.702880300E-2,-3.627519131E0,-9.159725189E0,7.716853172E-2
8.674229200E-2,-3.589233875E0,-9.183652878E0,1.034895778E-1
9.645651100E-2,-3.558127165E0,-9.193224907E0,1.154536903E-1
1.061698960E-1,-3.507878065E0,-9.200403214E0,1.058823988E-1
1.158825530E-1,-3.495913982E0,-9.183652878E0,1.154536903E-1
1.255960940E-1,-3.517449379E0,-9.176474571E0,1.202393398E-1
1.353103130E-1,-3.596412420E0,-9.162117958E0,1.322034448E-1
1.450236980E-1,-3.661018610E0,-9.145368576E0,1.537388563E-1
1.547363550E-1,-3.689732552E0,-9.111868858E0,1.633101404E-1
1.644498960E-1,-3.694518089E0,-9.131011009E0,1.680957973E-1
1.741641150E-1,-3.668197155E0,-9.157332420E0,1.441675574E-1
1.838775000E-1,-3.615555048E0,-9.164510727E0,1.513460279E-1
1.935901570E-1,-3.574877024E0,-9.193224907E0,1.680957973E-1
2.033036980E-1,-3.527020693E0,-9.200403214E0,1.824527234E-1
2.130179170E-1,-3.517449379E0,-9.195617676E0,2.234298140E-1
2.227313030E-1,-3.546163082E0,-9.171689034E0,-3.050848842E-2
2.324439590E-1,-3.601198196E0,-9.169296265E0,-2.811566554E-2
2.421575000E-1,-3.651447296E0,-9.169296265E0,1.417747438E-1
2.518717190E-1,-3.670589924E0,-9.171689034E0,3.170489892E-2
2.615851050E-1,-3.661018610E0,-9.176474571E0,-1.214357466E-1
2.712977610E-1,-3.637090445E0,-9.152546883E0,8.434699476E-2
2.810112500E-1,-3.627519131E0,-9.116654396E0,1.923231184E-1
2.907255210E-1,-3.608376503E0,-9.126225471E0,4.127619043E-2
3.004389070E-1,-3.579662561E0,-9.176474571E0,1.274178028E-1
3.101515630E-1,-3.584448338E0,-9.209974289E0,3.358924687E-1
3.198650530E-1,-3.625126362E0,-9.233902931E0,2.258226424E-1
3.295793230E-1,-3.663411379E0,-9.229117393E0,9.870393574E-2
3.392927090E-1,-3.672982693E0,-9.202795982E0,2.234298140E-1
3.490053650E-1,-3.675375462E0,-9.131011009E0,1.776670814E-1
3.587188550E-1,-3.670589924E0,-9.083154678E0,-1.525424421E-1
3.684331250E-1,-3.680161238E0,-9.078369141E0,-1.836491376E-1
3.781465110E-1,-3.677768469E0,-9.097511292E0,2.452643216E-2
3.878591670E-1,-3.672982693E0,-9.142974854E0,-2.811566554E-2
3.975726570E-1,-3.622733593E0,-9.186046600E0,-5.682953820E-2
4.072869280E-1,-3.541377544E0,-9.202795982E0,2.162513435E-1
4.170003130E-1,-3.512663603E0,-9.219545364E0,2.856431901E-1
4.267129690E-1,-3.481257915E0,-9.214759827E0,6.520441920E-2
4.364264590E-1,-3.421437263E0,-9.195617676E0,1.082752272E-1
4.461407300E-1,-3.423830032E0,-9.162117958E0,2.569293380E-1
4.558541150E-1,-3.507878065E0,-9.152546883E0,1.130608693E-1
4.655667710E-1,-3.558127165E0,-9.162117958E0,-3.768695518E-2
4.752802610E-1,-3.596412420E0,-9.152546883E0,1.441675574E-1
4.849945320E-1,-3.637090445E0,-9.140582085E0,1.417747438E-1
4.947079170E-1,-3.663411379E0,-9.157332420E0,-8.793623000E-2
5.044205730E-1,-3.658625841E0,-9.176474571E0,-1.136590727E-2
5.141340630E-1,-3.665804386E0,-9.186046600E0,1.752742529E-1
5.238483340E-1,-3.684946775E0,-9.164510727E0,1.495514158E-2
5.335617190E-1,-3.656233072E0,-9.150154114E0,-1.022931710E-1
5.432743750E-1,-3.615555048E0,-9.135796547E0,7.477571070E-2
5.529878650E-1,-3.591626883E0,-9.135796547E0,6.281159073E-2
5.627021360E-1,-3.615555048E0,-9.123832703E0,-1.070788130E-1
5.724155210E-1,-3.613162279E0,-9.135796547E0,-4.187439568E-3
5.821281780E-1,-3.591626883E0,-9.162117958E0,1.369891018E-1
5.918416670E-1,-3.586841106E0,-9.166903496E0,-3.050848842E-2
6.015559380E-1,-3.596412420E0,-9.171689034E0,-1.477568001E-1
6.112693230E-1,-3.603590965E0,-9.164510727E0,6.759724021E-2
6.209819800E-1,-3.594019651E0,-9.166903496E0,1.010967568E-1
6.306955210E-1,-3.558127165E0,-9.171689034E0,-1.262213886E-1
6.404097400E-1,-3.507878065E0,-9.176474571E0,-7.357929647E-2
6.501231250E-1,-3.503092289E0,-9.193224907E0,5.324030295E-2
6.598357820E-1,-3.560520172E0,-9.209974289E0,-1.214357466E-1
6.695493230E-1,-3.596412420E0,-9.226723671E0,-2.171486616E-1
6.792635420E-1,-3.572484255E0,-9.195617676E0,-6.580262445E-3
6.889769280E-1,-3.603590965E0,-9.171689034E0,1.256231871E-2
6.986896360E-1,-3.620340586E0,-9.150154114E0,-1.405783296E-1
7.084031250E-1,-3.584448338E0,-9.133403778E0,-1.375873014E-2
7.181173440E-1,-3.577269793E0,-9.142974854E0,1.202393398E-1
7.278308340E-1,-3.565305710E0,-9.162117958E0,7.238288224E-2
7.375434380E-1,-3.570091486E0,-9.181260109E0,6.759724021E-2
7.472569280E-1,-3.596412420E0,-9.169296265E0,3.170489892E-2
7.569711460E-1,-3.608376503E0,-9.183652878E0,-1.854437590E-2
7.666846360E-1,-3.608376503E0,-9.205188751E0,-5.204389244E-2
7.763972400E-1,-3.625126362E0,-9.202795982E0,-7.357929647E-2
7.861107300E-1,-3.639483213E0,-9.190832138E0,-5.922235921E-2
7.958250000E-1,-3.632304668E0,-9.174081802E0,-4.725824669E-2
8.055383860E-1,-3.598805189E0,-9.166903496E0,-1.854437590E-2
8.152510420E-1,-3.570091486E0,-9.178867340E0,1.256231871E-2
8.249645840E-1,-3.527020693E0,-9.200403214E0,3.409772366E-2
8.346788030E-1,-3.495913982E0,-9.212367058E0,5.324030295E-2
8.443922920E-1,-3.519842148E0,-9.212367058E0,9.631111473E-2
8.541048960E-1,-3.541377544E0,-9.166903496E0,1.154536903E-1
8.638183860E-1,-3.577269793E0,-9.140582085E0,1.274178028E-1
8.735326570E-1,-3.613162279E0,-9.131011009E0,1.202393398E-1
8.832460420E-1,-3.605983734E0,-9.131011009E0,8.434699476E-2
8.929586980E-1,-3.596412420E0,-9.138189316E0,4.127619043E-2
9.026722400E-1,-3.586841106E0,-9.147761345E0,-1.136590727E-2
9.123864590E-1,-3.565305710E0,-9.150154114E0,-4.247260094E-2
9.220998440E-1,-3.546163082E0,-9.176474571E0,-7.118647546E-2
9.318125530E-1,-3.515056372E0,-9.209974289E0,-9.511470050E-2
9.415260420E-1,-3.490829229E0,-9.255437851E0,-1.022931710E-1
9.512403130E-1,-3.481257915E0,-9.241081238E0,-6.400800496E-2
9.609536980E-1,-3.493520975E0,-9.214759827E0,3.649054468E-2
9.706663550E-1,-3.505485058E0,-9.198010445E0,1.154536903E-1
9.803798960E-1,-3.522234917E0,-9.214759827E0,1.561316848E-1
9.900941150E-1,-3.572484255E0,-9.195617676E0,1.848455518E-1
9.998076050E-1,-3.675375462E0,-9.154939651E0,1.899302900E-1
1.009520209E0,-3.720839262E0,-9.157332420E0,1.465603858E-1
1.019233698E0,-3.692125320E0,-9.150154114E0,3.409772366E-2
1.028947969E0,-3.653840065E0,-9.178867340E0,-1.142572835E-1
1.038661355E0,-3.582055569E0,-9.190832138E0,-1.908276081E-1
1.048374063E0,-3.519842148E0,-9.174081802E0,-2.338984162E-1
1.058087553E0,-3.495913982E0,-9.174081802E0,-1.597209126E-1
1.067801823E0,-3.515056372E0,-9.166903496E0,2.991028363E-3
1.077515209E0,-3.505485058E0,-9.164510727E0,1.848455518E-1
1.087227865E0,-3.505485058E0,-9.142974854E0,2.808575630E-1
1.096941407E0,-3.524627686E0,-9.154939651E0,3.071786165E-1
1.106655625E0,-3.543770313E0,-9.176474571E0,2.904288471E-1
1.116369115E0,-3.574877024E0,-9.181260109E0,2.234298140E-1
1.126081719E0,-3.620340586E0,-9.212367058E0,1.441675574E-1
1.135795261E0,-3.663411379E0,-9.195617676E0,8.913264424E-2
1.145509480E0,-3.677768469E0,-9.164510727E0,6.520441920E-2
1.155222969E0,-3.656233072E0,-9.135796547E0,7.776673418E-3
1.164935573E0,-3.608376503E0,-9.157332420E0,-6.400800496E-2
1.174649115E0,-3.560520172E0,-9.195617676E0,-1.453639716E-1
1.184363334E0,-3.493520975E0,-9.214759827E0,-2.315055877E-1
1.194076823E0,-3.452543974E0,-9.224330902E0,-2.554338276E-1
1.203789428E0,-3.438187122E0,-9.226723671E0,-1.477568001E-1
1.213502917E0,-3.459722519E0,-9.224330902E0,5.982056609E-4
1.223217188E0,-3.471686602E0,-9.212367058E0,1.010967568E-1
1.232930678E0,-3.500699520E0,-9.207581520E0,1.417747438E-1
1.242643282E0,-3.548556089E0,-9.188439369E0,1.752742529E-1
1.252356823E0,-3.594019651E0,-9.162117958E0,1.971087605E-1
1.262071042E0,-3.620340586E0,-9.145368576E0,1.752742529E-1
1.271784532E0,-3.620340586E0,-9.131011009E0,1.154536903E-1
1.281497136E0,-3.610769272E0,-9.154939651E0,2.213360928E-2
1.291210678E0,-3.598805189E0,-9.162117958E0,1.256231871E-2
1.300924896E0,-3.637090445E0,-9.178867340E0,-1.794616925E-3
1.310638386E0,-3.672982693E0,-9.183652878E0,-3.768695518E-2
1.320350990E0,-3.641875982E0,-9.176474571E0,-1.262213886E-1
1.330064532E0,-3.577269793E0,-9.171689034E0,-1.836491376E-1
1.339778750E0,-3.527020693E0,-9.195617676E0,-1.621137410E-1
1.349492240E0,-3.454936743E0,-9.221938133E0,-5.443671346E-2
1.359204844E0,-3.414258718E0,-9.248259544E0,7.716853172E-2
1.368918386E0,-3.426223040E0,-9.257830620E0,1.899302900E-1
1.378632657E0,-3.488436222E0,-9.226723671E0,2.736790776E-1
1.388346042E0,-3.553341627E0,-9.174081802E0,2.617149651E-1
1.398058750E0,-3.601198196E0,-9.104690552E0,1.609173268E-1
1.407772240E0,-3.639483213E0,-9.061619759E0,5.802594870E-2
1.417486511E0,-3.637090445E0,-9.078369141E0,-1.375873014E-2
1.427199896E0,-3.627519131E0,-9.126225471E0,-2.811566554E-2
1.436912605E0,-3.570091486E0,-9.154939651E0,-4.965107143E-2
1.446626094E0,-3.524627686E0,-9.159725189E0,-4.247260094E-2
1.456340365E0,-3.466900826E0,-9.176474571E0,-5.682953820E-2
1.466053855E0,-3.409473181E0,-9.205188751E0,-5.204389244E-2
1.475766459E0,-3.385545015E0,-9.221938133E0,5.383851007E-3
1.485480000E0,-3.404687405E0,-9.221938133E0,4.366901144E-2
1.495194219E0,-3.438187122E0,-9.195617676E0,9.152546525E-2
1.504907709E0,-3.512663603E0,-9.176474571E0,1.369891018E-1
1.514620313E0,-3.584448338E0,-9.169296265E0,1.875374764E-1
1.524333855E0,-3.644268990E0,-9.176474571E0,2.018944174E-1
1.534048125E0,-3.694518089E0,-9.183652878E0,1.776670814E-1
1.543761511E0,-3.739981890E0,-9.198010445E0,1.537388563E-1
1.553474219E0,-3.713660717E0,-9.221938133E0,8.434699476E-2
1.563187709E0,-3.687339783E0,-9.245866776E0,-2.333002165E-2
1.572901980E0,-3.675375462E0,-9.236295700E0,-1.429711580E-1
1.582615469E0,-3.637090445E0,-9.229117393E0,-2.650051117E-1
1.592328073E0,-3.572484255E0,-9.202795982E0,-3.391826153E-1
1.602041615E0,-3.512663603E0,-9.181260109E0,-3.296113312E-1
1.611755886E0,-3.488436222E0,-9.145368576E0,-2.099701911E-1
1.621469271E0,-3.488436222E0,-9.145368576E0,-1.375873014E-2
1.631181980E0,-3.481257915E0,-9.138189316E0,1.875374764E-1
1.640895469E0,-3.450151205E0,-9.159725189E0,2.736790776E-1
1.650609740E0,-3.409473181E0,-9.183652878E0,2.569293380E-1
1.660323230E0,-3.395116329E0,-9.205188751E0,2.497508675E-1
1.670035834E0,-3.442972660E0,-9.200403214E0,2.736790776E-1
1.679749375E0,-3.538984776E0,-9.212367058E0,2.832503915E-1
1.689463646E0,-3.617947817E0,-9.164510727E0,2.042872310E-1
1.699177032E0,-3.680161238E0,-9.150154114E0,6.041877344E-2
1.708889740E0,-3.701696634E0,-9.114261627E0,-7.597211748E-2
1.718603230E0,-3.694518089E0,-9.126225471E0,-9.032905847E-2
1.728317500E0,-3.670589924E0,-9.166903496E0,-6.161518395E-2
1.738030990E0,-3.567698479E0,-9.217152596E0,-4.007977992E-2
1.747743594E0,-3.522234917E0,-9.243474007E0,-6.400800496E-2
1.757457136E0,-3.522234917E0,-9.229117393E0,-7.357929647E-2
1.767171407E0,-3.527020693E0,-9.212367058E0,-4.725824669E-2
1.776884792E0,-3.536591768E0,-9.193224907E0,-4.247260094E-2
1.786597500E0,-3.558127165E0,-9.166903496E0,7.776673418E-3
1.796310990E0,-3.608376503E0,-9.152546883E0,1.202393398E-1
1.806025261E0,-3.610769272E0,-9.150154114E0,2.186441720E-1
1.815738750E0,-3.646661758E0,-9.154939651E0,2.712862790E-1
1.825451355E0,-3.684946775E0,-9.169296265E0,3.406781256E-1
1.835164896E0,-3.677768469E0,-9.166903496E0,3.406781256E-1
1.844879167E0,-3.632304668E0,-9.178867340E0,2.258226424E-1
1.854592553E0,-3.574877024E0,-9.178867340E0,6.759724021E-2
1.864305261E0,-3.529413462E0,-9.176474571E0,-3.529413417E-2
1.874018803E0,-3.495913982E0,-9.178867340E0,-7.118647546E-2
1.883733021E0,-3.524627686E0,-9.209974289E0,-4.725824669E-2
1.893446511E0,-3.524627686E0,-9.205188751E0,-1.136590727E-2
1.903159115E0,-3.512663603E0,-9.188439369E0,2.691925503E-2
1.912872657E0,-3.512663603E0,-9.186046600E0,6.041877344E-2
1.922586928E0,-3.498306751E0,-9.188439369E0,9.391828626E-2
1.932300417E0,-3.531806231E0,-9.171689034E0,1.154536903E-1
1.942013021E0,-3.536591768E0,-9.140582085E0,7.956135273E-2
1.951726563E0,-3.553341627E0,-9.145368576E0,6.759724021E-2
1.961440834E0,-3.586841106E0,-9.145368576E0,1.202393398E-1
1.971154219E0,-3.622733593E0,-9.171689034E0,1.704886109E-1
1.980866928E0,-3.629911900E0,-9.212367058E0,1.585244983E-1
1.990580417E0,-3.653840065E0,-9.214759827E0,1.441675574E-1
2.000294688E0,-3.653840065E0,-9.195617676E0,1.513460279E-1
2.010008178E0,-3.617947817E0,-9.188439369E0,1.154536903E-1
2.019720782E0,-3.584448338E0,-9.181260109E0,4.845465720E-2
2.029434323E0,-3.565305710E0,-9.166903496E0,2.991028363E-3
2.039148594E0,-3.567698479E0,-9.159725189E0,1.495514158E-2
2.048861980E0,-3.541377544E0,-9.164510727E0,-1.794616925E-3
2.058574688E0,-3.476472139E0,-9.188439369E0,-3.529413417E-2
2.068288230E0,-3.452543974E0,-9.209974289E0,-3.529413417E-2
2.078002448E0,-3.457329512E0,-9.207581520E0,4.845465720E-2
2.087715938E0,-3.476472139E0,-9.205188751E0,1.322034448E-1
2.097428542E0,-3.478864908E0,-9.209974289E0,1.561316848E-1
2.107142084E0,-3.474079370E0,-9.181260109E0,1.298106313E-1
2.116856355E0,-3.457329512E0,-9.174081802E0,8.434699476E-2
2.126569844E0,-3.500699520E0,-9.178867340E0,3.888336942E-2
2.136282448E0,-3.538984776E0,-9.186046600E0,-1.615155302E-2
2.145995990E0,-3.562912941E0,-9.193224907E0,-2.093719877E-2
2.155710261E0,-3.598805189E0,-9.188439369E0,2.452643216E-2
2.165423646E0,-3.603590965E0,-9.188439369E0,1.130608693E-1
2.175136355E0,-3.572484255E0,-9.207581520E0,1.680957973E-1
2.184849844E0,-3.519842148E0,-9.200403214E0,1.704886109E-1
2.194564115E0,-3.481257915E0,-9.200403214E0,1.633101404E-1
2.204277605E0,-3.476472139E0,-9.181260109E0,1.250249892E-1
2.213990209E0,-3.481257915E0,-9.188439369E0,6.999006122E-2
2.223703750E0,-3.483650684E0,-9.176474571E0,5.324030295E-2
2.233418021E0,-3.531806231E0,-9.171689034E0,5.084748194E-2
2.243131407E0,-3.586841106E0,-9.166903496E0,1.034895778E-1
2.252844115E0,-3.608376503E0,-9.152546883E0,1.585244983E-1
2.262557657E0,-3.625126362E0,-9.164510727E0,1.154536903E-1
2.272271875E0,-3.651447296E0,-9.169296265E0,6.999006122E-2
2.281985365E0,-3.672982693E0,-9.166903496E0,6.041877344E-2
2.291697969E0,-3.699303865E0,-9.171689034E0,8.673982322E-2
2.301411511E0,-3.711267948E0,-9.171689034E0,9.870393574E-2
2.311125782E0,-3.687339783E0,-9.183652878E0,1.058823988E-1
2.320839271E0,-3.677768469E0,-9.181260109E0,1.298106313E-1
2.330551875E0,-3.665804386E0,-9.164510727E0,1.513460279E-1
2.340265417E0,-3.632304668E0,-9.145368576E0,1.465603858E-1
2.349979636E0,-3.594019651E0,-9.138189316E0,1.058823988E-1
2.359693125E0,-3.567698479E0,-9.109476089E0,7.956135273E-2
2.369405782E0,-3.558127165E0,-9.119047165E0,7.238288224E-2
2.379119271E0,-3.560520172E0,-9.162117958E0,8.434699476E-2
2.388833542E0,-3.574877024E0,-9.157332420E0,1.178465188E-1
2.398547032E0,-3.570091486E0,-9.152546883E0,1.082752272E-1
2.408259636E0,-3.553341627E0,-9.166903496E0,7.238288224E-2
2.417973178E0,-3.519842148E0,-9.176474571E0,5.324030295E-2
2.427687448E0,-3.486043453E0,-9.178867340E0,3.649054468E-2
2.437400834E0,-3.478864908E0,-9.214759827E0,6.520441920E-2
2.447113542E0,-3.495913982E0,-9.241081238E0,9.391828626E-2
2.456827032E0,-3.503092289E0,-9.243474007E0,1.178465188E-1
2.466541303E0,-3.543770313E0,-9.241081238E0,1.034895778E-1
2.476254792E0,-3.550948858E0,-9.224330902E0,3.409772366E-2
2.485967396E0,-3.589233875E0,-9.183652878E0,-3.050848842E-2
2.495680938E0,-3.584448338E0,-9.162117958E0,-6.879365444E-2
2.505395209E0,-3.562912941E0,-9.142974854E0,-9.032905847E-2
2.515108594E0,-3.517449379E0,-9.150154114E0,-6.400800496E-2
2.524821303E0,-3.495913982E0,-9.174081802E0,-2.093719877E-2
2.534534844E0,-3.488436222E0,-9.221938133E0,1.734796353E-2
2.544249063E0,-3.503092289E0,-9.221938133E0,4.845465720E-2
2.553962553E0,-3.541377544E0,-9.200403214E0,1.274178028E-1
2.563675157E0,-3.577269793E0,-9.200403214E0,1.465603858E-1
2.573388698E0,-3.572484255E0,-9.171689034E0,1.441675574E-1
2.583102969E0,-3.565305710E0,-9.142974854E0,9.391828626E-2
2.592816355E0,-3.565305710E0,-9.140582085E0,3.170489892E-2
2.602529063E0,-3.565305710E0,-9.174081802E0,1.495514158E-2
2.612242605E0,-3.591626883E0,-9.195617676E0,3.409772366E-2
2.621956823E0,-3.570091486E0,-9.219545364E0,2.452643216E-2
2.631670313E0,-3.531806231E0,-9.233902931E0,1.256231871E-2
2.641382969E0,-3.481257915E0,-9.238688469E0,-1.854437590E-2
2.651096459E0,-3.445365429E0,-9.238688469E0,-1.615155302E-2
2.660810730E0,-3.426223040E0,-9.217152596E0,3.170489892E-2
2.670524115E0,-3.483650684E0,-9.188439369E0,1.178465188E-1
2.680236823E0,-3.572484255E0,-9.147761345E0,2.018944174E-1
2.689950365E0,-3.634697676E0,-9.145368576E0,2.162513435E-1
2.699664584E0,-3.665804386E0,-9.128618240E0,1.489532143E-1
2.709378073E0,-3.677768469E0,-9.104690552E0,1.393819153E-1
2.719090730E0,-3.704089403E0,-9.107083321E0,1.704886109E-1
2.728804219E0,-3.658625841E0,-9.123832703E0,1.322034448E-1
2.738518490E0,-3.577269793E0,-9.166903496E0,3.649054468E-2
2.748231980E0,-3.543770313E0,-9.188439369E0,2.991028363E-3
2.757944584E0,-3.527020693E0,-9.176474571E0,4.606183618E-2
2.767658125E0,-3.471686602E0,-9.195617676E0,8.434699476E-2
2.777372344E0,-3.459722519E0,-9.207581520E0,1.274178028E-1
2.787085834E0,-3.486043453E0,-9.207581520E0,1.680957973E-1
2.796798490E0,-3.522234917E0,-9.200403214E0,1.728814393E-1
2.806511980E0,-3.567698479E0,-9.205188751E0,1.417747438E-1
2.816226250E0,-3.625126362E0,-9.195617676E0,9.152546525E-2
2.825939636E0,-3.653840065E0,-9.183652878E0,5.802594870E-2
2.835652344E0,-3.641875982E0,-9.176474571E0,6.041877344E-2
2.845365886E0,-3.649054527E0,-9.166903496E0,1.178465188E-1
2.855080105E0,-3.608376503E0,-9.166903496E0,1.345962733E-1
2.864793594E0,-3.536591768E0,-9.176474571E0,9.391828626E-2
2.874506198E0,-3.493520975E0,-9.188439369E0,5.982056609E-4
2.884219740E0,-3.493520975E0,-9.221938133E0,-3.050848842E-2
2.893934011E0,-3.543770313E0,-9.212367058E0,2.452643216E-2
2.903647396E0,-3.589233875E0,-9.178867340E0,8.913264424E-2
2.913360105E0,-3.625126362E0,-9.169296265E0,7.956135273E-2
2.923073594E0,-3.598805189E0,-9.162117958E0,2.931207791E-2
2.932787865E0,-3.577269793E0,-9.154939651E0,3.649054468E-2
2.942501355E0,-3.555734396E0,-9.154939651E0,9.391828626E-2
2.952213959E0,-3.505485058E0,-9.188439369E0,1.250249892E-1
2.961927500E0,-3.481257915E0,-9.214759827E0,1.417747438E-1
2.971641771E0,-3.459722519E0,-9.219545364E0,1.226321608E-1
2.981355157E0,-3.447758436E0,-9.190832138E0,1.058823988E-1
2.991067865E0,-3.495913982E0,-9.178867340E0,1.010967568E-1
3.000781355E0,-3.570091486E0,-9.200403214E0,8.673982322E-2
3.010495625E0,-3.589233875E0,-9.193224907E0,5.563312769E-2
3.020209115E0,-3.579662561E0,-9.190832138E0,1.974078640E-2
3.029921719E0,-3.558127165E0,-9.190832138E0,-4.007977992E-2
3.039635261E0,-3.567698479E0,-9.152546883E0,-3.290131316E-2
3.049349480E0,-3.577269793E0,-9.128618240E0,2.452643216E-2
3.059062969E0,-3.579662561E0,-9.104690552E0,6.041877344E-2
3.068775573E0,-3.613162279E0,-9.121439934E0,9.152546525E-2
3.078489115E0,-3.579662561E0,-9.140582085E0,6.999006122E-2
3.088203386E0,-3.462115288E0,-9.186046600E0,2.452643216E-2
3.097916771E0,-3.392723322E0,-9.231510162E0,5.383851007E-3
3.107629480E0,-3.366402388E0,-9.276973724E0,8.195417374E-2
3.117342969E0,-3.368795156E0,-9.279366493E0,9.152546525E-2
3.127057240E0,-3.404687405E0,-9.248259544E0,6.281159073E-2
3.136770730E0,-3.454936743E0,-9.207581520E0,2.691925503E-2
3.146483334E0,-3.527020693E0,-9.202795982E0,2.991028363E-3
3.156196875E0,-3.589233875E0,-9.202795982E0,1.734796353E-2
3.165911146E0,-3.608376503E0,-9.214759827E0,5.982056609E-4
3.175624532E0,-3.591626883E0,-9.217152596E0,-8.973085321E-3
3.185337188E0,-3.577269793E0,-9.226723671E0,1.256231871E-2
3.195050730E0,-3.560520172E0,-9.214759827E0,4.845465720E-2
3.204765000E0,-3.558127165E0,-9.212367058E0,6.759724021E-2
3.214478386E0,-3.524627686E0,-9.186046600E0,4.845465720E-2
3.224191094E0,-3.515056372E0,-9.178867340E0,1.974078640E-2
3.233904584E0,-3.527020693E0,-9.176474571E0,-8.973085321E-3
3.243618855E0,-3.567698479E0,-9.171689034E0,1.734796353E-2
3.253332344E0,-3.598805189E0,-9.159725189E0,2.452643216E-2
3.263044948E0,-3.617947817E0,-9.152546883E0,5.563312769E-2
3.272758490E0,-3.627519131E0,-9.133403778E0,1.298106313E-1
3.282472709E0,-3.608376503E0,-9.133403778E0,1.947159469E-1
3.292186198E0,-3.565305710E0,-9.121439934E0,2.282154560E-1
3.301898803E0,-3.505485058E0,-9.142974854E0,2.042872310E-1
3.311612344E0,-3.466900826E0,-9.178867340E0,1.489532143E-1
3.321326615E0,-3.447758436E0,-9.214759827E0,9.152546525E-2
3.331040000E0,-3.433401346E0,-9.219545364E0,3.888336942E-2
3.340752709E0,-3.459722519E0,-9.217152596E0,5.383851007E-3
3.350466198E0,-3.538984776E0,-9.209974289E0,7.776673418E-3
3.360180469E0,-3.608376503E0,-9.188439369E0,1.495514158E-2
3.369893855E0,-3.661018610E0,-9.174081802E0,3.409772366E-2
3.379606563E0,-3.684946775E0,-9.169296265E0,6.520441920E-2
3.389320053E0,-3.641875982E0,-9.188439369E0,5.084748194E-2
3.399034323E0,-3.567698479E0,-9.200403214E0,2.991028363E-3
3.408747813E0,-3.505485058E0,-9.219545364E0,-6.161518395E-2
3.418460417E0,-3.510270834E0,-9.231510162E0,-9.750752151E-2
3.428173959E0,-3.498306751E0,-9.241081238E0,-1.022931710E-1
3.437888178E0,-3.495913982E0,-9.219545364E0,-9.032905847E-2
3.447601667E0,-3.572484255E0,-9.186046600E0,-2.811566554E-2
3.457314271E0,-3.639483213E0,-9.152546883E0,1.130608693E-1
3.467027813E0,-3.656233072E0,-9.116654396E0,2.090728730E-1
3.476742032E0,-3.605983734E0,-9.104690552E0,2.425723970E-1
3.486455521E0,-3.524627686E0,-9.119047165E0,1.513460279E-1
3.496168178E0,-3.464508057E0,-9.147761345E0,3.888336942E-2
3.505881667E0,-3.428615808E0,-9.190832138E0,-4.247260094E-2
3.515595938E0,-3.423830032E0,-9.202795982E0,-8.075776696E-2
3.525309323E0,-3.457329512E0,-9.217152596E0,-4.007977992E-2
3.535022032E0,-3.490829229E0,-9.221938133E0,2.213360928E-2
3.544735521E0,-3.517449379E0,-9.231510162E0,7.716853172E-2
3.554449792E0,-3.534198999E0,-9.238688469E0,8.195417374E-2
3.564163178E0,-3.558127165E0,-9.200403214E0,9.152546525E-2
3.573875886E0,-3.594019651E0,-9.171689034E0,5.802594870E-2
3.583589375E0,-3.649054527E0,-9.162117958E0,5.383851007E-3
3.593303646E0,-3.653840065E0,-9.135796547E0,-7.357929647E-2
3.603017032E0,-3.641875982E0,-9.152546883E0,-1.070788130E-1
3.612729740E0,-3.594019651E0,-9.195617676E0,-1.118644550E-1
3.622443230E0,-3.524627686E0,-9.212367058E0,-4.007977992E-2
3.632157500E0,-3.433401346E0,-9.226723671E0,-1.375873014E-2
3.641870990E0,-3.349652529E0,-9.214759827E0,2.991028363E-3
3.651583594E0,-3.323331594E0,-9.209974289E0,5.383851007E-3
3.661297136E0,-3.347259760E0,-9.202795982E0,1.256231871E-2
3.671011355E0,-3.390330553E0,-9.190832138E0,6.041877344E-2
3.680724844E0,-3.438187122E0,-9.190832138E0,8.434699476E-2
3.690437448E0,-3.490829229E0,-9.188439369E0,5.802594870E-2
3.700150990E0,-3.527020693E0,-9.186046600E0,2.931207791E-2
3.709865209E0,-3.527020693E0,-9.202795982E0,-4.247260094E-2
3.719578698E0,-3.507878065E0,-9.245866776E0,-9.272187948E-2
3.729291303E0,-3.481257915E0,-9.253045082E0,-9.511470050E-2
3.739004844E0,-3.486043453E0,-9.243474007E0,-1.118644550E-1
3.748719063E0,-3.476472139E0,-9.245866776E0,-1.022931710E-1
3.758432553E0,-3.505485058E0,-9.217152596E0,-6.400800496E-2
3.768145157E0,-3.546163082E0,-9.193224907E0,2.931207791E-2
3.777858698E0,-3.558127165E0,-9.157332420E0,8.673982322E-2
3.787572917E0,-3.550948858E0,-9.145368576E0,7.477571070E-2
3.797286407E0,-3.543770313E0,-9.150154114E0,6.999006122E-2
3.806999011E0,-3.536591768E0,-9.154939651E0,5.563312769E-2
3.816712553E0,-3.541377544E0,-9.157332420E0,8.673982322E-2
3.826426771E0,-3.553341627E0,-9.176474571E0,1.202393398E-1
3.836140261E0,-3.534198999E0,-9.202795982E0,1.130608693E-1
3.845852865E0,-3.512663603E0,-9.219545364E0,1.974078640E-2
3.855566407E0,-3.486043453E0,-9.226723671E0,-3.768695518E-2
3.865280625E0,-3.488436222E0,-9.224330902E0,-4.247260094E-2
3.874994115E0,-3.527020693E0,-9.214759827E0,-1.375873014E-2
3.884706719E0,-3.555734396E0,-9.193224907E0,1.016949583E-2
3.894420261E0,-3.579662561E0,-9.178867340E0,1.974078640E-2
3.904134480E0,-3.613162279E0,-9.174081802E0,1.256231871E-2
3.913847969E0,-3.639483213E0,-9.166903496E0,3.649054468E-2
3.923560573E0,-3.632304668E0,-9.138189316E0,8.195417374E-2
3.933274115E0,-3.591626883E0,-9.147761345E0,7.956135273E-2
3.942988334E0,-3.558127165E0,-9.162117958E0,9.631111473E-2
3.952701823E0,-3.522234917E0,-9.174081802E0,1.010967568E-1
3.962414428E0,-3.495913982E0,-9.193224907E0,1.106680483E-1
3.972127969E0,-3.493520975E0,-9.214759827E0,7.716853172E-2
3.981842188E0,-3.515056372E0,-9.217152596E0,5.563312769E-2
3.991555678E0,-3.524627686E0,-9.200403214E0,2.213360928E-2
4.001268282E0,-3.529413462E0,-9.214759827E0,-1.375873014E-2
4.010981823E0,-3.541377544E0,-9.174081802E0,-1.136590727E-2
4.020696042E0,-3.555734396E0,-9.138189316E0,2.991028363E-3
4.030409532E0,-3.577269793E0,-9.135796547E0,3.170489892E-2
4.040122136E0,-3.570091486E0,-9.164510727E0,2.213360928E-2
4.049835678E0,-3.550948858E0,-9.190832138E0,-1.615155302E-2
4.059549896E0,-3.538984776E0,-9.241081238E0,-4.486542568E-2
4.069263386E0,-3.512663603E0,-9.243474007E0,-2.811566554E-2
4.078975990E0,-3.495913982E0,-9.257830620E0,2.452643216E-2
4.088689480E0,-3.495913982E0,-9.250652313E0,7.716853172E-2
4.098403750E0,-3.486043453E0,-9.243474007E0,8.434699476E-2
4.108117240E0,-3.498306751E0,-9.217152596E0,7.716853172E-2
4.117829844E0,-3.562912941E0,-9.181260109E0,6.999006122E-2
4.127543334E0,-3.598805189E0,-9.171689034E0,9.631111473E-2
4.137257605E0,-3.615555048E0,-9.169296265E0,8.434699476E-2
4.146970990E0,-3.598805189E0,-9.174081802E0,5.802594870E-2
4.156683698E0,-3.579662561E0,-9.171689034E0,6.041877344E-2
4.166397188E0,-3.550948858E0,-9.178867340E0,6.281159073E-2
4.176111459E0,-3.517449379E0,-9.183652878E0,6.759724021E-2
4.185824844E0,-3.495913982E0,-9.200403214E0,6.999006122E-2
4.195537553E0,-3.486043453E0,-9.171689034E0,5.084748194E-2
4.205251042E0,-3.478864908E0,-9.178867340E0,5.563312769E-2
4.214965313E0,-3.450151205E0,-9.181260109E0,5.563312769E-2
4.224678698E0,-3.435794115E0,-9.188439369E0,2.931207791E-2
4.234391355E0,-3.397509098E0,-9.205188751E0,7.776673418E-3
4.244104896E0,-3.366402388E0,-9.248259544E0,-1.375873014E-2
4.253819167E0,-3.366402388E0,-9.281759262E0,-1.375873014E-2
4.263532553E0,-3.411865950E0,-9.293723106E0,-1.136590727E-2
4.273245209E0,-3.431008577E0,-9.279366493E0,7.776673418E-3
4.282958750E0,-3.474079370E0,-9.236295700E0,1.016949583E-2
4.292672969E0,-3.555734396E0,-9.181260109E0,5.324030295E-2
4.302386459E0,-3.620340586E0,-9.135796547E0,7.716853172E-2
4.312099063E0,-3.634697676E0,-9.114261627E0,8.913264424E-2
4.321812553E0,-3.596412420E0,-9.111868858E0,6.999006122E-2
4.331526823E0,-3.553341627E0,-9.140582085E0,5.324030295E-2
4.341240209E0,-3.515056372E0,-9.195617676E0,5.324030295E-2
4.350952917E0,-3.471686602E0,-9.238688469E0,2.213360928E-2
4.360666407E0,-3.442972660E0,-9.274580956E0,-4.187439568E-3
4.370380678E0,-3.438187122E0,-9.269794464E0,-2.811566554E-2
4.380094063E0,-3.459722519E0,-9.231510162E0,5.982056609E-4
4.389806771E0,-3.512663603E0,-9.200403214E0,7.238288224E-2
4.399520261E0,-3.548556089E0,-9.190832138E0,1.106680483E-1
4.409234532E0,-3.538984776E0,-9.181260109E0,1.082752272E-1
4.418947917E0,-3.565305710E0,-9.181260109E0,6.759724021E-2
4.428660573E0,-3.598805189E0,-9.157332420E0,3.888336942E-2
4.438374115E0,-3.625126362E0,-9.152546883E0,1.974078640E-2
4.448088334E0,-3.627519131E0,-9.147761345E0,3.170489892E-2
4.457801823E0,-3.610769272E0,-9.133403778E0,1.974078640E-2
4.467514428E0,-3.598805189E0,-9.135796547E0,4.127619043E-2
4.477227969E0,-3.598805189E0,-9.099904060E0,7.716853172E-2
4.486942188E0,-3.582055569E0,-9.109476089E0,1.178465188E-1
4.496655573E0,-3.529413462E0,-9.138189316E0,1.322034448E-1
4.506368282E0,-3.481257915E0,-9.150154114E0,8.673982322E-2
4.516081771E0,-3.478864908E0,-9.162117958E0,4.606183618E-2
4.525796042E0,-3.462115288E0,-9.183652878E0,-4.187439568E-3
4.535509428E0,-3.438187122E0,-9.219545364E0,-8.315058798E-2
4.545222084E0,-3.423830032E0,-9.245866776E0,-1.549352705E-1
4.554935625E0,-3.426223040E0,-9.260223389E0,-2.099701911E-1
4.564649844E0,-3.442972660E0,-9.269794464E0,-2.362912297E-1
4.574363334E0,-3.488436222E0,-9.279366493E0,-2.171486616E-1
4.584075938E0,-3.531806231E0,-9.308079720E0,-1.668993831E-1
4.593789480E0,-3.558127165E0,-9.320044518E0,-1.573280841E-1
4.603503698E0,-3.555734396E0,-9.327222824E0,-1.333998591E-1
4.613217084E0,-3.574877024E0,-9.315258980E0,-1.238285750E-1
4.622929792E0,-3.639483213E0,-9.276973724E0,-1.022931710E-1
4.632643282E0,-3.672982693E0,-9.219545364E0,-8.315058798E-2
4.642357553E0,-3.696911097E0,-9.166903496E0,-7.597211748E-2
4.652070938E0,-3.682554007E0,-9.119047165E0,-1.854437590E-2
4.661783646E0,-3.649054527E0,-9.075976372E0,6.520441920E-2
4.671497136E0,-3.605983734E0,-9.054141998E0,1.106680483E-1
4.681211407E0,-3.582055569E0,-9.034998894E0,1.393819153E-1
4.690924792E0,-3.565305710E0,-9.025427818E0,1.154536903E-1
4.700637448E0,-3.553341627E0,-9.042177200E0,1.010967568E-1
4.710350990E0,-3.570091486E0,-9.087940216E0,1.178465188E-1
4.720065209E0,-3.570091486E0,-9.121439934E0,1.034895778E-1
4.729778698E0,-3.522234917E0,-9.157332420E0,3.409772366E-2
4.739491303E0,-3.457329512E0,-9.178867340E0,-5.922235921E-2
4.749204792E0,-3.438187122E0,-9.217152596E0,-1.310070455E-1
4.758919063E0,-3.435794115E0,-9.269794464E0,-1.597209126E-1
4.768632448E0,-3.454936743E0,-9.291330338E0,-1.764706671E-1
4.778345157E0,-3.505485058E0,-9.296115875E0,-1.788634956E-1
4.788058646E0,-3.524627686E0,-9.308079720E0,-1.908276081E-1
4.797772917E0,-3.531806231E0,-9.315258980E0,-1.908276081E-1
4.807486303E0,-3.543770313E0,-9.303294182E0,-1.597209126E-1
4.817198959E0,-3.543770313E0,-9.269794464E0,-1.166501045E-1
4.826912500E0,-3.541377544E0,-9.231510162E0,-7.118647546E-2
4.836626719E0,-3.555734396E0,-9.209974289E0,-6.400800496E-2
4.846340209E0,-3.567698479E0,-9.186046600E0,-7.357929647E-2
4.856052813E0,-3.574877024E0,-9.159725189E0,-8.075776696E-2
4.865766355E0,-3.555734396E0,-9.138189316E0,-1.022931710E-1
4.875480573E0,-3.493520975E0,-9.128618240E0,-1.501496136E-1
4.885194063E0,-3.433401346E0,-9.147761345E0,-1.501496136E-1
4.894906667E0,-3.385545015E0,-9.188439369E0,-7.357929647E-2
4.904620157E0,-3.332902908E0,-9.231510162E0,3.409772366E-2
4.914334428E0,-3.313760281E0,-9.276973724E0,1.250249892E-1
4.924047917E0,-3.318545818E0,-9.272188187E0,1.369891018E-1
4.933760521E0,-3.356831074E0,-9.243474007E0,7.477571070E-2
4.943474011E0,-3.387937784E0,-9.243474007E0,-6.580262445E-3
4.953188282E0,-3.464508057E0,-9.231510162E0,-6.640082598E-2
4.962901667E0,-3.527020693E0,-9.193224907E0,-1.022931710E-1
4.972614375E0,-3.567698479E0,-9.159725189E0,-9.032905847E-2
4.982327865E0,-3.594019651E0,-9.150154114E0,-6.161518395E-2
4.992042136E0,-3.651447296E0,-9.154939651E0,1.016949583E-2
5.001755521E0,-3.677768469E0,-9.159725189E0,7.477571070E-2
5.011468178E0,-3.677768469E0,-9.164510727E0,3.170489892E-2
5.021181719E0,-3.653840065E0,-9.169296265E0,-4.965107143E-2
5.030895938E0,-3.577269793E0,-9.186046600E0,-1.022931710E-1
5.040609428E0,-3.524627686E0,-9.190832138E0,-1.525424421E-1
5.050322032E0,-3.483650684E0,-9.219545364E0,-1.788634956E-1
5.060035573E0,-3.462115288E0,-9.219545364E0,-1.860419661E-1
5.069749792E0,-3.464508057E0,-9.224330902E0,-1.070788130E-1
5.079463282E0,-3.493520975E0,-9.209974289E0,5.982056609E-4
5.089175886E0,-3.555734396E0,-9.195617676E0,7.238288224E-2
5.098889428E0,-3.589233875E0,-9.193224907E0,8.195417374E-2
5.108603646E0,-3.582055569E0,-9.186046600E0,-2.333002165E-2
5.118317136E0,-3.512663603E0,-9.190832138E0,-1.190429255E-1
5.128029740E0,-3.447758436E0,-9.193224907E0,-1.573280841E-1
5.137743230E0,-3.385545015E0,-9.202795982E0,-1.238285750E-1
5.147457500E0,-3.359223843E0,-9.200403214E0,-9.272187948E-2
5.157170990E0,-3.366402388E0,-9.188439369E0,-1.118644550E-1
5.166883594E0,-3.375973701E0,-9.195617676E0,-1.621137410E-1
5.176597084E0,-3.433401346E0,-9.214759827E0,-1.573280841E-1
5.186311355E0,-3.483650684E0,-9.248259544E0,-1.046859920E-1
5.196024844E0,-3.503092289E0,-9.281759262E0,-9.511470050E-2
5.205737448E0,-3.522234917E0,-9.286544800E0,-1.118644550E-1
5.215450938E0,-3.582055569E0,-9.260223389E0,-1.286142170E-1
5.225165209E0,-3.620340586E0,-9.186046600E0,-1.477568001E-1
5.234878594E0,-3.615555048E0,-9.135796547E0,-1.286142170E-1
5.244591303E0,-3.605983734E0,-9.123832703E0,-1.166501045E-1
5.254304792E0,-3.591626883E0,-9.140582085E0,-1.046859920E-1
5.264019063E0,-3.522234917E0,-9.188439369E0,-1.477568001E-1
5.273732448E0,-3.435794115E0,-9.238688469E0,-1.980060786E-1
5.283445157E0,-3.426223040E0,-9.272188187E0,-1.764706671E-1
5.293158646E0,-3.462115288E0,-9.272188187E0,-5.922235921E-2
5.302872917E0,-3.478864908E0,-9.267401695E0,-3.290131316E-2
5.312586303E0,-3.495913982E0,-9.255437851E0,-8.075776696E-2
5.322299011E0,-3.529413462E0,-9.195617676E0,-9.990034252E-2
5.332012500E0,-3.562912941E0,-9.145368576E0,-9.750752151E-2
5.341726771E0,-3.548556089E0,-9.121439934E0,-7.118647546E-2
5.351440157E0,-3.550948858E0,-9.119047165E0,-9.272187948E-2
5.361152865E0,-3.493520975E0,-9.138189316E0,-1.310070455E-1
5.370866355E0,-3.478864908E0,-9.159725189E0,-1.597209126E-1
5.380580625E0,-3.474079370E0,-9.178867340E0,-1.190429255E-1
5.390294011E0,-3.471686602E0,-9.174081802E0,-9.272187948E-2
5.400006719E0,-3.471686602E0,-9.183652878E0,-5.204389244E-2
5.409720209E0,-3.481257915E0,-9.171689034E0,-4.007977992E-2
5.419434480E0,-3.450151205E0,-9.166903496E0,-7.357929647E-2
5.429147865E0,-3.435794115E0,-9.202795982E0,-1.214357466E-1
5.438860573E0,-3.452543974E0,-9.231510162E0,-1.238285750E-1
5.448574063E0,-3.481257915E0,-9.241081238E0,-1.262213886E-1
5.458288334E0,-3.464508057E0,-9.262616158E0,-1.621137410E-1
5.468001719E0,-3.462115288E0,-9.269794464E0,-2.099701911E-1
5.477714428E0,-3.474079370E0,-9.274580956E0,-2.195414752E-1
5.487427917E0,-3.493520975E0,-9.257830620E0,-2.051845491E-1
5.497142188E0,-3.478864908E0,-9.238688469E0,-1.980060786E-1
5.506855678E0,-3.500699520E0,-9.212367058E0,-1.956132501E-1
5.516568282E0,-3.550948858E0,-9.193224907E0,-1.932204217E-1
5.526281771E0,-3.617947817E0,-9.195617676E0,-2.291127741E-1
5.535996042E0,-3.634697676E0,-9.200403214E0,-2.721835673E-1
5.545709532E0,-3.610769272E0,-9.219545364E0,-3.080759048E-1
5.555422136E0,-3.603590965E0,-9.219545364E0,-2.626122832E-1
5.565135625E0,-3.589233875E0,-9.224330902E0,-1.836491376E-1
5.574849896E0,-3.555734396E0,-9.229117393E0,-9.990034252E-2
5.584563386E0,-3.495913982E0,-9.226723671E0,-7.357929647E-2
5.594275990E0,-3.452543974E0,-9.200403214E0,-9.272187948E-2
5.603989532E0,-3.431008577E0,-9.190832138E0,-1.453639716E-1
5.613703750E0,-3.426223040E0,-9.176474571E0,-1.980060786E-1
5.623417240E0,-3.416651726E0,-9.162117958E0,-2.171486616E-1
5.633129844E0,-3.431008577E0,-9.135796547E0,-2.051845491E-1
5.642843386E0,-3.464508057E0,-9.145368576E0,-1.429711580E-1
5.652557605E0,-3.478864908E0,-9.123832703E0,-9.032905847E-2
5.662271094E0,-3.495913982E0,-9.107083321E0,-5.204389244E-2
5.671983698E0,-3.503092289E0,-9.109476089E0,-6.400800496E-2
5.681697240E0,-3.541377544E0,-9.126225471E0,-4.725824669E-2
5.691411459E0,-3.548556089E0,-9.133403778E0,-4.965107143E-2
5.701124948E0,-3.550948858E0,-9.171689034E0,-7.836493850E-2
5.710837553E0,-3.538984776E0,-9.202795982E0,-1.142572835E-1
5.720551094E0,-3.531806231E0,-9.205188751E0,-1.286142170E-1
5.730265313E0,-3.510270834E0,-9.224330902E0,-2.051845491E-1
5.739978803E0,-3.464508057E0,-9.243474007E0,-3.248256743E-1
5.749691407E0,-3.423830032E0,-9.233902931E0,-3.993022740E-1
5.759404948E0,-3.426223040E0,-9.212367058E0,-3.993022740E-1
5.769119167E0,-3.457329512E0,-9.229117393E0,-3.559323549E-1
5.778832657E0,-3.452543974E0,-9.233902931E0,-2.865405083E-1
5.788545261E0,-3.409473181E0,-9.260223389E0,-2.530409992E-1
5.798258803E0,-3.378366470E0,-9.260223389E0,-2.769692242E-1
5.807973021E0,-3.392723322E0,-9.265008926E0,-2.386840582E-1
5.817686511E0,-3.469293833E0,-9.257830620E0,-1.740778536E-1
5.827399115E0,-3.505485058E0,-9.233902931E0,-1.046859920E-1
5.837112657E0,-3.534198999E0,-9.212367058E0,-9.272187948E-2
5.846826928E0,-3.553341627E0,-9.176474571E0,-1.094716340E-1
5.856540313E0,-3.570091486E0,-9.133403778E0,-1.262213886E-1
5.866252969E0,-3.570091486E0,-9.126225471E0,-1.429711580E-1
5.875966511E0,-3.567698479E0,-9.104690552E0,-8.075776696E-2
5.885680782E0,-3.555734396E0,-9.126225471E0,-7.118647546E-2
5.895394167E0,-3.510270834E0,-9.157332420E0,-1.286142170E-1
5.905106823E0,-3.440579891E0,-9.183652878E0,-2.027917206E-1
5.914820365E0,-3.397509098E0,-9.214759827E0,-2.602194548E-1
5.924534636E0,-3.366402388E0,-9.236295700E0,-2.626122832E-1
5.934248021E0,-3.402294636E0,-9.238688469E0,-2.171486616E-1
5.943960730E0,-3.431008577E0,-9.241081238E0,-1.668993831E-1
5.953674219E0,-3.464508057E0,-9.236295700E0,-1.597209126E-1
5.963388490E0,-3.498306751E0,-9.231510162E0,-1.549352705E-1
5.973101875E0,-3.550948858E0,-9.207581520E0,-9.272187948E-2
5.982814584E0,-3.574877024E0,-9.190832138E0,-4.007977992E-2
5.992528073E0,-3.586841106E0,-9.217152596E0,-7.597211748E-2
6.002242344E0,-3.550948858E0,-9.226723671E0,-1.764706671E-1
6.011955730E0,-3.517449379E0,-9.186046600E0,-2.530409992E-1
6.021668438E0,-3.498306751E0,-9.186046600E0,-2.578266263E-1
6.031381928E0,-3.519842148E0,-9.207581520E0,-2.075773627E-1
6.041096198E0,-3.515056372E0,-9.200403214E0,-1.429711580E-1
6.050809584E0,-3.483650684E0,-9.190832138E0,-1.118644550E-1
6.060522292E0,-3.474079370E0,-9.200403214E0,-1.286142170E-1
6.070235782E0,-3.486043453E0,-9.198010445E0,-1.046859920E-1
6.079950053E0,-3.543770313E0,-9.174081802E0,-7.597211748E-2
6.089663542E0,-3.567698479E0,-9.188439369E0,-7.597211748E-2
6.099376146E0,-3.562912941E0,-9.188439369E0,-1.142572835E-1
6.109089636E0,-3.536591768E0,-9.195617676E0,-1.429711580E-1
6.118803907E0,-3.517449379E0,-9.193224907E0,-1.118644550E-1
6.128517396E0,-3.507878065E0,-9.200403214E0,-2.572284266E-2
6.138230000E0,-3.474079370E0,-9.205188751E0,5.982056609E-4
6.147943542E0,-3.481257915E0,-9.190832138E0,-3.529413417E-2
6.157657761E0,-3.476472139E0,-9.176474571E0,-1.262213886E-1
6.167371250E0,-3.534198999E0,-9.166903496E0,-1.884347796E-1
6.177083855E0,-3.555734396E0,-9.183652878E0,-1.645065546E-1
6.186797396E0,-3.574877024E0,-9.186046600E0,-1.381855011E-1
6.196511615E0,-3.536591768E0,-9.212367058E0,-1.166501045E-1
6.206225105E0,-3.498306751E0,-9.214759827E0,-1.214357466E-1
6.215937709E0,-3.471686602E0,-9.233902931E0,-1.022931710E-1
6.225651250E0,-3.493520975E0,-9.250652313E0,-6.640082598E-2
6.235365469E0,-3.512663603E0,-9.255437851E0,-6.400800496E-2
6.245078959E0,-3.562912941E0,-9.241081238E0,-7.836493850E-2
6.254791563E0,-3.565305710E0,-9.221938133E0,-1.214357466E-1
6.264505105E0,-3.536591768E0,-9.205188751E0,-1.788634956E-1
6.274219323E0,-3.486043453E0,-9.188439369E0,-2.099701911E-1
6.283932813E0,-3.474079370E0,-9.205188751E0,-1.932204217E-1
6.293645417E0,-3.433401346E0,-9.231510162E0,-1.788634956E-1
6.303358959E0,-3.428615808E0,-9.245866776E0,-2.027917206E-1
6.313073230E0,-3.399901867E0,-9.200403214E0,-2.147558331E-1
6.322786615E0,-3.407080412E0,-9.176474571E0,-2.075773627E-1
6.332499271E0,-3.421437263E0,-9.164510727E0,-1.692921966E-1
6.342212813E0,-3.457329512E0,-9.154939651E0,-1.525424421E-1
6.351927084E0,-3.466900826E0,-9.176474571E0,-1.549352705E-1
6.361640469E0,-3.466900826E0,-9.183652878E0,-1.980060786E-1
6.371353125E0,-3.447758436E0,-9.200403214E0,-2.291127741E-1
6.381066667E0,-3.426223040E0,-9.221938133E0,-2.673979402E-1
6.390780938E0,-3.419044495E0,-9.233902931E0,-2.554338276E-1
6.400494323E0,-3.440579891E0,-9.231510162E0,-1.884347796E-1
6.410207032E0,-3.510270834E0,-9.200403214E0,-9.511470050E-2
6.419920521E0,-3.620340586E0,-9.169296265E0,-5.443671346E-2
6.429634792E0,-3.620340586E0,-9.176474571E0,-1.094716340E-1
6.439348178E0,-3.469293833E0,-9.231510162E0,-2.338984162E-1
6.449060886E0,-3.356831074E0,-9.272188187E0,-3.032902777E-1
6.458774375E0,-3.297010422E0,-9.286544800E0,-2.817548811E-1
6.468488646E0,-3.289832115E0,-9.296115875E0,-2.697907388E-1
6.478202032E0,-3.330509901E0,-9.293723106E0,-2.650051117E-1
6.487914740E0,-3.352045536E0,-9.255437851E0,-2.482553422E-1
6.497628230E0,-3.450151205E0,-9.226723671E0,-2.171486616E-1
6.507342500E0,-3.596412420E0,-9.176474571E0,-1.477568001E-1
6.517055886E0,-3.704089403E0,-9.142974854E0,-1.022931710E-1
6.526768594E0,-3.766302824E0,-9.119047165E0,-1.094716340E-1
6.536482084E0,-3.783052683E0,-9.095118523E0,-1.645065546E-1
6.546196355E0,-3.749552965E0,-9.090332985E0,-2.602194548E-1
6.555909740E0,-3.692125320E0,-9.097511292E0,-3.176472187E-1
6.565622448E0,-3.603590965E0,-9.131011009E0,-3.032902777E-1
6.575335938E0,-3.522234917E0,-9.159725189E0,-2.171486616E-1
6.585050209E0,-3.454936743E0,-9.178867340E0,-6.400800496E-2
6.594763698E0,-3.387937784E0,-9.243474007E0,1.495514158E-2
6.604476303E0,-3.356831074E0,-9.269794464E0,-2.333002165E-2
6.614189792E0,-3.371187925E0,-9.296115875E0,-1.310070455E-1
6.623904063E0,-3.404687405E0,-9.238688469E0,-1.908276081E-1
6.633617553E0,-3.478864908E0,-9.190832138E0,-1.956132501E-1
6.643330157E0,-3.541377544E0,-9.159725189E0,-1.262213886E-1
6.653043698E0,-3.558127165E0,-9.164510727E0,-6.400800496E-2
6.662757917E0,-3.541377544E0,-9.171689034E0,-9.272187948E-2
6.672471407E0,-3.534198999E0,-9.193224907E0,-1.621137410E-1
6.682184011E0,-3.478864908E0,-9.219545364E0,-2.530409992E-1
6.691897553E0,-3.464508057E0,-9.229117393E0,-3.080759048E-1
6.701611771E0,-3.481257915E0,-9.229117393E0,-2.937189937E-1
6.711325261E0,-3.546163082E0,-9.202795982E0,-2.338984162E-1
6.721037865E0,-3.598805189E0,-9.186046600E0,-2.051845491E-1
6.730751407E0,-3.622733593E0,-9.147761345E0,-1.836491376E-1
6.740465625E0,-3.637090445E0,-9.162117958E0,-1.764706671E-1
6.750179115E0,-3.589233875E0,-9.171689034E0,-1.956132501E-1
6.759891719E0,-3.507878065E0,-9.217152596E0,-2.554338276E-1
6.769605261E0,-3.399901867E0,-9.236295700E0,-3.415754437E-1
6.779319480E0,-3.316153049E0,-9.260223389E0,-3.296113312E-1
6.789032969E0,-3.263510942E0,-9.274580956E0,-2.338984162E-1
6.798745573E0,-3.268296719E0,-9.260223389E0,-9.511470050E-2
6.808459115E0,-3.349652529E0,-9.248259544E0,-2.572284266E-2
6.818173334E0,-3.409473181E0,-9.212367058E0,-1.615155302E-2
6.827886823E0,-3.450151205E0,-9.181260109E0,-8.315058798E-2
6.837599428E0,-3.503092289E0,-9.181260109E0,-1.932204217E-1
6.847312969E0,-3.567698479E0,-9.171689034E0,-2.721835673E-1
6.857027188E0,-3.598805189E0,-9.164510727E0,-3.487538993E-1
6.866740678E0,-3.591626883E0,-9.145368576E0,-3.753740489E-1
6.876453282E0,-3.558127165E0,-9.147761345E0,-3.439682424E-1
6.886166823E0,-3.519842148E0,-9.186046600E0,-2.530409992E-1
6.895881042E0,-3.476472139E0,-9.245866776E0,-2.003988922E-1
6.905594532E0,-3.392723322E0,-9.276973724E0,-2.195414752E-1
6.915307136E0,-3.301796198E0,-9.286544800E0,-3.032902777E-1
6.925020678E0,-3.258725405E0,-9.288937569E0,-3.343969584E-1
6.934734896E0,-3.316153049E0,-9.260223389E0,-2.673979402E-1
6.944448386E0,-3.399901867E0,-9.229117393E0,-1.692921966E-1
6.954160990E0,-3.481257915E0,-9.198010445E0,-1.310070455E-1
6.963874532E0,-3.570091486E0,-9.162117958E0,-1.190429255E-1
6.973588750E0,-3.608376503E0,-9.126225471E0,-1.190429255E-1
6.983302240E0,-3.586841106E0,-9.150154114E0,-1.022931710E-1
6.993014844E0,-3.538984776E0,-9.198010445E0,-1.238285750E-1
7.002728386E0,-3.459722519E0,-9.229117393E0,-1.884347796E-1
7.012442605E0,-3.407080412E0,-9.253045082E0,-2.602194548E-1
7.022156094E0,-3.407080412E0,-9.262616158E0,-3.152543902E-1
7.031868698E0,-3.416651726E0,-9.253045082E0,-2.865405083E-1
7.041582240E0,-3.433401346E0,-9.229117393E0,-2.243271172E-1
7.051296459E0,-3.459722519E0,-9.195617676E0,-1.645065546E-1
7.061009948E0,-3.503092289E0,-9.171689034E0,-1.166501045E-1
7.070722553E0,-3.548556089E0,-9.171689034E0,-7.597211748E-2
7.080436094E0,-3.555734396E0,-9.186046600E0,-1.046859920E-1
7.090150313E0,-3.594019651E0,-9.202795982E0,-1.597209126E-1
7.099863803E0,-3.613162279E0,-9.174081802E0,-1.477568001E-1
7.109576407E0,-3.586841106E0,-9.157332420E0,-6.640082598E-2
7.119289948E0,-3.546163082E0,-9.147761345E0,5.383851007E-3
7.129004167E0,-3.493520975E0,-9.181260109E0,7.776673418E-3
7.138717657E0,-3.459722519E0,-9.195617676E0,-4.007977992E-2
7.148430261E0,-3.462115288E0,-9.205188751E0,-1.262213886E-1
7.158143750E0,-3.483650684E0,-9.226723671E0,-1.716850251E-1
7.167858021E0,-3.531806231E0,-9.221938133E0,-2.099701911E-1
7.177571511E0,-3.572484255E0,-9.193224907E0,-2.338984162E-1
7.187284115E0,-3.574877024E0,-9.198010445E0,-2.721835673E-1
7.196997605E0,-3.546163082E0,-9.193224907E0,-2.482553422E-1
7.206711875E0,-3.522234917E0,-9.188439369E0,-1.932204217E-1
7.216425365E0,-3.503092289E0,-9.207581520E0,-8.315058798E-2
7.226137969E0,-3.462115288E0,-9.229117393E0,-8.973085321E-3
7.235851459E0,-3.445365429E0,-9.229117393E0,-2.093719877E-2
7.245565730E0,-3.452543974E0,-9.231510162E0,-1.022931710E-1
7.255279115E0,-3.457329512E0,-9.229117393E0,-2.099701911E-1
7.264991823E0,-3.466900826E0,-9.200403214E0,-3.032902777E-1
7.274705313E0,-3.478864908E0,-9.188439369E0,-3.320041299E-1
7.284419584E0,-3.471686602E0,-9.190832138E0,-2.769692242E-1
7.294132969E0,-3.476472139E0,-9.207581520E0,-2.075773627E-1
7.303845678E0,-3.503092289E0,-9.226723671E0,-1.549352705E-1
7.313559167E0,-3.486043453E0,-9.205188751E0,-1.860419661E-1
7.323273438E0,-3.478864908E0,-9.188439369E0,-1.980060786E-1
7.332986823E0,-3.459722519E0,-9.209974289E0,-2.099701911E-1
7.342699480E0,-3.440579891E0,-9.217152596E0,-2.267199457E-1
7.352413021E0,-3.433401346E0,-9.212367058E0,-2.243271172E-1
7.362127292E0,-3.438187122E0,-9.202795982E0,-1.621137410E-1
7.371840678E0,-3.452543974E0,-9.207581520E0,-6.879365444E-2
7.381553334E0,-3.481257915E0,-9.198010445E0,-3.290131316E-2
7.391266875E0,-3.531806231E0,-9.205188751E0,-4.725824669E-2
7.400981094E0,-3.527020693E0,-9.198010445E0,-1.046859920E-1
7.410694584E0,-3.515056372E0,-9.202795982E0,-1.668993831E-1
7.420407188E0,-3.490829229E0,-9.200403214E0,-2.123630047E-1
7.430120730E0,-3.503092289E0,-9.209974289E0,-2.673979402E-1
7.439834948E0,-3.517449379E0,-9.214759827E0,-2.482553422E-1
7.449548438E0,-3.548556089E0,-9.195617676E0,-1.836491376E-1
7.459261042E0,-3.553341627E0,-9.190832138E0,-1.286142170E-1
7.468974584E0,-3.543770313E0,-9.188439369E0,-1.262213886E-1
7.478688803E0,-3.524627686E0,-9.207581520E0,-1.381855011E-1
7.488402292E0,-3.507878065E0,-9.226723671E0,-1.788634956E-1
7.498114896E0,-3.483650684E0,-9.229117393E0,-2.123630047E-1
7.507828386E0,-3.490829229E0,-9.224330902E0,-2.171486616E-1
7.517542657E0,-3.478864908E0,-9.205188751E0,-1.884347796E-1
7.527256146E0,-3.490829229E0,-9.217152596E0,-1.333998591E-1
7.536968750E0,-3.534198999E0,-9.221938133E0,-5.682953820E-2
7.546682240E0,-3.546163082E0,-9.202795982E0,-4.007977992E-2
7.556396511E0,-3.522234917E0,-9.198010445E0,-1.190429255E-1
7.566109896E0,-3.498306751E0,-9.198010445E0,-2.003988922E-1
7.575822605E0,-3.512663603E0,-9.171689034E0,-2.075773627E-1
7.585536094E0,-3.512663603E0,-9.169296265E0,-1.764706671E-1
7.595250365E0,-3.522234917E0,-9.150154114E0,-1.142572835E-1
7.604963750E0,-3.529413462E0,-9.140582085E0,-5.443671346E-2
7.614676407E0,-3.529413462E0,-9.154939651E0,-2.811566554E-2
7.624389948E0,-3.488436222E0,-9.205188751E0,-5.682953820E-2
7.634104167E0,-3.440579891E0,-9.231510162E0,-1.310070455E-1
7.643817657E0,-3.469293833E0,-9.233902931E0,-1.764706671E-1
7.653530261E0,-3.524627686E0,-9.233902931E0,-1.645065546E-1
7.663243803E0,-3.594019651E0,-9.229117393E0,-1.453639716E-1
7.672958021E0,-3.610769272E0,-9.229117393E0,-1.453639716E-1
7.682671511E0,-3.610769272E0,-9.214759827E0,-2.243271172E-1
7.692384115E0,-3.572484255E0,-9.231510162E0,-3.559323549E-1
7.702097605E0,-3.510270834E0,-9.238688469E0,-4.232304990E-1
7.711811875E0,-3.450151205E0,-9.255437851E0,-4.686941206E-1
7.721525261E0,-3.392723322E0,-9.260223389E0,-4.304089844E-1
7.731237969E0,-3.349652529E0,-9.253045082E0,-2.985046208E-1
7.740951459E0,-3.306581736E0,-9.229117393E0,-1.836491376E-1
7.750665730E0,-3.308974504E0,-9.236295700E0,-1.453639716E-1
7.760379115E0,-3.320938826E0,-9.224330902E0,-1.310070455E-1
7.770091771E0,-3.368795156E0,-9.209974289E0,-1.381855011E-1
7.779805313E0,-3.411865950E0,-9.162117958E0,-1.453639716E-1
7.789519532E0,-3.459722519E0,-9.126225471E0,-1.477568001E-1
7.799233021E0,-3.510270834E0,-9.121439934E0,-1.070788130E-1
7.808945625E0,-3.538984776E0,-9.123832703E0,-7.118647546E-2
7.818659167E0,-3.527020693E0,-9.135796547E0,-3.050848842E-2
7.828373386E0,-3.466900826E0,-9.190832138E0,-1.046859920E-1
7.838086875E0,-3.399901867E0,-9.245866776E0,-2.243271172E-1
7.847799480E0,-3.395116329E0,-9.274580956E0,-3.200400174E-1
7.857512969E0,-3.402294636E0,-9.257830620E0,-3.631108403E-1
7.867227240E0,-3.428615808E0,-9.253045082E0,-3.559323549E-1
7.876940625E0,-3.478864908E0,-9.243474007E0,-3.080759048E-1
7.886653334E0,-3.562912941E0,-9.212367058E0,-2.099701911E-1
7.896366823E0,-3.610769272E0,-9.202795982E0,-1.166501045E-1
7.906081094E0,-3.615555048E0,-9.200403214E0,-1.214357466E-1
7.915794480E0,-3.584448338E0,-9.200403214E0,-1.740778536E-1
7.925507136E0,-3.553341627E0,-9.188439369E0,-2.243271172E-1
7.935220678E0,-3.536591768E0,-9.174081802E0,-1.716850251E-1
7.944934896E0,-3.500699520E0,-9.193224907E0,-1.286142170E-1
7.954648386E0,-3.450151205E0,-9.226723671E0,-1.262213886E-1
7.964360990E0,-3.447758436E0,-9.238688469E0,-1.429711580E-1
7.974074480E0,-3.481257915E0,-9.224330902E0,-1.142572835E-1
7.983788750E0,-3.493520975E0,-9.207581520E0,-1.022931710E-1
7.993502136E0,-3.483650684E0,-9.193224907E0,-1.645065546E-1
8.003214844E0,-3.490829229E0,-9.154939651E0,-2.171486616E-1
8.012928334E0,-3.555734396E0,-9.121439934E0,-1.788634956E-1
8.022642605E0,-3.601198196E0,-9.107083321E0,-8.315058798E-2
8.032355990E0,-3.596412420E0,-9.157332420E0,-4.486542568E-2
8.042068646E0,-3.567698479E0,-9.205188751E0,-1.118644550E-1
8.051782188E0,-3.495913982E0,-9.219545364E0,-2.386840582E-1
8.061496407E0,-3.442972660E0,-9.226723671E0,-3.511467278E-1
8.071209896E0,-3.387937784E0,-9.238688469E0,-4.040879309E-1
8.080922500E0,-3.352045536E0,-9.248259544E0,-3.897309899E-1
8.090635990E0,-3.359223843E0,-9.255437851E0,-3.511467278E-1
8.100350261E0,-3.380759239E0,-9.262616158E0,-2.626122832E-1
8.110063750E0,-3.419044495E0,-9.253045082E0,-1.645065546E-1
8.119776355E0,-3.452543974E0,-9.243474007E0,-8.315058798E-2
8.129489844E0,-3.469293833E0,-9.262616158E0,-5.922235921E-2
8.139204115E0,-3.459722519E0,-9.233902931E0,-1.262213886E-1
8.148917500E0,-3.481257915E0,-9.219545364E0,-1.932204217E-1
8.158630209E0,-3.503092289E0,-9.200403214E0,-2.338984162E-1
8.168343698E0,-3.531806231E0,-9.178867340E0,-2.267199457E-1
8.178057969E0,-3.538984776E0,-9.181260109E0,-2.243271172E-1
8.187771355E0,-3.519842148E0,-9.195617676E0,-2.386840582E-1
8.197484011E0,-3.483650684E0,-9.202795982E0,-2.769692242E-1
8.207197553E0,-3.435794115E0,-9.231510162E0,-2.961117923E-1
8.216911771E0,-3.409473181E0,-9.243474007E0,-2.650051117E-1
8.226625261E0,-3.454936743E0,-9.243474007E0,-1.692921966E-1
8.236337865E0,-3.476472139E0,-9.236295700E0,-1.094716340E-1
8.246051355E0,-3.486043453E0,-9.233902931E0,-1.333998591E-1
8.255765625E0,-3.483650684E0,-9.219545364E0,-2.003988922E-1
8.265479011E0,-3.493520975E0,-9.188439369E0,-1.836491376E-1
8.275191719E0,-3.495913982E0,-9.171689034E0,-1.573280841E-1
8.284905209E0,-3.454936743E0,-9.183652878E0,-1.573280841E-1
8.294619480E0,-3.445365429E0,-9.181260109E0,-1.764706671E-1
8.304332865E0,-3.440579891E0,-9.202795982E0,-1.453639716E-1
8.314045573E0,-3.435794115E0,-9.195617676E0,-1.094716340E-1
8.323759063E0,-3.457329512E0,-9.188439369E0,-9.750752151E-2
8.333473334E0,-3.500699520E0,-9.190832138E0,-1.118644550E-1
8.343186719E0,-3.531806231E0,-9.209974289E0,-1.621137410E-1
8.352899375E0,-3.500699520E0,-9.178867340E0,-2.315055877E-1
8.362612917E0,-3.495913982E0,-9.190832138E0,-2.578266263E-1
8.372327136E0,-3.498306751E0,-9.205188751E0,-2.243271172E-1
8.382040625E0,-3.495913982E0,-9.231510162E0,-1.573280841E-1
8.391753230E0,-3.478864908E0,-9.250652313E0,-1.645065546E-1
8.401466771E0,-3.440579891E0,-9.260223389E0,-2.123630047E-1
8.411180990E0,-3.419044495E0,-9.250652313E0,-2.721835673E-1
8.420894480E0,-3.409473181E0,-9.243474007E0,-2.865405083E-1
8.430607084E0,-3.435794115E0,-9.217152596E0,-2.865405083E-1
8.440320625E0,-3.464508057E0,-9.229117393E0,-2.602194548E-1
8.450034844E0,-3.481257915E0,-9.229117393E0,-2.578266263E-1
8.459748334E0,-3.476472139E0,-9.226723671E0,-2.530409992E-1
8.469460938E0,-3.428615808E0,-9.233902931E0,-2.817548811E-1
8.479174428E0,-3.390330553E0,-9.229117393E0,-3.391826153E-1
8.488888698E0,-3.359223843E0,-9.200403214E0,-3.921238184E-1
8.498602188E0,-3.342474222E0,-9.207581520E0,-3.897309899E-1
8.508314792E0,-3.330509901E0,-9.257830620E0,-3.702892959E-1
8.518028282E0,-3.352045536E0,-9.276973724E0,-2.865405083E-1
8.527742553E0,-3.419044495E0,-9.253045082E0,-1.453639716E-1
8.537456042E0,-3.517449379E0,-9.217152596E0,-3.050848842E-2
8.547168646E0,-3.605983734E0,-9.166903496E0,2.991028363E-3
8.556882136E0,-3.649054527E0,-9.123832703E0,-5.443671346E-2
8.566596407E0,-3.687339783E0,-9.090332985E0,-1.094716340E-1
8.576309896E0,-3.696911097E0,-9.087940216E0,-1.477568001E-1
8.586022500E0,-3.620340586E0,-9.142974854E0,-1.716850251E-1
8.595735990E0,-3.483650684E0,-9.198010445E0,-2.291127741E-1
8.605450261E0,-3.371187925E0,-9.243474007E0,-2.673979402E-1
8.615163750E0,-3.359223843E0,-9.274580956E0,-2.291127741E-1
8.624876355E0,-3.354438305E0,-9.300901413E0,-1.812563092E-1
8.634589844E0,-3.354438305E0,-9.281759262E0,-1.549352705E-1
8.644304115E0,-3.373580933E0,-9.255437851E0,-2.051845491E-1
8.654017605E0,-3.423830032E0,-9.205188751E0,-2.051845491E-1
8.663730209E0,-3.498306751E0,-9.186046600E0,-2.147558331E-1
8.673443750E0,-3.529413462E0,-9.195617676E0,-2.338984162E-1
8.683157969E0,-3.510270834E0,-9.205188751E0,-2.721835673E-1
8.692871459E0,-3.503092289E0,-9.212367058E0,-2.602194548E-1
8.702584063E0,-3.483650684E0,-9.221938133E0,-2.123630047E-1
8.712297605E0,-3.464508057E0,-9.236295700E0,-1.405783296E-1
8.722011823E0,-3.452543974E0,-9.253045082E0,-9.990034252E-2
8.731725313E0,-3.447758436E0,-9.253045082E0,-1.046859920E-1
8.741437917E0,-3.481257915E0,-9.245866776E0,-1.357926875E-1
8.751151459E0,-3.507878065E0,-9.224330902E0,-1.764706671E-1
8.760865678E0,-3.510270834E0,-9.224330902E0,-2.315055877E-1
8.770579167E0,-3.493520975E0,-9.236295700E0,-2.650051117E-1
8.780291771E0,-3.474079370E0,-9.202795982E0,-2.793620527E-1
8.790005313E0,-3.435794115E0,-9.209974289E0,-2.745763958E-1
8.799719584E0,-3.371187925E0,-9.221938133E0,-2.841476798E-1
8.809432969E0,-3.335295677E0,-9.221938133E0,-2.721835673E-1
8.819145678E0,-3.337688446E0,-9.229117393E0,-2.315055877E-1
8.828859167E0,-3.354438305E0,-9.221938133E0,-1.692921966E-1
8.838573438E0,-3.435794115E0,-9.207581520E0,-8.075776696E-2
8.848286823E0,-3.500699520E0,-9.186046600E0,7.776673418E-3
8.857999532E0,-3.538984776E0,-9.174081802E0,5.324030295E-2
8.867713021E0,-3.531806231E0,-9.171689034E0,-6.580262445E-3
8.877427292E0,-3.522234917E0,-9.176474571E0,-1.118644550E-1
8.887140782E0,-3.505485058E0,-9.186046600E0,-1.692921966E-1
8.896853386E0,-3.481257915E0,-9.207581520E0,-2.099701911E-1
8.906566928E0,-3.438187122E0,-9.248259544E0,-2.554338276E-1
8.916281146E0,-3.407080412E0,-9.281759262E0,-2.961117923E-1
8.925994636E0,-3.421437263E0,-9.291330338E0,-2.937189937E-1
8.935707240E0,-3.466900826E0,-9.262616158E0,-2.626122832E-1
8.945420782E0,-3.462115288E0,-9.229117393E0,-2.219343036E-1
8.955135000E0,-3.483650684E0,-9.195617676E0,-2.315055877E-1
8.964848490E0,-3.503092289E0,-9.190832138E0,-2.291127741E-1
8.974561146E0,-3.534198999E0,-9.162117958E0,-1.716850251E-1
8.984274636E0,-3.541377544E0,-9.154939651E0,-1.190429255E-1
8.993988907E0,-3.519842148E0,-9.188439369E0,-1.501496136E-1
9.003702292E0,-3.476472139E0,-9.233902931E0,-1.884347796E-1
9.013415000E0,-3.459722519E0,-9.248259544E0,-1.621137410E-1
9.023128490E0,-3.421437263E0,-9.245866776E0,-1.142572835E-1
9.032842761E0,-3.397509098E0,-9.250652313E0,-9.032905847E-2
9.042556250E0,-3.431008577E0,-9.221938133E0,-1.166501045E-1
9.052268855E0,-3.459722519E0,-9.209974289E0,-1.477568001E-1
9.061982396E0,-3.488436222E0,-9.205188751E0,-1.908276081E-1
9.071696667E0,-3.531806231E0,-9.195617676E0,-2.482553422E-1
9.081410053E0,-3.538984776E0,-9.193224907E0,-2.913261652E-1
9.091122761E0,-3.524627686E0,-9.188439369E0,-3.176472187E-1
9.100836250E0,-3.483650684E0,-9.219545364E0,-3.080759048E-1
9.110550521E0,-3.459722519E0,-9.245866776E0,-2.602194548E-1
9.120264011E0,-3.435794115E0,-9.224330902E0,-2.386840582E-1
9.129976615E0,-3.407080412E0,-9.214759827E0,-2.195414752E-1
9.139690157E0,-3.476472139E0,-9.190832138E0,-1.764706671E-1
9.149404375E0,-3.507878065E0,-9.178867340E0,-8.554340899E-2
9.159117865E0,-3.498306751E0,-9.178867340E0,-8.973085321E-3
9.168830469E0,-3.471686602E0,-9.205188751E0,-2.572284266E-2
9.178544011E0,-3.421437263E0,-9.236295700E0,-8.793623000E-2
9.188258282E0,-3.421437263E0,-9.238688469E0,-1.788634956E-1
9.197971667E0,-3.435794115E0,-9.243474007E0,-2.793620527E-1
9.207684375E0,-3.452543974E0,-9.229117393E0,-3.367897868E-1
9.217397917E0,-3.493520975E0,-9.226723671E0,-3.343969584E-1
9.227112136E0,-3.553341627E0,-9.195617676E0,-2.889333367E-1
9.236825625E0,-3.596412420E0,-9.169296265E0,-2.027917206E-1
9.246538230E0,-3.608376503E0,-9.159725189E0,-1.381855011E-1
9.256251771E0,-3.579662561E0,-9.178867340E0,-1.022931710E-1
9.265966042E0,-3.529413462E0,-9.207581520E0,-1.094716340E-1
9.275679428E0,-3.478864908E0,-9.212367058E0,-1.286142170E-1
9.285392136E0,-3.457329512E0,-9.202795982E0,-1.166501045E-1
9.295105678E0,-3.407080412E0,-9.209974289E0,-1.238285750E-1
9.304819896E0,-3.385545015E0,-9.224330902E0,-1.214357466E-1
9.314533386E0,-3.385545015E0,-9.221938133E0,-1.333998591E-1
9.324246042E0,-3.433401346E0,-9.212367058E0,-1.549352705E-1
9.333959532E0,-3.488436222E0,-9.202795982E0,-1.525424421E-1
9.343673803E0,-3.515056372E0,-9.181260109E0,-1.884347796E-1
9.353387292E0,-3.512663603E0,-9.198010445E0,-2.673979402E-1
9.363099896E0,-3.500699520E0,-9.212367058E0,-3.200400174E-1
9.372813438E0,-3.505485058E0,-9.207581520E0,-3.176472187E-1
9.382527709E0,-3.486043453E0,-9.212367058E0,-2.578266263E-1
9.392241094E0,-3.442972660E0,-9.224330902E0,-1.692921966E-1
9.401953803E0,-3.419044495E0,-9.245866776E0,-1.094716340E-1
9.411667292E0,-3.399901867E0,-9.262616158E0,-7.836493850E-2
9.421381563E0,-3.397509098E0,-9.260223389E0,-8.554340899E-2
9.431095053E0,-3.445365429E0,-9.241081238E0,-1.238285750E-1
9.440807657E0,-3.500699520E0,-9.221938133E0,-1.788634956E-1
9.450521198E0,-3.531806231E0,-9.198010445E0,-2.219343036E-1
9.460235469E0,-3.543770313E0,-9.162117958E0,-2.410768867E-1
9.469948959E0,-3.550948858E0,-9.166903496E0,-2.171486616E-1
9.479661563E0,-3.527020693E0,-9.188439369E0,-2.051845491E-1
9.489375105E0,-3.498306751E0,-9.200403214E0,-2.027917206E-1
9.499089323E0,-3.493520975E0,-9.214759827E0,-2.147558331E-1
9.508802813E0,-3.476472139E0,-9.221938133E0,-1.908276081E-1
9.518515469E0,-3.457329512E0,-9.214759827E0,-1.668993831E-1
9.528228959E0,-3.426223040E0,-9.217152596E0,-1.525424421E-1
9.537943230E0,-3.435794115E0,-9.221938133E0,-1.214357466E-1
9.547656719E0,-3.464508057E0,-9.229117393E0,-7.357929647E-2
9.557369375E0,-3.486043453E0,-9.224330902E0,-3.529413417E-2
9.567082865E0,-3.478864908E0,-9.195617676E0,-6.879365444E-2
9.576797136E0,-3.488436222E0,-9.174081802E0,-1.429711580E-1
9.586510625E0,-3.515056372E0,-9.183652878E0,-1.932204217E-1
9.596223230E0,-3.531806231E0,-9.181260109E0,-2.291127741E-1
9.605936771E0,-3.562912941E0,-9.195617676E0,-2.315055877E-1
9.615651042E0,-3.567698479E0,-9.195617676E0,-2.147558331E-1
9.625364428E0,-3.505485058E0,-9.198010445E0,-2.075773627E-1
9.635077136E0,-3.464508057E0,-9.212367058E0,-2.051845491E-1
9.644790678E0,-3.486043453E0,-9.231510162E0,-1.812563092E-1
9.654504948E0,-3.476472139E0,-9.243474007E0,-1.668993831E-1
9.664218334E0,-3.474079370E0,-9.231510162E0,-1.764706671E-1
9.673931042E0,-3.507878065E0,-9.209974289E0,-1.453639716E-1
9.683644584E0,-3.519842148E0,-9.200403214E0,-1.286142170E-1
9.693358855E0,-3.490829229E0,-9.205188751E0,-1.357926875E-1
9.703072240E0,-3.478864908E0,-9.207581520E0,-1.668993831E-1
9.712784948E0,-3.447758436E0,-9.214759827E0,-1.836491376E-1
9.722498438E0,-3.459722519E0,-9.229117393E0,-1.908276081E-1
9.732212709E0,-3.457329512E0,-9.224330902E0,-2.051845491E-1
9.741926198E0,-3.450151205E0,-9.207581520E0,-2.075773627E-1
9.751638855E0,-3.450151205E0,-9.214759827E0,-1.764706671E-1
9.761352396E0,-3.464508057E0,-9.190832138E0,-1.214357466E-1
9.771066615E0,-3.464508057E0,-9.188439369E0,-8.075776696E-2
9.780780105E0,-3.469293833E0,-9.195617676E0,-1.142572835E-1
9.790492761E0,-3.493520975E0,-9.186046600E0,-2.243271172E-1
9.800206250E0,-3.531806231E0,-9.171689034E0,-2.817548811E-1
9.809920521E0,-3.565305710E0,-9.176474571E0,-2.673979402E-1
9.819634011E0,-3.582055569E0,-9.200403214E0,-1.908276081E-1
9.829346667E0,-3.541377544E0,-9.229117393E0,-1.310070455E-1
9.839060157E0,-3.483650684E0,-9.255437851E0,-1.381855011E-1
9.848774428E0,-3.431008577E0,-9.255437851E0,-1.429711580E-1
9.858487917E0,-3.409473181E0,-9.248259544E0,-1.405783296E-1
9.868200573E0,-3.419044495E0,-9.224330902E0,-1.238285750E-1
9.877914063E0,-3.469293833E0,-9.200403214E0,-1.142572835E-1
9.887628334E0,-3.466900826E0,-9.193224907E0,-1.549352705E-1
9.897341823E0,-3.471686602E0,-9.190832138E0,-2.123630047E-1
9.907054480E0,-3.507878065E0,-9.183652878E0,-2.410768867E-1
9.916767969E0,-3.534198999E0,-9.178867340E0,-2.171486616E-1
9.926482240E0,-3.524627686E0,-9.188439369E0,-1.812563092E-1
9.936195730E0,-3.536591768E0,-9.190832138E0,-1.477568001E-1
9.945908386E0,-3.531806231E0,-9.207581520E0,-1.166501045E-1
9.955621875E0,-3.515056372E0,-9.214759827E0,-1.238285750E-1
9.965336146E0,-3.498306751E0,-9.238688469E0,-1.429711580E-1
9.975049636E0,-3.471686602E0,-9.236295700E0,-1.621137410E-1
9.984762292E0,-3.459722519E0,-9.202795982E0,-1.860419661E-1
9.994475782E0,-3.478864908E0,-9.169296265E0,-2.003988922E-1
1.000419005E1,-3.541377544E0,-9.166903496E0,-1.812563092E-1
1.001390354E1,-3.572484255E0,-9.183652878E0,-1.429711580E-1
1.002361620E1,-3.572484255E0,-9.193224907E0,-1.357926875E-1
1.003332969E1,-3.550948858E0,-9.198010445E0,-1.645065546E-1
1.004304396E1,-3.510270834E0,-9.209974289E0,-2.291127741E-1
1.005275745E1,-3.459722519E0,-9.202795982E0,-2.673979402E-1
1.006247011E1,-3.426223040E0,-9.221938133E0,-2.243271172E-1
1.007218365E1,-3.397509098E0,-9.233902931E0,-1.908276081E-1
1.008189786E1,-3.407080412E0,-9.229117393E0,-1.621137410E-1
1.009161136E1,-3.462115288E0,-9.217152596E0,-1.166501045E-1
1.010132401E1,-3.524627686E0,-9.176474571E0,-8.075776696E-2
1.011103755E1,-3.574877024E0,-9.178867340E0,-6.400800496E-2
1.012075182E1,-3.570091486E0,-9.193224907E0,-9.990034252E-2
1.013046521E1,-3.570091486E0,-9.188439369E0,-1.453639716E-1
1.014017792E1,-3.543770313E0,-9.188439369E0,-1.716850251E-1
1.014989146E1,-3.495913982E0,-9.195617676E0,-1.764706671E-1
1.015960573E1,-3.469293833E0,-9.202795982E0,-1.908276081E-1
1.016931922E1,-3.462115288E0,-9.219545364E0,-1.908276081E-1
1.017903182E1,-3.483650684E0,-9.214759827E0,-1.740778536E-1
1.018874536E1,-3.507878065E0,-9.207581520E0,-1.094716340E-1
1.019845964E1,-3.524627686E0,-9.188439369E0,-7.836493850E-2
1.020817312E1,-3.548556089E0,-9.193224907E0,-9.511470050E-2
1.021788573E1,-3.548556089E0,-9.186046600E0,-1.573280841E-1
1.022759927E1,-3.541377544E0,-9.188439369E0,-2.075773627E-1
1.023731354E1,-3.490829229E0,-9.209974289E0,-2.410768867E-1
1.024702703E1,-3.457329512E0,-9.207581520E0,-2.243271172E-1
1.025673964E1,-3.445365429E0,-9.217152596E0,-1.692921966E-1
1.026645318E1,-3.431008577E0,-9.231510162E0,-9.511470050E-2
1.027616745E1,-3.431008577E0,-9.219545364E0,-7.118647546E-2
1.028588094E1,-3.440579891E0,-9.214759827E0,-9.511470050E-2
1.029559359E1,-3.476472139E0,-9.200403214E0,-1.310070455E-1
1.030530714E1,-3.488436222E0,-9.190832138E0,-1.788634956E-1
1.031502136E1,-3.522234917E0,-9.186046600E0,-2.027917206E-1
1.032473484E1,-3.579662561E0,-9.174081802E0,-2.027917206E-1
1.033444750E1,-3.586841106E0,-9.166903496E0,-1.884347796E-1
1.034416104E1,-3.579662561E0,-9.171689034E0,-1.788634956E-1
1.035387531E1,-3.562912941E0,-9.195617676E0,-1.668993831E-1
1.036358870E1,-3.503092289E0,-9.224330902E0,-1.597209126E-1
1.037330141E1,-3.474079370E0,-9.233902931E0,-1.908276081E-1
1.038301495E1,-3.435794115E0,-9.229117393E0,-1.836491376E-1
1.039272922E1,-3.407080412E0,-9.224330902E0,-1.692921966E-1
1.040244271E1,-3.387937784E0,-9.212367058E0,-1.477568001E-1
1.041215531E1,-3.395116329E0,-9.198010445E0,-1.238285750E-1
1.042186886E1,-3.447758436E0,-9.205188751E0,-1.046859920E-1
1.043158313E1,-3.486043453E0,-9.205188751E0,-7.836493850E-2
1.044129662E1,-3.538984776E0,-9.221938133E0,-1.070788130E-1
1.045100922E1,-3.560520172E0,-9.226723671E0,-1.501496136E-1
1.046072276E1,-3.555734396E0,-9.188439369E0,-2.099701911E-1
1.047043703E1,-3.555734396E0,-9.154939651E0,-2.243271172E-1
1.048015052E1,-3.577269793E0,-9.166903496E0,-2.099701911E-1
1.048986313E1,-3.555734396E0,-9.181260109E0,-2.003988922E-1
1.049957667E1,-3.490829229E0,-9.207581520E0,-2.267199457E-1
1.050929094E1,-3.447758436E0,-9.224330902E0,-2.410768867E-1
1.051900443E1,-3.419044495E0,-9.224330902E0,-2.171486616E-1
1.052871708E1,-3.426223040E0,-9.229117393E0,-1.501496136E-1
1.053843057E1,-3.438187122E0,-9.226723671E0,-8.793623000E-2
1.054814484E1,-3.457329512E0,-9.207581520E0,-7.118647546E-2
1.055785833E1,-3.483650684E0,-9.205188751E0,-8.554340899E-2
1.056757099E1,-3.503092289E0,-9.181260109E0,-1.166501045E-1
1.057728453E1,-3.531806231E0,-9.176474571E0,-1.333998591E-1
1.058699880E1,-3.550948858E0,-9.190832138E0,-1.262213886E-1
1.059671219E1,-3.538984776E0,-9.202795982E0,-1.549352705E-1
1.060642490E1,-3.495913982E0,-9.233902931E0,-1.477568001E-1
1.061613844E1,-3.457329512E0,-9.241081238E0,-1.453639716E-1
1.062585271E1,-3.452543974E0,-9.226723671E0,-1.405783296E-1
1.063556620E1,-3.462115288E0,-9.209974289E0,-1.333998591E-1
1.064527880E1,-3.483650684E0,-9.209974289E0,-1.429711580E-1
1.065499234E1,-3.517449379E0,-9.193224907E0,-1.716850251E-1
1.066470662E1,-3.515056372E0,-9.183652878E0,-1.716850251E-1
1.067442011E1,-3.531806231E0,-9.176474571E0,-1.453639716E-1
1.068413271E1,-3.538984776E0,-9.166903496E0,-8.315058798E-2
1.069384625E1,-3.500699520E0,-9.181260109E0,-9.272187948E-2
1.070356052E1,-3.438187122E0,-9.209974289E0,-1.573280841E-1
1.071327401E1,-3.409473181E0,-9.236295700E0,-1.764706671E-1
1.072298662E1,-3.433401346E0,-9.231510162E0,-1.190429255E-1
1.073270016E1,-3.481257915E0,-9.241081238E0,-4.486542568E-2
1.074241443E1,-3.505485058E0,-9.233902931E0,-5.443671346E-2
1.075212792E1,-3.498306751E0,-9.221938133E0,-1.333998591E-1
1.076184052E1,-3.500699520E0,-9.214759827E0,-1.932204217E-1
1.077155406E1,-3.498306751E0,-9.186046600E0,-1.932204217E-1
1.078126833E1,-3.476472139E0,-9.186046600E0,-1.453639716E-1
1.079098182E1,-3.481257915E0,-9.200403214E0,-1.310070455E-1
1.080069448E1,-3.481257915E0,-9.198010445E0,-1.333998591E-1
1.081040797E1,-3.515056372E0,-9.188439369E0,-1.142572835E-1
1.082012224E1,-3.553341627E0,-9.181260109E0,-1.022931710E-1
1.082983573E1,-3.560520172E0,-9.188439369E0,-6.400800496E-2
1.083954839E1,-3.550948858E0,-9.195617676E0,-7.357929647E-2
1.084926193E1,-3.560520172E0,-9.183652878E0,-9.272187948E-2
1.085897620E1,-3.562912941E0,-9.188439369E0,-1.166501045E-1
1.086868958E1,-3.519842148E0,-9.178867340E0,-1.286142170E-1
1.087840229E1,-3.490829229E0,-9.190832138E0,-1.477568001E-1
1.088811583E1,-3.469293833E0,-9.209974289E0,-1.740778536E-1
1.089783010E1,-3.404687405E0,-9.233902931E0,-2.075773627E-1
1.090754349E1,-3.385545015E0,-9.243474007E0,-2.386840582E-1
1.091725620E1,-3.387937784E0,-9.262616158E0,-2.291127741E-1
1.092696974E1,-3.404687405E0,-9.241081238E0,-1.645065546E-1
1.093668401E1,-3.457329512E0,-9.195617676E0,-6.879365444E-2
1.094639750E1,-3.510270834E0,-9.159725189E0,1.256231871E-2
1.095611010E1,-3.517449379E0,-9.150154114E0,4.127619043E-2
1.096582365E1,-3.529413462E0,-9.154939651E0,-1.794616925E-3
1.097553792E1,-3.536591768E0,-9.169296265E0,-7.836493850E-2
1.098525141E1,-3.560520172E0,-9.183652878E0,-1.549352705E-1
1.099496401E1,-3.546163082E0,-9.224330902E0,-2.219343036E-1
1.100467755E1,-3.527020693E0,-9.248259544E0,-2.673979402E-1
1.101439182E1,-3.490829229E0,-9.250652313E0,-2.673979402E-1
1.102410531E1,-3.457329512E0,-9.236295700E0,-2.123630047E-1
1.103381792E1,-3.447758436E0,-9.231510162E0,-1.286142170E-1
1.104353146E1,-3.450151205E0,-9.236295700E0,-1.046859920E-1
1.105324573E1,-3.454936743E0,-9.207581520E0,-1.022931710E-1
1.106295922E1,-3.498306751E0,-9.202795982E0,-1.118644550E-1
1.107267182E1,-3.534198999E0,-9.198010445E0,-1.094716340E-1
1.108238536E1,-3.558127165E0,-9.209974289E0,-9.272187948E-2
1.109209964E1,-3.560520172E0,-9.224330902E0,-8.075776696E-2
1.110181313E1,-3.574877024E0,-9.209974289E0,-3.768695518E-2
1.111152573E1,-3.543770313E0,-9.193224907E0,5.383851007E-3
1.112123927E1,-3.474079370E0,-9.193224907E0,5.383851007E-3
1.113095354E1,-3.433401346E0,-9.212367058E0,-3.290131316E-2
1.114066703E1,-3.419044495E0,-9.202795982E0,-7.836493850E-2
1.115037969E1,-3.431008577E0,-9.195617676E0,-1.812563092E-1
1.116009318E1,-3.466900826E0,-9.193224907E0,-2.554338276E-1
1.116980745E1,-3.507878065E0,-9.178867340E0,-2.386840582E-1
1.117952094E1,-3.553341627E0,-9.183652878E0,-1.310070455E-1
1.118923359E1,-3.558127165E0,-9.200403214E0,-4.247260094E-2
1.119894708E1,-3.536591768E0,-9.200403214E0,1.016949583E-2
1.120866136E1,-3.517449379E0,-9.193224907E0,5.383851007E-3
1.121837484E1,-3.490829229E0,-9.200403214E0,2.452643216E-2
1.122808750E1,-3.478864908E0,-9.212367058E0,2.691925503E-2
1.123780099E1,-3.447758436E0,-9.207581520E0,-1.375873014E-2
1.124751526E1,-3.431008577E0,-9.219545364E0,-1.286142170E-1
1.125722875E1,-3.474079370E0,-9.200403214E0,-1.932204217E-1
1.126694136E1,-3.503092289E0,-9.198010445E0,-2.075773627E-1
1.127665490E1,-3.543770313E0,-9.219545364E0,-1.860419661E-1
1.128636917E1,-3.558127165E0,-9.214759827E0,-1.262213886E-1
1.129608266E1,-3.565305710E0,-9.186046600E0,-1.046859920E-1
1.130579531E1,-3.562912941E0,-9.183652878E0,-1.166501045E-1
1.131550880E1,-3.531806231E0,-9.202795982E0,-1.094716340E-1
1.132522307E1,-3.524627686E0,-9.195617676E0,-8.315058798E-2
1.133493656E1,-3.512663603E0,-9.198010445E0,-7.597211748E-2
1.134464917E1,-3.490829229E0,-9.186046600E0,-9.511470050E-2
1.135436271E1,-3.503092289E0,-9.186046600E0,-9.272187948E-2
1.136407698E1,-3.512663603E0,-9.198010445E0,-6.879365444E-2
1.137379047E1,-3.507878065E0,-9.202795982E0,-5.204389244E-2
1.138350307E1,-3.500699520E0,-9.224330902E0,-7.836493850E-2
1.139321662E1,-3.481257915E0,-9.221938133E0,-1.190429255E-1
1.140293089E1,-3.471686602E0,-9.212367058E0,-1.716850251E-1
1.141264438E1,-3.452543974E0,-9.207581520E0,-1.980060786E-1
1.142235698E1,-3.416651726E0,-9.198010445E0,-2.123630047E-1
1.143207052E1,-3.404687405E0,-9.186046600E0,-2.051845491E-1
1.144178479E1,-3.438187122E0,-9.181260109E0,-1.381855011E-1
1.145149828E1,-3.498306751E0,-9.186046600E0,-5.682953820E-2
1.146121089E1,-3.536591768E0,-9.198010445E0,-1.615155302E-2
1.147092443E1,-3.548556089E0,-9.202795982E0,-3.529413417E-2
1.148063870E1,-3.553341627E0,-9.209974289E0,-1.070788130E-1
1.149035219E1,-3.577269793E0,-9.202795982E0,-1.381855011E-1
1.150006479E1,-3.546163082E0,-9.183652878E0,-1.357926875E-1
1.150977833E1,-3.507878065E0,-9.181260109E0,-1.453639716E-1
1.151949260E1,-3.447758436E0,-9.200403214E0,-2.171486616E-1
1.152920609E1,-3.399901867E0,-9.221938133E0,-2.482553422E-1
1.153891870E1,-3.387937784E0,-9.224330902E0,-2.362912297E-1
1.154863224E1,-3.421437263E0,-9.238688469E0,-1.716850251E-1
1.155834651E1,-3.474079370E0,-9.236295700E0,-1.046859920E-1
1.156805990E1,-3.529413462E0,-9.233902931E0,-5.922235921E-2
1.157777261E1,-3.553341627E0,-9.224330902E0,-5.204389244E-2
1.158748615E1,-3.570091486E0,-9.202795982E0,-4.247260094E-2
1.159720042E1,-3.567698479E0,-9.181260109E0,-7.597211748E-2
1.160691380E1,-3.543770313E0,-9.159725189E0,-1.597209126E-1
1.161662651E1,-3.519842148E0,-9.176474571E0,-2.195414752E-1
1.162634005E1,-3.510270834E0,-9.186046600E0,-2.003988922E-1
1.163605427E1,-3.527020693E0,-9.190832138E0,-1.046859920E-1
1.164576776E1,-3.531806231E0,-9.190832138E0,-2.572284266E-2
1.165548042E1,-3.555734396E0,-9.195617676E0,-4.187439568E-3
1.166519391E1,-3.550948858E0,-9.195617676E0,-3.768695518E-2
1.167490818E1,-3.565305710E0,-9.195617676E0,-7.836493850E-2
1.168462167E1,-3.541377544E0,-9.169296265E0,-7.597211748E-2
1.169433432E1,-3.498306751E0,-9.174081802E0,-9.511470050E-2
1.170404781E1,-3.454936743E0,-9.195617676E0,-1.405783296E-1
1.171376208E1,-3.440579891E0,-9.221938133E0,-1.405783296E-1
1.172347557E1,-3.457329512E0,-9.233902931E0,-1.238285750E-1
1.173318818E1,-3.466900826E0,-9.236295700E0,-1.070788130E-1
1.174290172E1,-3.507878065E0,-9.221938133E0,-9.990034252E-2
1.175261599E1,-3.543770313E0,-9.202795982E0,-8.075776696E-2
1.176232938E1,-3.574877024E0,-9.195617676E0,-5.204389244E-2
1.177204208E1,-3.543770313E0,-9.200403214E0,-6.400800496E-2
1.178175562E1,-3.474079370E0,-9.214759827E0,-1.094716340E-1
1.179146990E1,-3.435794115E0,-9.209974289E0,-1.645065546E-1
1.180118328E1,-3.428615808E0,-9.226723671E0,-1.692921966E-1
1.181089599E1,-3.428615808E0,-9.231510162E0,-1.333998591E-1
1.182060953E1,-3.452543974E0,-9.217152596E0,-1.357926875E-1
1.183032375E1,-3.507878065E0,-9.207581520E0,-1.405783296E-1
1.184003724E1,-3.524627686E0,-9.186046600E0,-1.166501045E-1
1.184974990E1,-3.524627686E0,-9.169296265E0,-9.272187948E-2
1.185946339E1,-3.500699520E0,-9.178867340E0,-7.357929647E-2
1.186917766E1,-3.476472139E0,-9.178867340E0,-8.793623000E-2
1.187889115E1,-3.452543974E0,-9.198010445E0,-1.453639716E-1
1.188860375E1,-3.416651726E0,-9.214759827E0,-1.884347796E-1
1.189831729E1,-3.383152008E0,-9.229117393E0,-2.315055877E-1
1.190803156E1,-3.361616611E0,-9.241081238E0,-2.147558331E-1
1.191774505E1,-3.390330553E0,-9.243474007E0,-1.812563092E-1
1.192745766E1,-3.426223040E0,-9.248259544E0,-1.046859920E-1
1.193717120E1,-3.483650684E0,-9.238688469E0,-4.007977992E-2
1.194688547E1,-3.620340586E0,-9.241081238E0,-2.093719877E-2
1.195659886E1,-3.687339783E0,-9.224330902E0,-4.007977992E-2
1.196631156E1,-3.615555048E0,-9.183652878E0,-1.070788130E-1
1.197602511E1,-3.529413462E0,-9.162117958E0,-1.860419661E-1
1.198573932E1,-3.466900826E0,-9.159725189E0,-2.195414752E-1
1.199545281E1,-3.450151205E0,-9.178867340E0,-2.482553422E-1
1.200516547E1,-3.428615808E0,-9.186046600E0,-3.008974493E-1
1.201487896E1,-3.419044495E0,-9.205188751E0,-3.296113312E-1
1.202459323E1,-3.459722519E0,-9.224330902E0,-2.745763958E-1
1.203430672E1,-3.527020693E0,-9.229117393E0,-1.812563092E-1
1.204401932E1,-3.555734396E0,-9.219545364E0,-1.118644550E-1
1.205373286E1,-3.543770313E0,-9.209974289E0,-8.554340899E-2
1.206344714E1,-3.478864908E0,-9.200403214E0,-9.750752151E-2
1.207316062E1,-3.390330553E0,-9.219545364E0,-1.573280841E-1
1.208287323E1,-3.340081215E0,-9.245866776E0,-2.051845491E-1
1.209258677E1,-3.340081215E0,-9.257830620E0,-2.171486616E-1
1.210230099E1,-3.361616611E0,-9.291330338E0,-2.027917206E-1
1.211201448E1,-3.390330553E0,-9.286544800E0,-1.980060786E-1
1.212172714E1,-3.421437263E0,-9.272188187E0,-2.051845491E-1
1.213144063E1,-3.512663603E0,-9.219545364E0,-1.908276081E-1
1.214115490E1,-3.584448338E0,-9.174081802E0,-1.310070455E-1
1.215086839E1,-3.586841106E0,-9.140582085E0,-9.032905847E-2
1.216058099E1,-3.546163082E0,-9.121439934E0,-1.046859920E-1
1.217029453E1,-3.483650684E0,-9.131011009E0,-1.621137410E-1
1.218000880E1,-3.438187122E0,-9.174081802E0,-2.410768867E-1
1.218972219E1,-3.409473181E0,-9.193224907E0,-2.769692242E-1
1.219943490E1,-3.399901867E0,-9.221938133E0,-2.937189937E-1
1.220914844E1,-3.414258718E0,-9.205188751E0,-2.434697002E-1
1.221886266E1,-3.447758436E0,-9.205188751E0,-1.501496136E-1
1.222857615E1,-3.503092289E0,-9.195617676E0,-4.725824669E-2
1.223828880E1,-3.553341627E0,-9.183652878E0,-6.580262445E-3
1.224800229E1,-3.579662561E0,-9.176474571E0,-2.093719877E-2
1.225771656E1,-3.550948858E0,-9.193224907E0,-7.118647546E-2
1.226743005E1,-3.503092289E0,-9.205188751E0,-1.453639716E-1
1.227714266E1,-3.438187122E0,-9.224330902E0,-2.291127741E-1
1.228685620E1,-3.411865950E0,-9.253045082E0,-2.961117923E-1
1.229657047E1,-3.395116329E0,-9.265008926E0,-3.152543902E-1
1.230628386E1,-3.409473181E0,-9.265008926E0,-2.961117923E-1
1.231599656E1,-3.433401346E0,-9.243474007E0,-2.267199457E-1
1.232571005E1,-3.476472139E0,-9.231510162E0,-1.788634956E-1
1.233542432E1,-3.519842148E0,-9.212367058E0,-1.286142170E-1
1.234513781E1,-3.538984776E0,-9.188439369E0,-9.032905847E-2
1.235485042E1,-3.555734396E0,-9.178867340E0,-8.315058798E-2
1.236456396E1,-3.531806231E0,-9.183652878E0,-1.022931710E-1
1.237427823E1,-3.483650684E0,-9.178867340E0,-1.357926875E-1
1.238399162E1,-3.474079370E0,-9.214759827E0,-1.453639716E-1
1.239370432E1,-3.481257915E0,-9.236295700E0,-1.597209126E-1
1.240341787E1,-3.454936743E0,-9.236295700E0,-1.740778536E-1
1.241313208E1,-3.421437263E0,-9.236295700E0,-1.956132501E-1
1.242284557E1,-3.375973701E0,-9.221938133E0,-1.884347796E-1
1.243255823E1,-3.354438305E0,-9.209974289E0,-1.788634956E-1
1.244227172E1,-3.375973701E0,-9.198010445E0,-1.453639716E-1
1.245198599E1,-3.414258718E0,-9.200403214E0,-1.022931710E-1
1.246169948E1,-3.457329512E0,-9.200403214E0,-9.511470050E-2
1.247141208E1,-3.481257915E0,-9.195617676E0,-1.046859920E-1
1.248112562E1,-3.527020693E0,-9.171689034E0,-1.166501045E-1
1.249083984E1,-3.589233875E0,-9.186046600E0,-1.238285750E-1
1.250055333E1,-3.596412420E0,-9.176474571E0,-1.214357466E-1
1.251026599E1,-3.555734396E0,-9.176474571E0,-1.118644550E-1
1.251997948E1,-3.478864908E0,-9.205188751E0,-1.668993831E-1
1.252969375E1,-3.380759239E0,-9.217152596E0,-2.458625287E-1
1.253940724E1,-3.297010422E0,-9.241081238E0,-3.104687333E-1
1.254911984E1,-3.270689487E0,-9.267401695E0,-2.626122832E-1
1.255883339E1,-3.294617653E0,-9.298508644E0,-1.597209126E-1
1.256854761E1,-3.349652529E0,-9.296115875E0,-1.262213886E-1
1.257826109E1,-3.466900826E0,-9.255437851E0,-1.405783296E-1
1.258797370E1,-3.558127165E0,-9.226723671E0,-1.668993831E-1
1.259768724E1,-3.598805189E0,-9.198010445E0,-1.788634956E-1
1.260740151E1,-3.617947817E0,-9.188439369E0,-2.338984162E-1
1.261711500E1,-3.601198196E0,-9.159725189E0,-2.985046208E-1
1.262682760E1,-3.584448338E0,-9.145368576E0,-3.583251834E-1
1.263654115E1,-3.529413462E0,-9.154939651E0,-4.088735580E-1
1.264625536E1,-3.447758436E0,-9.198010445E0,-3.559323549E-1
1.265596886E1,-3.378366470E0,-9.226723671E0,-2.291127741E-1
1.266568146E1,-3.347259760E0,-9.241081238E0,-9.990034252E-2
1.267539500E1,-3.313760281E0,-9.231510162E0,-4.965107143E-2
1.268510927E1,-3.323331594E0,-9.233902931E0,-6.640082598E-2
1.269482266E1,-3.347259760E0,-9.205188751E0,-1.094716340E-1
1.270453536E1,-3.354438305E0,-9.190832138E0,-1.764706671E-1
1.271424886E1,-3.404687405E0,-9.209974289E0,-2.075773627E-1
1.272396313E1,-3.454936743E0,-9.202795982E0,-2.051845491E-1
1.273367662E1,-3.500699520E0,-9.207581520E0,-2.243271172E-1
1.274338922E1,-3.512663603E0,-9.190832138E0,-2.267199457E-1
1.275310276E1,-3.531806231E0,-9.190832138E0,-2.195414752E-1
1.276281703E1,-3.529413462E0,-9.186046600E0,-2.027917206E-1
1.277253042E1,-3.517449379E0,-9.190832138E0,-1.932204217E-1
1.278224312E1,-3.524627686E0,-9.193224907E0,-2.219343036E-1
1.279195662E1,-3.483650684E0,-9.200403214E0,-2.482553422E-1
1.280167089E1,-3.462115288E0,-9.226723671E0,-2.530409992E-1
1.281138438E1,-3.438187122E0,-9.226723671E0,-2.099701911E-1
1.282109698E1,-3.464508057E0,-9.250652313E0,-1.453639716E-1
1.283081052E1,-3.490829229E0,-9.248259544E0,-9.750752151E-2
1.284052479E1,-3.500699520E0,-9.241081238E0,-7.836493850E-2
1.285023818E1,-3.519842148E0,-9.207581520E0,-9.032905847E-2
1.285995089E1,-3.555734396E0,-9.183652878E0,-1.094716340E-1
1.286966438E1,-3.512663603E0,-9.162117958E0,-1.501496136E-1
1.287937865E1,-3.495913982E0,-9.164510727E0,-1.980060786E-1
1.288909203E1,-3.517449379E0,-9.169296265E0,-2.219343036E-1
1.289880474E1,-3.529413462E0,-9.181260109E0,-2.243271172E-1
1.290851828E1,-3.512663603E0,-9.176474571E0,-1.932204217E-1
1.291823250E1,-3.512663603E0,-9.209974289E0,-1.764706671E-1
1.292794599E1,-3.507878065E0,-9.212367058E0,-1.118644550E-1
1.293765859E1,-3.495913982E0,-9.217152596E0,-3.768695518E-2
1.294737214E1,-3.507878065E0,-9.200403214E0,1.016949583E-2
1.295708641E1,-3.527020693E0,-9.200403214E0,5.982056609E-4
1.296679979E1,-3.553341627E0,-9.214759827E0,-6.640082598E-2
1.297651250E1,-3.536591768E0,-9.229117393E0,-1.668993831E-1
1.298622599E1,-3.522234917E0,-9.205188751E0,-2.482553422E-1
1.299594026E1,-3.527020693E0,-9.195617676E0,-2.865405083E-1
1.300565375E1,-3.524627686E0,-9.178867340E0,-2.841476798E-1
1.301536636E1,-3.495913982E0,-9.188439369E0,-2.793620527E-1
1.302507990E1,-3.462115288E0,-9.217152596E0,-2.721835673E-1
1.303479412E1,-3.450151205E0,-9.226723671E0,-2.099701911E-1
1.304450761E1,-3.416651726E0,-9.250652313E0,-1.333998591E-1
1.305422021E1,-3.392723322E0,-9.267401695E0,-8.793623000E-2
1.306393375E1,-3.375973701E0,-9.262616158E0,-9.032905847E-2
1.307364802E1,-3.356831074E0,-9.236295700E0,-8.793623000E-2
1.308336141E1,-3.359223843E0,-9.231510162E0,-9.032905847E-2
1.309307412E1,-3.380759239E0,-9.219545364E0,-6.640082598E-2
1.310278761E1,-3.433401346E0,-9.200403214E0,-9.272187948E-2
1.311250188E1,-3.474079370E0,-9.205188751E0,-1.310070455E-1
1.312221536E1,-3.524627686E0,-9.193224907E0,-1.716850251E-1
1.313192797E1,-3.512663603E0,-9.195617676E0,-2.027917206E-1
1.314164151E1,-3.488436222E0,-9.202795982E0,-2.027917206E-1
1.315135573E1,-3.486043453E0,-9.212367058E0,-1.908276081E-1
1.316106922E1,-3.466900826E0,-9.224330902E0,-1.932204217E-1
1.317078188E1,-3.428615808E0,-9.231510162E0,-1.812563092E-1
1.318049536E1,-3.423830032E0,-9.236295700E0,-1.812563092E-1
1.319020964E1,-3.457329512E0,-9.224330902E0,-1.477568001E-1
1.319992302E1,-3.481257915E0,-9.212367058E0,-1.142572835E-1
1.320963573E1,-3.507878065E0,-9.226723671E0,-9.750752151E-2
1.321934922E1,-3.495913982E0,-9.248259544E0,-1.190429255E-1
1.322906349E1,-3.466900826E0,-9.226723671E0,-9.272187948E-2
1.323877698E1,-3.423830032E0,-9.238688469E0,-8.075776696E-2
1.324848958E1,-3.368795156E0,-9.238688469E0,-1.310070455E-1
1.325820313E1,-3.378366470E0,-9.224330902E0,-2.003988922E-1
1.326791740E1,-3.419044495E0,-9.221938133E0,-2.578266263E-1
1.327763078E1,-3.490829229E0,-9.226723671E0,-2.219343036E-1
1.328734349E1,-3.565305710E0,-9.205188751E0,-1.740778536E-1
1.329705698E1,-3.617947817E0,-9.159725189E0,-1.405783296E-1
1.330677125E1,-3.632304668E0,-9.142974854E0,-1.094716340E-1
1.331648474E1,-3.634697676E0,-9.116654396E0,-1.046859920E-1
1.332619734E1,-3.591626883E0,-9.133403778E0,-8.315058798E-2
1.333591089E1,-3.536591768E0,-9.150154114E0,-5.682953820E-2
1.334562511E1,-3.483650684E0,-9.183652878E0,-7.357929647E-2
1.335533859E1,-3.409473181E0,-9.214759827E0,-1.262213886E-1
1.336505125E1,-3.404687405E0,-9.214759827E0,-2.051845491E-1
1.337476474E1,-3.428615808E0,-9.221938133E0,-2.602194548E-1
1.338447901E1,-3.481257915E0,-9.241081238E0,-2.530409992E-1
1.339419240E1,-3.531806231E0,-9.226723671E0,-2.530409992E-1
1.340390511E1,-3.570091486E0,-9.224330902E0,-2.338984162E-1
1.341361859E1,-3.567698479E0,-9.181260109E0,-1.621137410E-1
1.342333286E1,-3.519842148E0,-9.171689034E0,-9.032905847E-2
1.343304636E1,-3.450151205E0,-9.190832138E0,-4.486542568E-2
1.344275896E1,-3.435794115E0,-9.200403214E0,-2.572284266E-2
1.345247250E1,-3.421437263E0,-9.226723671E0,-2.572284266E-2
1.346218677E1,-3.426223040E0,-9.229117393E0,-1.375873014E-2
1.347190016E1,-3.464508057E0,-9.219545364E0,-4.187439568E-3
1.348161286E1,-3.531806231E0,-9.221938133E0,-2.811566554E-2
1.349132636E1,-3.574877024E0,-9.212367058E0,-1.046859920E-1
1.350104063E1,-3.598805189E0,-9.205188751E0,-1.549352705E-1
1.351075412E1,-3.586841106E0,-9.178867340E0,-2.075773627E-1
1.352046672E1,-3.562912941E0,-9.181260109E0,-2.291127741E-1
1.353018026E1,-3.560520172E0,-9.178867340E0,-2.650051117E-1
1.353989448E1,-3.562912941E0,-9.190832138E0,-2.554338276E-1
1.354960797E1,-3.543770313E0,-9.181260109E0,-2.171486616E-1
1.355932057E1,-3.500699520E0,-9.231510162E0,-1.597209126E-1
1.356903412E1,-3.445365429E0,-9.248259544E0,-7.597211748E-2
1.357874839E1,-3.402294636E0,-9.245866776E0,-1.136590727E-2
1.358846177E1,-3.373580933E0,-9.236295700E0,4.127619043E-2
1.359817448E1,-3.349652529E0,-9.214759827E0,4.366901144E-2
1.360788797E1,-3.378366470E0,-9.193224907E0,1.016949583E-2
1.361760224E1,-3.426223040E0,-9.178867340E0,-3.529413417E-2
1.362731573E1,-3.478864908E0,-9.169296265E0,-4.486542568E-2
1.363702833E1,-3.527020693E0,-9.181260109E0,-7.836493850E-2
1.364674188E1,-3.553341627E0,-9.195617676E0,-1.501496136E-1
1.365645615E1,-3.536591768E0,-9.205188751E0,-2.458625287E-1
1.366616953E1,-3.507878065E0,-9.224330902E0,-2.650051117E-1
1.367588224E1,-3.495913982E0,-9.241081238E0,-2.267199457E-1
1.368559573E1,-3.488436222E0,-9.238688469E0,-1.932204217E-1
1.369531000E1,-3.431008577E0,-9.243474007E0,-1.956132501E-1
1.370502349E1,-3.399901867E0,-9.241081238E0,-1.980060786E-1
1.371473609E1,-3.419044495E0,-9.229117393E0,-1.477568001E-1
1.372444964E1,-3.447758436E0,-9.221938133E0,-7.597211748E-2
1.373416386E1,-3.481257915E0,-9.212367058E0,-3.768695518E-2
1.374387734E1,-3.495913982E0,-9.217152596E0,-5.922235921E-2
1.375358995E1,-3.486043453E0,-9.205188751E0,-9.032905847E-2
1.376330349E1,-3.503092289E0,-9.198010445E0,-6.161518395E-2
1.377301776E1,-3.490829229E0,-9.207581520E0,-4.486542568E-2
1.378273115E1,-3.498306751E0,-9.212367058E0,-3.290131316E-2
1.379244386E1,-3.515056372E0,-9.209974289E0,-8.315058798E-2
1.380215734E1,-3.538984776E0,-9.198010445E0,-1.621137410E-1
1.381187162E1,-3.527020693E0,-9.171689034E0,-2.099701911E-1
1.382158510E1,-3.538984776E0,-9.162117958E0,-2.195414752E-1
1.383129771E1,-3.546163082E0,-9.186046600E0,-1.908276081E-1
1.384101125E1,-3.519842148E0,-9.193224907E0,-1.740778536E-1
1.385072552E1,-3.493520975E0,-9.202795982E0,-1.716850251E-1
1.386043891E1,-3.474079370E0,-9.198010445E0,-1.477568001E-1
1.387015162E1,-3.462115288E0,-9.202795982E0,-9.990034252E-2
1.387986510E1,-3.469293833E0,-9.212367058E0,-5.922235921E-2
1.388957938E1,-3.464508057E0,-9.214759827E0,-5.922235921E-2
1.389929287E1,-3.457329512E0,-9.233902931E0,-1.094716340E-1
1.390900547E1,-3.481257915E0,-9.233902931E0,-1.692921966E-1
1.391871901E1,-3.503092289E0,-9.236295700E0,-2.027917206E-1
1.392843328E1,-3.531806231E0,-9.226723671E0,-1.884347796E-1
1.393814667E1,-3.538984776E0,-9.207581520E0,-1.310070455E-1
1.394785938E1,-3.512663603E0,-9.195617676E0,-1.094716340E-1
1.395757287E1,-3.517449379E0,-9.202795982E0,-1.022931710E-1
1.396728714E1,-3.493520975E0,-9.190832138E0,-1.333998591E-1
1.397700052E1,-3.493520975E0,-9.198010445E0,-1.573280841E-1
1.398671323E1,-3.515056372E0,-9.198010445E0,-1.501496136E-1
1.399642677E1,-3.534198999E0,-9.200403214E0,-1.214357466E-1
1.400614099E1,-3.550948858E0,-9.183652878E0,-9.272187948E-2
1.401585448E1,-3.562912941E0,-9.200403214E0,-6.879365444E-2
1.402556708E1,-3.570091486E0,-9.164510727E0,-4.247260094E-2
1.403528062E1,-3.546163082E0,-9.174081802E0,-3.050848842E-2
1.404499490E1,-3.483650684E0,-9.178867340E0,-3.290131316E-2
1.405470828E1,-3.452543974E0,-9.198010445E0,-7.597211748E-2
1.406442099E1,-3.459722519E0,-9.202795982E0,-9.032905847E-2
1.407413448E1,-3.474079370E0,-9.219545364E0,-9.272187948E-2
1.408384875E1,-3.490829229E0,-9.233902931E0,-1.094716340E-1
1.409356224E1,-3.517449379E0,-9.212367058E0,-1.286142170E-1
1.410327484E1,-3.536591768E0,-9.202795982E0,-1.573280841E-1
1.411298839E1,-3.538984776E0,-9.214759827E0,-1.908276081E-1
1.412270266E1,-3.490829229E0,-9.207581520E0,-2.051845491E-1
1.413241604E1,-3.466900826E0,-9.207581520E0,-2.171486616E-1
1.414212875E1,-3.459722519E0,-9.198010445E0,-1.956132501E-1
1.415184224E1,-3.445365429E0,-9.214759827E0,-1.381855011E-1
1.416155651E1,-3.428615808E0,-9.226723671E0,-8.075776696E-2
1.417127000E1,-3.419044495E0,-9.226723671E0,-2.572284266E-2
1.418098260E1,-3.462115288E0,-9.224330902E0,-4.187439568E-3
1.419069615E1,-3.495913982E0,-9.209974289E0,-4.187439568E-3
1.420041037E1,-3.548556089E0,-9.171689034E0,-5.443671346E-2
1.421012386E1,-3.589233875E0,-9.147761345E0,-1.166501045E-1
1.421983646E1,-3.572484255E0,-9.164510727E0,-1.740778536E-1
1.422955000E1,-3.570091486E0,-9.188439369E0,-2.027917206E-1
1.423926427E1,-3.517449379E0,-9.207581520E0,-2.027917206E-1
1.424897766E1,-3.466900826E0,-9.229117393E0,-1.788634956E-1
1.425869037E1,-3.421437263E0,-9.236295700E0,-1.764706671E-1
1.426840386E1,-3.397509098E0,-9.274580956E0,-1.429711580E-1
1.427811812E1,-3.392723322E0,-9.255437851E0,-1.381855011E-1
1.428783162E1,-3.426223040E0,-9.245866776E0,-1.286142170E-1
1.429754422E1,-3.481257915E0,-9.238688469E0,-1.286142170E-1
1.430725776E1,-3.536591768E0,-9.205188751E0,-1.070788130E-1
1.431697198E1,-3.577269793E0,-9.188439369E0,-1.190429255E-1
1.432668547E1,-3.579662561E0,-9.169296265E0,-1.333998591E-1
1.433639812E1,-3.579662561E0,-9.150154114E0,-1.022931710E-1
1.434611162E1,-3.570091486E0,-9.135796547E0,-5.204389244E-2
1.435582589E1,-3.558127165E0,-9.140582085E0,2.991028363E-3
1.436553938E1,-3.529413462E0,-9.188439369E0,-2.572284266E-2
1.437525198E1,-3.462115288E0,-9.250652313E0,-1.310070455E-1
1.438496552E1,-3.416651726E0,-9.288937569E0,-2.099701911E-1
1.439467974E1,-3.356831074E0,-9.288937569E0,-2.434697002E-1
1.440439323E1,-3.320938826E0,-9.255437851E0,-2.434697002E-1
1.441410583E1,-3.297010422E0,-9.231510162E0,-2.243271172E-1
1.442381938E1,-3.371187925E0,-9.224330902E0,-1.597209126E-1
1.443353365E1,-3.454936743E0,-9.214759827E0,-5.922235921E-2
1.444324703E1,-3.522234917E0,-9.214759827E0,-1.615155302E-2
1.445295974E1,-3.598805189E0,-9.205188751E0,-9.032905847E-2
1.446267323E1,-3.672982693E0,-9.214759827E0,-1.716850251E-1
1.447238750E1,-3.661018610E0,-9.181260109E0,-2.386840582E-1
1.448210099E1,-3.610769272E0,-9.174081802E0,-2.865405083E-1
1.449181359E1,-3.548556089E0,-9.176474571E0,-2.841476798E-1
1.450152714E1,-3.457329512E0,-9.171689034E0,-2.338984162E-1
1.451124136E1,-3.380759239E0,-9.212367058E0,-1.645065546E-1
1.452095484E1,-3.325724363E0,-9.243474007E0,-1.118644550E-1
1.453066745E1,-3.328117132E0,-9.267401695E0,-4.007977992E-2
1.454038099E1,-3.383152008E0,-9.269794464E0,5.982056609E-4
1.455009526E1,-3.454936743E0,-9.255437851E0,2.213360928E-2
1.455980865E1,-3.538984776E0,-9.233902931E0,-3.050848842E-2
1.456952136E1,-3.577269793E0,-9.205188751E0,-1.333998591E-1
1.457923484E1,-3.553341627E0,-9.183652878E0,-2.219343036E-1
1.458894912E1,-3.490829229E0,-9.174081802E0,-2.530409992E-1
1.459866261E1,-3.407080412E0,-9.157332420E0,-2.051845491E-1
1.460837521E1,-3.356831074E0,-9.145368576E0,-1.166501045E-1
1.461808875E1,-3.356831074E0,-9.166903496E0,-2.811566554E-2
1.462780297E1,-3.397509098E0,-9.183652878E0,-2.572284266E-2
1.463751646E1,-3.438187122E0,-9.214759827E0,-5.922235921E-2
1.464722906E1,-3.495913982E0,-9.229117393E0,-1.238285750E-1
1.465694261E1,-3.553341627E0,-9.236295700E0,-1.716850251E-1
1.466665688E1,-3.601198196E0,-9.214759827E0,-1.549352705E-1
1.467637026E1,-3.658625841E0,-9.190832138E0,-1.477568001E-1
1.468608297E1,-3.639483213E0,-9.178867340E0,-1.956132501E-1
1.469579646E1,-3.620340586E0,-9.178867340E0,-2.482553422E-1
1.470551073E1,-3.579662561E0,-9.190832138E0,-2.530409992E-1
1.471522422E1,-3.495913982E0,-9.224330902E0,-2.626122832E-1
1.472493682E1,-3.385545015E0,-9.265008926E0,-2.578266263E-1
1.473465031E1,-3.275475025E0,-9.298508644E0,-2.482553422E-1
1.474436458E1,-3.222832918E0,-9.291330338E0,-2.386840582E-1
1.475407807E1,-3.246761322E0,-9.260223389E0,-2.243271172E-1
1.476379068E1,-3.337688446E0,-9.221938133E0,-1.980060786E-1
1.477350422E1,-3.495913982E0,-9.176474571E0,-1.405783296E-1
1.478321844E1,-3.627519131E0,-9.157332420E0,-9.511470050E-2
1.479293193E1,-3.665804386E0,-9.131011009E0,-5.922235921E-2
1.480264458E1,-3.641875982E0,-9.142974854E0,-6.879365444E-2
1.481235807E1,-3.558127165E0,-9.181260109E0,-9.750752151E-2
1.482207234E1,-3.440579891E0,-9.219545364E0,-1.549352705E-1
1.483178573E1,-3.335295677E0,-9.245866776E0,-2.219343036E-1
1.484149844E1,-3.289832115E0,-9.267401695E0,-2.793620527E-1
1.485121193E1,-3.287439108E0,-9.260223389E0,-3.128615618E-1
1.486092620E1,-3.320938826E0,-9.231510162E0,-2.769692242E-1
1.487063969E1,-3.390330553E0,-9.221938133E0,-1.884347796E-1
1.488035229E1,-3.481257915E0,-9.214759827E0,-8.554340899E-2
1.489006583E1,-3.558127165E0,-9.221938133E0,-5.443671346E-2
1.489978005E1,-3.565305710E0,-9.226723671E0,-9.750752151E-2
1.490949354E1,-3.527020693E0,-9.224330902E0,-1.573280841E-1
1.491920615E1,-3.498306751E0,-9.209974289E0,-1.645065546E-1
1.492891969E1,-3.466900826E0,-9.214759827E0,-1.597209126E-1
1.493863396E1,-3.421437263E0,-9.207581520E0,-1.549352705E-1
1.494834734E1,-3.397509098E0,-9.207581520E0,-1.525424421E-1
1.495806005E1,-3.380759239E0,-9.207581520E0,-1.645065546E-1
1.496777354E1,-3.409473181E0,-9.219545364E0,-1.501496136E-1
1.497748781E1,-3.481257915E0,-9.202795982E0,-1.286142170E-1
1.498720120E1,-3.565305710E0,-9.195617676E0,-1.142572835E-1
1.499691391E1,-3.608376503E0,-9.181260109E0,-1.070788130E-1
1.500662740E1,-3.605983734E0,-9.176474571E0,-1.501496136E-1
1.501634167E1,-3.541377544E0,-9.176474571E0,-1.788634956E-1
1.502605516E1,-3.486043453E0,-9.169296265E0,-1.740778536E-1
1.503576776E1,-3.433401346E0,-9.186046600E0,-1.118644550E-1
1.504548125E1,-3.395116329E0,-9.212367058E0,-4.247260094E-2
1.505519552E1,-3.347259760E0,-9.243474007E0,-1.854437590E-2
1.506490901E1,-3.340081215E0,-9.257830620E0,-4.007977992E-2
1.507462162E1,-3.390330553E0,-9.257830620E0,-8.554340899E-2
1.508433516E1,-3.450151205E0,-9.245866776E0,-1.238285750E-1
