"Time (s)","Gyroscope x (rad/s)","Gyroscope y (rad/s)","Gyroscope z (rad/s)"
1.887801570E-1,-8.551862091E-3,-9.162709117E-3,1.053711493E-2
1.984936980E-1,-9.773556143E-3,-1.404948719E-2,9.315420873E-3
2.082079170E-1,-4.886778072E-3,-2.382304333E-2,5.650337320E-3
2.179213030E-1,-0.000000000E0,-3.115320951E-2,-4.581354442E-4
2.276339590E-1,4.886778072E-3,-2.870982140E-2,-4.123218823E-3
2.373475000E-1,7.330167107E-3,-1.649287529E-2,-5.344913341E-3
2.470617190E-1,7.330167107E-3,-1.832541777E-3,-4.123218823E-3
2.567751050E-1,4.886778072E-3,1.527118124E-2,-2.901524538E-3
2.664877610E-1,-2.443389036E-3,2.870982140E-2,-4.581354442E-4
2.762012500E-1,-8.551862091E-3,4.214845970E-2,1.985253533E-3
2.859155210E-1,-1.221694518E-2,4.581354558E-2,1.985253533E-3
2.956289070E-1,-1.343864016E-2,4.092676565E-2,1.985253533E-3
3.053415630E-1,-1.221694518E-2,3.237490356E-2,1.985253533E-3
3.150550530E-1,-7.330167107E-3,2.015795931E-2,-1.679830020E-3
3.247693230E-1,-4.886778072E-3,5.497625098E-3,-4.123218823E-3
3.344827090E-1,-1.221694518E-3,-1.649287529E-2,-7.788302377E-3
3.441953650E-1,2.443389036E-3,-4.214845970E-2,-9.009997360E-3
3.539088550E-1,-1.221694518E-3,-5.925218388E-2,-9.009997360E-3
3.636231250E-1,-8.551862091E-3,-5.070032179E-2,-5.344913341E-3
3.733365110E-1,-1.588202827E-2,-2.137965336E-2,-4.581354442E-4
3.830491670E-1,-2.199050039E-2,1.527118124E-2,3.206948051E-3
3.927626570E-1,-2.199050039E-2,4.092676565E-2,5.650337320E-3
4.024769280E-1,-1.588202827E-2,5.192201585E-2,6.872031838E-3
4.121903130E-1,-1.221694518E-2,4.337015375E-2,4.428642802E-3
4.219029690E-1,-8.551862091E-3,2.870982140E-2,7.635590737E-4
4.316164590E-1,-8.551862091E-3,1.649287529E-2,-1.679830020E-3
4.413307300E-1,-9.773556143E-3,5.497625098E-3,-6.566607859E-3
4.510441150E-1,-1.099525020E-2,-9.162709117E-3,-1.267508045E-2
4.607567710E-1,-1.099525020E-2,-2.015795931E-2,-1.511846948E-2
4.704702610E-1,-8.551862091E-3,-2.504473738E-2,-1.511846948E-2
4.801845320E-1,-4.886778072E-3,-2.260134928E-2,-1.511846948E-2
4.898979170E-1,-4.886778072E-3,-1.771457121E-2,-1.389677543E-2
4.996105730E-1,-6.108472589E-3,-6.719320081E-3,-1.023169141E-2
5.093240630E-1,-7.330167107E-3,-6.108472589E-4,-6.566607859E-3
5.190383340E-1,-8.551862091E-3,-3.054236295E-3,-2.901524538E-3
5.287517190E-1,-9.773556143E-3,-7.941014133E-3,-4.581354442E-4
5.384643750E-1,-1.221694518E-2,-1.038440317E-2,1.985253533E-3
5.481778650E-1,-1.343864016E-2,-3.054236295E-3,7.635590737E-4
5.578921360E-1,-1.466033421E-2,5.497625098E-3,-4.581354442E-4
5.676055210E-1,-1.221694518E-2,1.038440317E-2,-4.581354442E-4
5.773181780E-1,-6.108472589E-3,5.497625098E-3,7.635590737E-4
5.870316670E-1,-0.000000000E0,-6.108472589E-4,7.635590737E-4
5.967459380E-1,1.221694518E-3,-6.108472589E-4,-4.581354442E-4
6.064593230E-1,2.443389036E-3,5.497625098E-3,-4.581354442E-4
6.161719800E-1,4.886778072E-3,1.160609815E-2,7.635590737E-4
6.258855210E-1,6.108472589E-3,7.941014133E-3,-4.581354442E-4
6.355997400E-1,4.886778072E-3,-3.054236295E-3,-4.581354442E-4
6.453131250E-1,2.443389036E-3,-1.282779220E-2,-2.901524538E-3
6.550257820E-1,1.221694518E-3,-2.015795931E-2,-4.123218823E-3
6.647393230E-1,-1.221694518E-3,-2.382304333E-2,-5.344913341E-3
6.744535420E-1,-2.443389036E-3,-1.649287529E-2,-2.901524538E-3
6.841669280E-1,-2.443389036E-3,-1.832541777E-3,-2.901524538E-3
6.938796360E-1,-3.665083554E-3,1.160609815E-2,-1.679830020E-3
7.035931250E-1,-3.665083554E-3,2.137965336E-2,7.635590737E-4
7.133073440E-1,-4.886778072E-3,2.260134928E-2,7.635590737E-4
7.230208340E-1,-3.665083554E-3,1.893626526E-2,-4.581354442E-4
7.327334380E-1,-2.443389036E-3,9.162709117E-3,-2.901524538E-3
7.424469280E-1,-0.000000000E0,6.108472589E-4,-5.344913341E-3
7.521611460E-1,3.665083554E-3,-6.719320081E-3,-5.344913341E-3
7.618746360E-1,4.886778072E-3,-1.038440317E-2,-6.566607859E-3
7.715872400E-1,3.665083554E-3,-9.162709117E-3,-6.566607859E-3
7.813007300E-1,1.221694518E-3,-1.832541777E-3,-7.788302377E-3
7.910150000E-1,-2.443389036E-3,7.941014133E-3,-5.344913341E-3
8.007283860E-1,-6.108472589E-3,2.137965336E-2,-1.679830020E-3
8.104410420E-1,-9.773556143E-3,3.726168349E-2,7.635590737E-4
8.201545840E-1,-1.343864016E-2,4.703523964E-2,7.635590737E-4
8.298688030E-1,-1.710372418E-2,4.703523964E-2,-1.679830020E-3
8.395822920E-1,-1.832541823E-2,3.848337755E-2,-4.123218823E-3
8.492948960E-1,-1.710372418E-2,2.626643144E-2,-7.788302377E-3
8.590083860E-1,-1.221694518E-2,1.282779220E-2,-7.788302377E-3
8.687226570E-1,-7.330167107E-3,1.832541777E-3,-6.566607859E-3
8.784360420E-1,-2.443389036E-3,-6.719320081E-3,-5.344913341E-3
8.881486980E-1,2.443389036E-3,-9.162709117E-3,-2.901524538E-3
8.978622400E-1,6.108472589E-3,-5.497625098E-3,-1.679830020E-3
9.075764590E-1,9.773556143E-3,-3.054236295E-3,-4.581354442E-4
9.172898440E-1,1.343864016E-2,-6.108472589E-4,-4.581354442E-4
9.270025530E-1,1.343864016E-2,4.275931045E-3,7.635590737E-4
9.367160420E-1,9.773556143E-3,1.527118124E-2,7.635590737E-4
9.464303130E-1,1.221694518E-3,3.726168349E-2,-1.679830020E-3
9.561436980E-1,-8.551862091E-3,5.680879578E-2,-1.679830020E-3
9.658563550E-1,-1.343864016E-2,5.558710173E-2,-4.123218823E-3
9.755698960E-1,-1.343864016E-2,3.237490356E-2,-5.344913341E-3
9.852841150E-1,-1.099525020E-2,4.275931045E-3,-9.009997360E-3
9.949976050E-1,-7.330167107E-3,-1.893626526E-2,-9.009997360E-3
1.004710209E0,-0.000000000E0,-4.459185153E-2,-6.566607859E-3
1.014423698E0,7.330167107E-3,-7.635590434E-2,-1.679830020E-3
1.024137969E0,7.330167107E-3,-1.068982705E-1,3.206948051E-3
1.033851355E0,1.221694518E-3,-1.117850468E-1,5.650337320E-3
1.043564063E0,-1.221694518E-2,-8.002099395E-2,9.315420873E-3
1.053277553E0,-2.565558441E-2,-2.504473738E-2,8.093725890E-3
1.062991823E0,-3.665083647E-2,3.481829539E-2,4.428642802E-3
1.072705209E0,-3.665083647E-2,7.635590434E-2,7.635590737E-4
1.082417865E0,-2.565558441E-2,8.612946421E-2,-4.581354442E-4
1.092131407E0,-9.773556143E-3,7.024743408E-2,-2.901524538E-3
1.101845625E0,3.665083554E-3,4.703523964E-2,-5.344913341E-3
1.111559115E0,1.099525020E-2,2.015795931E-2,-7.788302377E-3
1.121271719E0,1.343864016E-2,-6.719320081E-3,-9.009997360E-3
1.130985261E0,1.099525020E-2,-2.870982140E-2,-7.788302377E-3
1.140699480E0,6.108472589E-3,-4.459185153E-2,-2.901524538E-3
1.150412969E0,4.886778072E-3,-6.047387794E-2,7.635590737E-4
1.160125573E0,3.665083554E-3,-7.269082218E-2,4.428642802E-3
1.169839115E0,1.221694518E-3,-8.124268800E-2,6.872031838E-3
1.179553334E0,-2.443389036E-3,-7.513421029E-2,6.872031838E-3
1.189266823E0,-8.551862091E-3,-4.214845970E-2,5.650337320E-3
1.198979428E0,-1.832541823E-2,1.038440317E-2,3.206948051E-3
1.208692917E0,-1.954711229E-2,5.314370990E-2,-2.901524538E-3
1.218407188E0,-1.466033421E-2,6.902574003E-2,-5.344913341E-3
1.228120678E0,-8.551862091E-3,6.536065787E-2,-7.788302377E-3
1.237833282E0,-4.886778072E-3,5.436540768E-2,-1.267508045E-2
1.247546823E0,-3.665083554E-3,3.726168349E-2,-1.267508045E-2
1.257261042E0,-2.443389036E-3,6.719320081E-3,-1.145338640E-2
1.266974532E0,-3.665083554E-3,-2.748812735E-2,-9.009997360E-3
1.276687136E0,-6.108472589E-3,-4.703523964E-2,-5.344913341E-3
1.286400678E0,-9.773556143E-3,-4.703523964E-2,-2.901524538E-3
1.296114896E0,-9.773556143E-3,-4.337015375E-2,-4.123218823E-3
1.305828386E0,-6.108472589E-3,-4.947862774E-2,-2.901524538E-3
1.315540990E0,-1.221694518E-3,-5.070032179E-2,-4.581354442E-4
1.325254532E0,-2.443389036E-3,-3.603998944E-2,3.206948051E-3
1.334968750E0,-1.221694518E-2,-6.108472589E-4,5.650337320E-3
1.344682240E0,-2.076880634E-2,3.848337755E-2,6.872031838E-3
1.354394844E0,-2.687728032E-2,6.291726977E-2,4.428642802E-3
1.364108386E0,-2.687728032E-2,6.658235192E-2,-4.581354442E-4
1.373822657E0,-1.954711229E-2,4.703523964E-2,-7.788302377E-3
1.383536042E0,-6.108472589E-3,6.719320081E-3,-1.023169141E-2
1.393248750E0,6.108472589E-3,-3.481829539E-2,-1.267508045E-2
1.402962240E0,1.343864016E-2,-6.169557199E-2,-1.023169141E-2
1.412676511E0,1.343864016E-2,-6.780404598E-2,-5.344913341E-3
1.422389896E0,1.099525020E-2,-6.658235192E-2,1.985253533E-3
1.432102605E0,8.551862091E-3,-7.391251624E-2,8.093725890E-3
1.441816094E0,9.773556143E-3,-8.246438205E-2,8.093725890E-3
1.451530365E0,9.773556143E-3,-7.635590434E-2,8.093725890E-3
1.461243855E0,8.551862091E-3,-5.436540768E-2,6.872031838E-3
1.470956459E0,8.551862091E-3,-2.993151546E-2,3.206948051E-3
1.480670000E0,7.330167107E-3,-1.038440317E-2,-2.901524538E-3
1.490384219E0,8.551862091E-3,-1.832541777E-3,-6.566607859E-3
1.500097709E0,9.773556143E-3,1.832541777E-3,-1.145338640E-2
1.509810313E0,1.466033421E-2,-1.832541777E-3,-1.389677543E-2
1.519523855E0,1.954711229E-2,-1.160609815E-2,-1.389677543E-2
1.529238125E0,2.321219631E-2,-1.649287529E-2,-1.023169141E-2
1.538951511E0,2.443389036E-2,-2.382304333E-2,-6.566607859E-3
1.548664219E0,2.443389036E-2,-3.970507160E-2,-4.581354442E-4
1.558377709E0,2.321219631E-2,-6.536065787E-2,7.635590737E-4
1.568091980E0,1.954711229E-2,-9.101624042E-2,1.985253533E-3
1.577805469E0,1.466033421E-2,-9.468132257E-2,3.206948051E-3
1.587518073E0,3.665083554E-3,-7.513421029E-2,5.650337320E-3
1.597231615E0,-1.099525020E-2,-3.237490356E-2,5.650337320E-3
1.606945886E0,-2.443389036E-2,2.504473738E-2,4.428642802E-3
1.616659271E0,-3.176405653E-2,7.513421029E-2,3.206948051E-3
1.626371980E0,-2.809897438E-2,9.345962852E-2,3.206948051E-3
1.636085469E0,-1.710372418E-2,7.391251624E-2,3.206948051E-3
1.645799740E0,-6.108472589E-3,3.970507160E-2,3.206948051E-3
1.655513230E0,-0.000000000E0,1.893626526E-2,1.985253533E-3
1.665225834E0,1.221694518E-3,6.719320081E-3,-2.901524538E-3
1.674939375E0,6.108472589E-3,-1.527118124E-2,-4.123218823E-3
1.684653646E0,1.588202827E-2,-5.680879578E-2,-5.344913341E-3
1.694367032E0,2.565558441E-2,-9.590301663E-2,-5.344913341E-3
1.704079740E0,2.565558441E-2,-9.956810623E-2,-1.679830020E-3
1.713793230E0,2.076880634E-2,-6.291726977E-2,1.985253533E-3
1.723507500E0,1.710372418E-2,-2.015795931E-2,6.872031838E-3
1.733220990E0,1.710372418E-2,3.054236295E-3,9.315420873E-3
1.742933594E0,1.832541823E-2,1.160609815E-2,6.872031838E-3
1.752647136E0,1.588202827E-2,1.771457121E-2,1.985253533E-3
1.762361407E0,1.099525020E-2,2.137965336E-2,-2.901524538E-3
1.772074792E0,2.443389036E-3,2.382304333E-2,-4.123218823E-3
1.781787500E0,-7.330167107E-3,3.237490356E-2,-5.344913341E-3
1.791500990E0,-1.710372418E-2,3.848337755E-2,-4.123218823E-3
1.801215261E0,-1.954711229E-2,3.359659761E-2,-1.679830020E-3
1.810928750E0,-1.710372418E-2,2.504473738E-2,-4.581354442E-4
1.820641355E0,-1.221694518E-2,1.649287529E-2,1.985253533E-3
1.830354896E0,-2.443389036E-3,-5.497625098E-3,3.206948051E-3
1.840069167E0,9.773556143E-3,-3.726168349E-2,4.428642802E-3
1.849782553E0,1.710372418E-2,-5.680879578E-2,5.650337320E-3
1.859495261E0,1.466033421E-2,-5.314370990E-2,5.650337320E-3
1.869208803E0,6.108472589E-3,-3.481829539E-2,4.428642802E-3
1.878923021E0,-1.221694518E-3,-1.771457121E-2,3.206948051E-3
1.888636511E0,-3.665083554E-3,-7.941014133E-3,-4.581354442E-4
1.898349115E0,-4.886778072E-3,1.832541777E-3,-1.679830020E-3
1.908062657E0,-3.665083554E-3,1.771457121E-2,-2.901524538E-3
1.917776928E0,-3.665083554E-3,3.237490356E-2,-1.679830020E-3
1.927490417E0,-2.443389036E-3,3.237490356E-2,-4.123218823E-3
1.937203021E0,-1.221694518E-3,1.893626526E-2,-6.566607859E-3
1.946916563E0,-2.443389036E-3,1.282779220E-2,-5.344913341E-3
1.956630834E0,-7.330167107E-3,1.404948719E-2,-2.901524538E-3
1.966344219E0,-6.108472589E-3,1.160609815E-2,-4.581354442E-4
1.976056928E0,-0.000000000E0,1.832541777E-3,1.985253533E-3
1.985770417E0,3.665083554E-3,6.108472589E-4,3.206948051E-3
1.995484688E0,6.108472589E-3,6.719320081E-3,5.650337320E-3
2.005198178E0,9.773556143E-3,1.038440317E-2,9.315420873E-3
2.014910782E0,9.773556143E-3,1.160609815E-2,9.315420873E-3
2.024624323E0,7.330167107E-3,2.015795931E-2,9.315420873E-3
2.034338594E0,2.443389036E-3,2.748812735E-2,9.315420873E-3
2.044051980E0,1.221694518E-3,2.748812735E-2,8.093725890E-3
2.053764688E0,-1.221694518E-3,2.137965336E-2,6.872031838E-3
2.063478230E0,-4.886778072E-3,2.260134928E-2,4.428642802E-3
2.073192448E0,-9.773556143E-3,3.359659761E-2,7.635590737E-4
2.082905938E0,-9.773556143E-3,3.726168349E-2,7.635590737E-4
2.092618542E0,-4.886778072E-3,2.748812735E-2,7.635590737E-4
2.102332084E0,-0.000000000E0,1.282779220E-2,-4.581354442E-4
2.112046355E0,4.886778072E-3,1.832541777E-3,-1.679830020E-3
2.121759844E0,4.886778072E-3,-5.497625098E-3,-1.679830020E-3
2.131472448E0,4.886778072E-3,-7.941014133E-3,-5.344913341E-3
2.141185990E0,1.221694518E-3,-3.054236295E-3,-4.123218823E-3
2.150900261E0,-3.665083554E-3,1.404948719E-2,-1.679830020E-3
2.160613646E0,-3.665083554E-3,3.115320951E-2,-1.679830020E-3
2.170326355E0,-3.665083554E-3,3.726168349E-2,7.635590737E-4
2.180039844E0,-1.221694518E-3,2.993151546E-2,7.635590737E-4
2.189754115E0,-1.221694518E-3,7.941014133E-3,-1.679830020E-3
2.199467605E0,-2.443389036E-3,-1.404948719E-2,-2.901524538E-3
2.209180209E0,-4.886778072E-3,-3.359659761E-2,-6.566607859E-3
2.218893750E0,-8.551862091E-3,-4.459185153E-2,-9.009997360E-3
2.228608021E0,-1.221694518E-2,-3.970507160E-2,-1.023169141E-2
2.238321407E0,-1.221694518E-2,-2.382304333E-2,-1.145338640E-2
2.248034115E0,-7.330167107E-3,-1.282779220E-2,-9.009997360E-3
2.257747657E0,1.221694518E-3,-1.160609815E-2,-9.009997360E-3
2.267461875E0,6.108472589E-3,-1.038440317E-2,-6.566607859E-3
2.277175365E0,7.330167107E-3,-6.108472589E-4,-4.123218823E-3
2.286887969E0,6.108472589E-3,1.282779220E-2,-5.344913341E-3
2.296601511E0,3.665083554E-3,1.771457121E-2,-4.123218823E-3
2.306315782E0,2.443389036E-3,1.893626526E-2,-4.581354442E-4
2.316029271E0,-1.221694518E-3,1.893626526E-2,-4.581354442E-4
2.325741875E0,-6.108472589E-3,1.404948719E-2,-4.581354442E-4
2.335455417E0,-7.330167107E-3,6.108472589E-4,-4.581354442E-4
2.345169636E0,-8.551862091E-3,-1.404948719E-2,1.985253533E-3
2.354883125E0,-6.108472589E-3,-1.527118124E-2,1.985253533E-3
2.364595782E0,-1.221694518E-3,-7.941014133E-3,1.985253533E-3
2.374309271E0,4.886778072E-3,5.497625098E-3,4.428642802E-3
2.384023542E0,1.099525020E-2,1.893626526E-2,4.428642802E-3
2.393737032E0,1.710372418E-2,1.893626526E-2,9.315420873E-3
2.403449636E0,1.954711229E-2,1.160609815E-2,1.175880991E-2
2.413163178E0,1.710372418E-2,1.038440317E-2,1.053711493E-2
2.422877448E0,1.221694518E-2,1.404948719E-2,1.053711493E-2
2.432590834E0,8.551862091E-3,2.015795931E-2,6.872031838E-3
2.442303542E0,7.330167107E-3,2.137965336E-2,4.428642802E-3
2.452017032E0,6.108472589E-3,1.649287529E-2,1.985253533E-3
2.461731303E0,8.551862091E-3,3.054236295E-3,-1.679830020E-3
2.471444792E0,8.551862091E-3,-1.649287529E-2,-4.123218823E-3
2.481157396E0,3.665083554E-3,-3.481829539E-2,-5.344913341E-3
2.490870938E0,-2.443389036E-3,-3.848337755E-2,-4.123218823E-3
2.500585209E0,-1.099525020E-2,-2.748812735E-2,-1.679830020E-3
2.510298594E0,-1.710372418E-2,-1.404948719E-2,1.985253533E-3
2.520011303E0,-2.076880634E-2,-1.832541777E-3,5.650337320E-3
2.529724844E0,-1.954711229E-2,-6.108472589E-4,3.206948051E-3
2.539439063E0,-1.710372418E-2,6.719320081E-3,7.635590737E-4
2.549152553E0,-1.221694518E-2,1.893626526E-2,-2.901524538E-3
2.558865157E0,-7.330167107E-3,2.260134928E-2,-2.901524538E-3
2.568578698E0,-1.221694518E-3,1.404948719E-2,-1.679830020E-3
2.578292969E0,1.221694518E-3,-5.497625098E-3,-1.679830020E-3
2.588006355E0,-1.221694518E-3,-2.137965336E-2,-1.679830020E-3
2.597719063E0,-6.108472589E-3,-2.748812735E-2,-1.679830020E-3
2.607432605E0,-9.773556143E-3,-2.993151546E-2,-4.581354442E-4
2.617146823E0,-1.099525020E-2,-3.848337755E-2,-4.581354442E-4
2.626860313E0,-1.221694518E-2,-4.214845970E-2,3.206948051E-3
2.636572969E0,-1.588202827E-2,-4.092676565E-2,1.985253533E-3
2.646286459E0,-2.076880634E-2,-2.870982140E-2,7.635590737E-4
2.656000730E0,-2.443389036E-2,-5.497625098E-3,-4.123218823E-3
2.665714115E0,-2.565558441E-2,1.771457121E-2,-7.788302377E-3
2.675426823E0,-1.954711229E-2,2.993151546E-2,-1.389677543E-2
2.685140365E0,-7.330167107E-3,2.870982140E-2,-1.389677543E-2
2.694854584E0,2.443389036E-3,2.504473738E-2,-1.023169141E-2
2.704568073E0,4.886778072E-3,2.382304333E-2,-9.009997360E-3
2.714280730E0,4.886778072E-3,1.527118124E-2,-5.344913341E-3
2.723994219E0,4.886778072E-3,-1.038440317E-2,3.206948051E-3
2.733708490E0,2.443389036E-3,-3.726168349E-2,1.053711493E-2
2.743421980E0,-8.551862091E-3,-4.337015375E-2,1.053711493E-2
2.753134584E0,-1.710372418E-2,-2.993151546E-2,9.315420873E-3
2.762848125E0,-1.954711229E-2,-1.282779220E-2,6.872031838E-3
2.772562344E0,-1.588202827E-2,3.054236295E-3,3.206948051E-3
2.782275834E0,-9.773556143E-3,1.404948719E-2,-2.901524538E-3
2.791988490E0,1.221694518E-3,1.649287529E-2,-6.566607859E-3
2.801701980E0,1.099525020E-2,1.160609815E-2,-1.023169141E-2
2.811416250E0,1.588202827E-2,5.497625098E-3,-1.023169141E-2
2.821129636E0,1.466033421E-2,5.497625098E-3,-7.788302377E-3
2.830842344E0,9.773556143E-3,1.038440317E-2,-4.123218823E-3
2.840555886E0,1.221694518E-3,9.162709117E-3,-1.679830020E-3
2.850270105E0,-3.665083554E-3,-4.275931045E-3,1.985253533E-3
2.859983594E0,-4.886778072E-3,-2.260134928E-2,3.206948051E-3
2.869696198E0,-7.330167107E-3,-2.993151546E-2,7.635590737E-4
2.879409740E0,-1.099525020E-2,-2.015795931E-2,-2.901524538E-3
2.889124011E0,-1.466033421E-2,1.832541777E-3,-5.344913341E-3
2.898837396E0,-1.099525020E-2,1.649287529E-2,-6.566607859E-3
2.908550105E0,-3.665083554E-3,1.404948719E-2,-6.566607859E-3
2.918263594E0,-0.000000000E0,1.038440317E-2,-4.123218823E-3
2.927977865E0,-3.665083554E-3,2.015795931E-2,-2.901524538E-3
2.937691355E0,-8.551862091E-3,3.115320951E-2,7.635590737E-4
2.947403959E0,-8.551862091E-3,3.115320951E-2,3.206948051E-3
2.957117500E0,-6.108472589E-3,2.015795931E-2,1.985253533E-3
2.966831771E0,-4.886778072E-3,5.497625098E-3,-1.679830020E-3
2.976545157E0,-2.443389036E-3,-4.275931045E-3,-5.344913341E-3
2.986257865E0,-2.443389036E-3,-5.497625098E-3,-7.788302377E-3
2.995971355E0,-2.443389036E-3,-5.497625098E-3,-9.009997360E-3
3.005685625E0,-0.000000000E0,-9.162709117E-3,-7.788302377E-3
3.015399115E0,-0.000000000E0,-1.649287529E-2,-5.344913341E-3
3.025111719E0,-2.443389036E-3,-1.160609815E-2,-4.123218823E-3
3.034825261E0,-6.108472589E-3,3.054236295E-3,-2.901524538E-3
3.044539480E0,-9.773556143E-3,1.282779220E-2,-2.901524538E-3
3.054252969E0,-9.773556143E-3,1.282779220E-2,-1.679830020E-3
3.063965573E0,-6.108472589E-3,3.054236295E-3,-4.581354442E-4
3.073679115E0,-1.221694518E-3,-7.941014133E-3,4.428642802E-3
3.083393386E0,-0.000000000E0,-9.162709117E-3,8.093725890E-3
3.093106771E0,-2.443389036E-3,4.275931045E-3,9.315420873E-3
3.102819480E0,-4.886778072E-3,1.404948719E-2,4.428642802E-3
3.112532969E0,-4.886778072E-3,6.719320081E-3,-1.679830020E-3
3.122247240E0,-1.221694518E-3,-9.162709117E-3,-9.009997360E-3
3.131960730E0,1.221694518E-3,-1.649287529E-2,-1.389677543E-2
3.141673334E0,1.221694518E-3,-1.038440317E-2,-1.511846948E-2
3.151386875E0,1.221694518E-3,-7.941014133E-3,-1.511846948E-2
3.161101146E0,1.221694518E-3,-1.404948719E-2,-1.267508045E-2
3.170814532E0,-1.221694518E-3,-1.893626526E-2,-9.009997360E-3
3.180527188E0,-9.773556143E-3,-1.649287529E-2,-7.788302377E-3
3.190240730E0,-1.588202827E-2,-1.404948719E-2,-6.566607859E-3
3.199955000E0,-1.832541823E-2,-1.771457121E-2,-9.009997360E-3
3.209668386E0,-1.954711229E-2,-2.382304333E-2,-1.023169141E-2
3.219381094E0,-1.954711229E-2,-2.260134928E-2,-9.009997360E-3
3.229094584E0,-1.832541823E-2,-6.719320081E-3,-1.145338640E-2
3.238808855E0,-1.832541823E-2,1.038440317E-2,-1.023169141E-2
3.248522344E0,-1.954711229E-2,1.771457121E-2,-9.009997360E-3
3.258234948E0,-1.954711229E-2,2.260134928E-2,-6.566607859E-3
3.267948490E0,-2.076880634E-2,2.993151546E-2,-4.123218823E-3
3.277662709E0,-1.954711229E-2,2.870982140E-2,-1.679830020E-3
3.287376198E0,-1.343864016E-2,1.649287529E-2,1.985253533E-3
3.297088803E0,-4.886778072E-3,-4.275931045E-3,3.206948051E-3
3.306802344E0,1.221694518E-3,-2.260134928E-2,3.206948051E-3
3.316516615E0,3.665083554E-3,-3.359659761E-2,4.428642802E-3
3.326230000E0,6.108472589E-3,-3.481829539E-2,7.635590737E-4
3.335942709E0,6.108472589E-3,-3.237490356E-2,-5.344913341E-3
3.345656198E0,4.886778072E-3,-2.748812735E-2,-9.009997360E-3
3.355370469E0,4.886778072E-3,-2.260134928E-2,-1.145338640E-2
3.365083855E0,4.886778072E-3,-1.404948719E-2,-1.023169141E-2
3.374796563E0,4.886778072E-3,-5.497625098E-3,-5.344913341E-3
3.384510053E0,3.665083554E-3,-6.719320081E-3,7.635590737E-4
3.394224323E0,-0.000000000E0,-1.649287529E-2,4.428642802E-3
3.403937813E0,-6.108472589E-3,-2.504473738E-2,5.650337320E-3
3.413650417E0,-1.466033421E-2,-2.260134928E-2,1.985253533E-3
3.423363959E0,-2.199050039E-2,-1.771457121E-2,-4.581354442E-4
3.433078178E0,-2.687728032E-2,-1.160609815E-2,-2.901524538E-3
3.442791667E0,-2.809897438E-2,7.941014133E-3,-6.566607859E-3
3.452504271E0,-2.443389036E-2,3.848337755E-2,-6.566607859E-3
3.462217813E0,-1.221694518E-2,5.192201585E-2,-2.901524538E-3
3.471932032E0,2.443389036E-3,4.337015375E-2,1.985253533E-3
3.481645521E0,1.343864016E-2,2.137965336E-2,5.650337320E-3
3.491358178E0,1.588202827E-2,-4.275931045E-3,8.093725890E-3
3.501071667E0,9.773556143E-3,-2.137965336E-2,9.315420873E-3
3.510785938E0,-0.000000000E0,-2.504473738E-2,8.093725890E-3
3.520499323E0,-7.330167107E-3,-1.893626526E-2,3.206948051E-3
3.530212032E0,-8.551862091E-3,-4.275931045E-3,1.985253533E-3
3.539925521E0,-3.665083554E-3,1.038440317E-2,1.985253533E-3
3.549639792E0,4.886778072E-3,2.137965336E-2,7.635590737E-4
3.559353178E0,1.221694518E-2,3.115320951E-2,-2.901524538E-3
3.569065886E0,1.710372418E-2,3.359659761E-2,-6.566607859E-3
3.578779375E0,2.076880634E-2,2.626643144E-2,-5.344913341E-3
3.588493646E0,1.832541823E-2,1.404948719E-2,-4.581354442E-4
3.598207032E0,9.773556143E-3,7.941014133E-3,4.428642802E-3
3.607919740E0,-0.000000000E0,1.282779220E-2,9.315420873E-3
3.617633230E0,-7.330167107E-3,1.893626526E-2,1.298050396E-2
3.627347500E0,-9.773556143E-3,2.015795931E-2,1.542389300E-2
3.637060990E0,-8.551862091E-3,1.282779220E-2,1.175880991E-2
3.646773594E0,-4.886778072E-3,7.941014133E-3,8.093725890E-3
3.656487136E0,-2.443389036E-3,1.160609815E-2,3.206948051E-3
3.666201355E0,3.665083554E-3,2.137965336E-2,7.635590737E-4
3.675914844E0,1.099525020E-2,2.504473738E-2,-4.581354442E-4
3.685627448E0,1.832541823E-2,1.893626526E-2,-4.581354442E-4
3.695340990E0,1.954711229E-2,5.497625098E-3,7.635590737E-4
3.705055209E0,1.954711229E-2,-9.162709117E-3,1.985253533E-3
3.714768698E0,1.221694518E-2,-1.404948719E-2,1.985253533E-3
3.724481303E0,6.108472589E-3,-9.162709117E-3,1.985253533E-3
3.734194844E0,1.221694518E-3,-1.038440317E-2,-4.581354442E-4
3.743909063E0,-2.443389036E-3,-5.497625098E-3,-2.901524538E-3
3.753622553E0,-4.886778072E-3,1.404948719E-2,-5.344913341E-3
3.763335157E0,-7.330167107E-3,3.237490356E-2,-6.566607859E-3
3.773048698E0,-6.108472589E-3,3.481829539E-2,-6.566607859E-3
3.782762917E0,-6.108472589E-3,2.137965336E-2,-4.123218823E-3
3.792476407E0,-7.330167107E-3,3.054236295E-3,-1.679830020E-3
3.802189011E0,-1.221694518E-2,-9.162709117E-3,7.635590737E-4
3.811902553E0,-1.710372418E-2,-1.527118124E-2,3.206948051E-3
3.821616771E0,-1.588202827E-2,-2.137965336E-2,4.428642802E-3
3.831330261E0,-9.773556143E-3,-3.359659761E-2,4.428642802E-3
3.841042865E0,-1.221694518E-3,-4.703523964E-2,3.206948051E-3
3.850756407E0,1.221694518E-3,-4.092676565E-2,1.985253533E-3
3.860470625E0,-0.000000000E0,-2.137965336E-2,-4.581354442E-4
3.870184115E0,-3.665083554E-3,-6.719320081E-3,-4.123218823E-3
3.879896719E0,-4.886778072E-3,-6.108472589E-4,-5.344913341E-3
3.889610261E0,-6.108472589E-3,-1.832541777E-3,-4.123218823E-3
3.899324480E0,-8.551862091E-3,-4.275931045E-3,-4.123218823E-3
3.909037969E0,-1.099525020E-2,6.108472589E-4,-1.679830020E-3
3.918750573E0,-1.221694518E-2,5.497625098E-3,7.635590737E-4
3.928464115E0,-1.099525020E-2,4.275931045E-3,4.428642802E-3
3.938178334E0,-1.099525020E-2,1.832541777E-3,5.650337320E-3
3.947891823E0,-1.099525020E-2,-1.832541777E-3,5.650337320E-3
3.957604428E0,-8.551862091E-3,-9.162709117E-3,4.428642802E-3
3.967317969E0,-6.108472589E-3,-1.771457121E-2,1.985253533E-3
3.977032188E0,-3.665083554E-3,-2.382304333E-2,-4.581354442E-4
3.986745678E0,-2.443389036E-3,-2.870982140E-2,-2.901524538E-3
3.996458282E0,-2.443389036E-3,-2.626643144E-2,-2.901524538E-3
4.006171823E0,-6.108472589E-3,-1.649287529E-2,-5.344913341E-3
4.015886042E0,-9.773556143E-3,-3.054236295E-3,-4.123218823E-3
4.025599532E0,-1.099525020E-2,5.497625098E-3,-2.901524538E-3
4.035312136E0,-8.551862091E-3,6.108472589E-4,-4.581354442E-4
4.045025678E0,-7.330167107E-3,-6.719320081E-3,1.985253533E-3
4.054739896E0,-6.108472589E-3,-6.719320081E-3,3.206948051E-3
4.064453386E0,-7.330167107E-3,5.497625098E-3,4.428642802E-3
4.074165990E0,-7.330167107E-3,2.382304333E-2,3.206948051E-3
4.083879480E0,-4.886778072E-3,3.237490356E-2,7.635590737E-4
4.093593750E0,-0.000000000E0,2.993151546E-2,-4.581354442E-4
4.103307240E0,1.221694518E-3,2.626643144E-2,-4.123218823E-3
4.113019844E0,-1.221694518E-3,2.504473738E-2,-7.788302377E-3
4.122733334E0,-3.665083554E-3,2.748812735E-2,-1.023169141E-2
4.132447605E0,-4.886778072E-3,2.626643144E-2,-9.009997360E-3
4.142160990E0,-8.551862091E-3,2.504473738E-2,-6.566607859E-3
4.151873698E0,-1.221694518E-2,2.260134928E-2,-4.123218823E-3
4.161587188E0,-1.466033421E-2,1.771457121E-2,-2.901524538E-3
4.171301459E0,-1.343864016E-2,1.160609815E-2,7.635590737E-4
4.181014844E0,-1.099525020E-2,5.497625098E-3,1.985253533E-3
4.190727553E0,-7.330167107E-3,7.941014133E-3,1.985253533E-3
4.200441042E0,-2.443389036E-3,1.527118124E-2,1.985253533E-3
4.210155313E0,3.665083554E-3,2.015795931E-2,4.428642802E-3
4.219868698E0,9.773556143E-3,2.137965336E-2,3.206948051E-3
4.229581355E0,8.551862091E-3,2.137965336E-2,3.206948051E-3
4.239294896E0,6.108472589E-3,1.893626526E-2,1.985253533E-3
4.249009167E0,1.221694518E-3,1.404948719E-2,-4.581354442E-4
4.258722553E0,-4.886778072E-3,9.162709117E-3,-4.123218823E-3
4.268435209E0,-8.551862091E-3,5.497625098E-3,-6.566607859E-3
4.278148750E0,-1.221694518E-2,1.832541777E-3,-1.023169141E-2
4.287862969E0,-1.343864016E-2,6.108472589E-4,-1.267508045E-2
4.297576459E0,-1.466033421E-2,-5.497625098E-3,-1.145338640E-2
4.307289063E0,-1.221694518E-2,-1.404948719E-2,-7.788302377E-3
4.317002553E0,-1.343864016E-2,-2.015795931E-2,-1.679830020E-3
4.326716823E0,-1.221694518E-2,-2.260134928E-2,3.206948051E-3
4.336430209E0,-1.099525020E-2,-2.870982140E-2,6.872031838E-3
4.346142917E0,-1.099525020E-2,-3.726168349E-2,6.872031838E-3
4.355856407E0,-1.099525020E-2,-4.214845970E-2,5.650337320E-3
4.365570678E0,-1.221694518E-2,-3.481829539E-2,1.985253533E-3
4.375284063E0,-1.466033421E-2,-1.527118124E-2,-2.901524538E-3
4.384996771E0,-1.588202827E-2,1.832541777E-3,-7.788302377E-3
4.394710261E0,-1.466033421E-2,1.038440317E-2,-9.009997360E-3
4.404424532E0,-1.099525020E-2,6.719320081E-3,-9.009997360E-3
4.414137917E0,-9.773556143E-3,-1.832541777E-3,-1.023169141E-2
4.423850573E0,-1.221694518E-2,-1.038440317E-2,-1.023169141E-2
4.433564115E0,-1.588202827E-2,-1.404948719E-2,-1.023169141E-2
4.443278334E0,-1.588202827E-2,-1.649287529E-2,-6.566607859E-3
4.452991823E0,-1.588202827E-2,-2.137965336E-2,-2.901524538E-3
4.462704428E0,-1.588202827E-2,-1.527118124E-2,7.635590737E-4
4.472417969E0,-1.343864016E-2,-1.832541777E-3,1.985253533E-3
4.482132188E0,-7.330167107E-3,7.941014133E-3,6.872031838E-3
4.491845573E0,2.443389036E-3,4.275931045E-3,9.315420873E-3
4.501558282E0,1.466033421E-2,-5.497625098E-3,1.053711493E-2
4.511271771E0,2.443389036E-2,-1.404948719E-2,8.093725890E-3
4.520986042E0,3.298575059E-2,-2.015795931E-2,8.093725890E-3
4.530699428E0,3.909422457E-2,-2.748812735E-2,5.650337320E-3
4.540412084E0,3.787253052E-2,-3.359659761E-2,3.206948051E-3
4.550125625E0,3.176405653E-2,-3.726168349E-2,3.206948051E-3
4.559839844E0,2.076880634E-2,-3.115320951E-2,7.635590737E-4
4.569553334E0,7.330167107E-3,-2.137965336E-2,-2.901524538E-3
4.579265938E0,-4.886778072E-3,-1.527118124E-2,-4.123218823E-3
4.588979480E0,-1.343864016E-2,-1.404948719E-2,-5.344913341E-3
4.598693698E0,-1.954711229E-2,-1.282779220E-2,-6.566607859E-3
4.608407084E0,-2.809897438E-2,-1.038440317E-2,-9.009997360E-3
4.618119792E0,-3.542914242E-2,-6.719320081E-3,-1.267508045E-2
4.627833282E0,-4.275930673E-2,-4.275931045E-3,-1.389677543E-2
4.637547553E0,-4.886778072E-2,-6.108472589E-4,-1.267508045E-2
4.647260938E0,-5.375456065E-2,1.404948719E-2,-7.788302377E-3
4.656973646E0,-5.375456065E-2,2.993151546E-2,-4.123218823E-3
4.666687136E0,-4.764608666E-2,3.359659761E-2,7.635590737E-4
4.676401407E0,-3.787253052E-2,1.893626526E-2,3.206948051E-3
4.686114792E0,-2.443389036E-2,1.832541777E-3,6.872031838E-3
4.695827448E0,-1.221694518E-2,-4.275931045E-3,1.053711493E-2
4.705540990E0,2.443389036E-3,-1.832541777E-3,1.053711493E-2
4.715255209E0,1.588202827E-2,-6.108472589E-4,1.420219894E-2
4.724968698E0,3.176405653E-2,-3.054236295E-3,1.420219894E-2
4.734681303E0,4.275930673E-2,6.108472589E-4,1.420219894E-2
4.744394792E0,4.398100078E-2,1.038440317E-2,1.053711493E-2
4.754109063E0,3.909422457E-2,1.649287529E-2,6.872031838E-3
4.763822448E0,3.054236248E-2,1.649287529E-2,3.206948051E-3
4.773535157E0,1.954711229E-2,1.527118124E-2,-4.581354442E-4
4.783248646E0,9.773556143E-3,1.160609815E-2,-2.901524538E-3
4.792962917E0,-0.000000000E0,9.162709117E-3,-4.123218823E-3
4.802676303E0,-9.773556143E-3,1.893626526E-2,-6.566607859E-3
4.812388959E0,-1.710372418E-2,3.481829539E-2,-9.009997360E-3
4.822102500E0,-1.954711229E-2,4.459185153E-2,-1.023169141E-2
4.831816719E0,-1.710372418E-2,4.459185153E-2,-1.023169141E-2
4.841530209E0,-1.343864016E-2,4.337015375E-2,-1.023169141E-2
4.851242813E0,-1.099525020E-2,4.337015375E-2,-5.344913341E-3
4.860956355E0,-1.221694518E-2,3.970507160E-2,-4.581354442E-4
4.870670573E0,-1.466033421E-2,2.993151546E-2,3.206948051E-3
4.880384063E0,-2.321219631E-2,2.260134928E-2,9.315420873E-3
4.890096667E0,-3.665083647E-2,2.870982140E-2,1.298050396E-2
4.899810157E0,-4.398100078E-2,3.115320951E-2,1.298050396E-2
4.909524428E0,-4.275930673E-2,1.160609815E-2,8.093725890E-3
4.919237917E0,-3.420744836E-2,-2.260134928E-2,-4.581354442E-4
4.928950521E0,-2.321219631E-2,-4.825693369E-2,-5.344913341E-3
4.938664011E0,-1.466033421E-2,-5.192201585E-2,-1.023169141E-2
4.948378282E0,-1.221694518E-2,-4.092676565E-2,-1.389677543E-2
4.958091667E0,-1.099525020E-2,-3.115320951E-2,-1.634016447E-2
4.967804375E0,-1.343864016E-2,-2.015795931E-2,-1.389677543E-2
4.977517865E0,-1.710372418E-2,-5.497625098E-3,-1.145338640E-2
4.987232136E0,-1.710372418E-2,6.719320081E-3,-9.009997360E-3
4.996945521E0,-1.343864016E-2,5.497625098E-3,-5.344913341E-3
5.006658178E0,-6.108472589E-3,-6.719320081E-3,-1.679830020E-3
5.016371719E0,-2.443389036E-3,-1.404948719E-2,7.635590737E-4
5.026085938E0,-2.443389036E-3,-1.160609815E-2,3.206948051E-3
5.035799428E0,-8.551862091E-3,-9.162709117E-3,3.206948051E-3
5.045512032E0,-1.710372418E-2,-5.497625098E-3,3.206948051E-3
5.055225573E0,-2.443389036E-2,7.941014133E-3,3.206948051E-3
5.064939792E0,-3.054236248E-2,2.993151546E-2,7.635590737E-4
5.074653282E0,-2.932066843E-2,4.703523964E-2,-1.679830020E-3
5.084365886E0,-2.076880634E-2,4.825693369E-2,-2.901524538E-3
5.094079428E0,-8.551862091E-3,2.870982140E-2,-4.581354442E-4
5.103793646E0,2.443389036E-3,1.832541777E-3,3.206948051E-3
5.113507136E0,4.886778072E-3,-1.160609815E-2,5.650337320E-3
5.123219740E0,-1.221694518E-3,-5.497625098E-3,6.872031838E-3
5.132933230E0,-9.773556143E-3,4.275931045E-3,6.872031838E-3
5.142647500E0,-1.343864016E-2,3.054236295E-3,4.428642802E-3
5.152360990E0,-1.343864016E-2,-9.162709117E-3,-4.581354442E-4
5.162073594E0,-1.099525020E-2,-2.015795931E-2,-4.123218823E-3
5.171787084E0,-1.221694518E-2,-9.162709117E-3,-7.788302377E-3
5.181501355E0,-1.099525020E-2,9.162709117E-3,-7.788302377E-3
5.191214844E0,-9.773556143E-3,1.160609815E-2,-7.788302377E-3
5.200927448E0,-8.551862091E-3,-1.832541777E-3,-9.009997360E-3
5.210640938E0,-1.099525020E-2,-1.404948719E-2,-1.023169141E-2
5.220355209E0,-1.588202827E-2,-2.015795931E-2,-9.009997360E-3
5.230068594E0,-2.199050039E-2,-1.771457121E-2,-6.566607859E-3
5.239781303E0,-2.443389036E-2,-9.162709117E-3,-2.901524538E-3
5.249494792E0,-2.687728032E-2,-5.497625098E-3,7.635590737E-4
5.259209063E0,-2.687728032E-2,-1.038440317E-2,4.428642802E-3
5.268922448E0,-2.809897438E-2,-1.282779220E-2,4.428642802E-3
5.278635157E0,-3.298575059E-2,4.275931045E-3,7.635590737E-4
5.288348646E0,-3.542914242E-2,2.015795931E-2,-4.123218823E-3
5.298062917E0,-2.809897438E-2,1.160609815E-2,-6.566607859E-3
5.307776303E0,-2.076880634E-2,-6.719320081E-3,-9.009997360E-3
5.317489011E0,-1.832541823E-2,-1.160609815E-2,-9.009997360E-3
5.327202500E0,-1.954711229E-2,-6.719320081E-3,-6.566607859E-3
5.336916771E0,-2.199050039E-2,-6.719320081E-3,-1.679830020E-3
5.346630157E0,-2.076880634E-2,-1.893626526E-2,1.985253533E-3
5.356342865E0,-2.076880634E-2,-3.237490356E-2,4.428642802E-3
5.366056355E0,-2.199050039E-2,-2.748812735E-2,4.428642802E-3
5.375770625E0,-2.199050039E-2,-1.160609815E-2,3.206948051E-3
5.385484011E0,-1.954711229E-2,5.497625098E-3,3.206948051E-3
5.395196719E0,-1.588202827E-2,1.160609815E-2,1.985253533E-3
5.404910209E0,-6.108472589E-3,5.497625098E-3,-4.581354442E-4
5.414624480E0,1.221694518E-3,-5.497625098E-3,-4.581354442E-4
5.424337865E0,2.443389036E-3,-1.038440317E-2,-4.581354442E-4
5.434050573E0,-0.000000000E0,-6.719320081E-3,-1.679830020E-3
5.443764063E0,-4.886778072E-3,-1.282779220E-2,-4.581354442E-4
5.453478334E0,-8.551862091E-3,-2.748812735E-2,-4.581354442E-4
5.463191719E0,-1.221694518E-2,-3.726168349E-2,-4.581354442E-4
5.472904428E0,-1.588202827E-2,-2.748812735E-2,-1.679830020E-3
5.482617917E0,-1.710372418E-2,-9.162709117E-3,-2.901524538E-3
5.492332188E0,-1.466033421E-2,7.941014133E-3,-4.123218823E-3
5.502045678E0,-1.343864016E-2,2.015795931E-2,-5.344913341E-3
5.511758282E0,-1.221694518E-2,2.260134928E-2,-7.788302377E-3
5.521471771E0,-1.099525020E-2,1.404948719E-2,-7.788302377E-3
5.531186042E0,-1.221694518E-2,-6.108472589E-4,-6.566607859E-3
5.540899532E0,-2.076880634E-2,-5.497625098E-3,-2.901524538E-3
5.550612136E0,-3.420744836E-2,4.275931045E-3,-4.581354442E-4
5.560325625E0,-4.520269856E-2,1.649287529E-2,1.985253533E-3
5.570039896E0,-5.008947477E-2,1.527118124E-2,3.206948051E-3
5.579753386E0,-5.008947477E-2,4.275931045E-3,4.428642802E-3
5.589465990E0,-4.520269856E-2,-1.160609815E-2,1.985253533E-3
5.599179532E0,-3.909422457E-2,-2.626643144E-2,1.985253533E-3
5.608893750E0,-3.298575059E-2,-2.504473738E-2,-4.581354442E-4
5.618607240E0,-3.054236248E-2,-1.282779220E-2,-1.679830020E-3
5.628319844E0,-2.932066843E-2,4.275931045E-3,-1.679830020E-3
5.638033386E0,-2.809897438E-2,2.015795931E-2,-1.679830020E-3
5.647747605E0,-2.443389036E-2,2.748812735E-2,-4.123218823E-3
5.657461094E0,-1.588202827E-2,2.504473738E-2,-4.123218823E-3
5.667173698E0,-6.108472589E-3,1.527118124E-2,-4.123218823E-3
5.676887240E0,1.221694518E-3,1.038440317E-2,-4.123218823E-3
5.686601459E0,8.551862091E-3,6.719320081E-3,-2.901524538E-3
5.696314948E0,1.588202827E-2,1.832541777E-3,7.635590737E-4
5.706027553E0,1.832541823E-2,-1.832541777E-3,3.206948051E-3
5.715741094E0,1.954711229E-2,-7.941014133E-3,4.428642802E-3
5.725455313E0,2.199050039E-2,-2.626643144E-2,8.093725890E-3
5.735168803E0,2.199050039E-2,-4.459185153E-2,8.093725890E-3
5.744881407E0,1.954711229E-2,-4.214845970E-2,6.872031838E-3
5.754594948E0,1.343864016E-2,-1.649287529E-2,4.428642802E-3
5.764309167E0,8.551862091E-3,2.015795931E-2,1.985253533E-3
5.774022657E0,8.551862091E-3,4.459185153E-2,-4.581354442E-4
5.783735261E0,9.773556143E-3,4.825693369E-2,-1.679830020E-3
5.793448803E0,8.551862091E-3,4.214845970E-2,-2.901524538E-3
5.803163021E0,-1.221694518E-3,4.214845970E-2,-6.566607859E-3
5.812876511E0,-1.099525020E-2,4.214845970E-2,-9.009997360E-3
5.822589115E0,-1.710372418E-2,2.993151546E-2,-1.023169141E-2
5.832302657E0,-1.832541823E-2,5.497625098E-3,-9.009997360E-3
5.842016928E0,-1.832541823E-2,-2.015795931E-2,-7.788302377E-3
5.851730313E0,-1.588202827E-2,-3.726168349E-2,-6.566607859E-3
5.861442969E0,-1.588202827E-2,-3.726168349E-2,-2.901524538E-3
5.871156511E0,-1.343864016E-2,-2.748812735E-2,1.985253533E-3
5.880870782E0,-7.330167107E-3,-2.504473738E-2,6.872031838E-3
5.890584167E0,1.221694518E-3,-3.237490356E-2,1.053711493E-2
5.900296823E0,7.330167107E-3,-3.481829539E-2,1.053711493E-2
5.910010365E0,8.551862091E-3,-2.626643144E-2,8.093725890E-3
5.919724636E0,6.108472589E-3,-6.719320081E-3,8.093725890E-3
5.929438021E0,4.886778072E-3,1.282779220E-2,3.206948051E-3
5.939150730E0,8.551862091E-3,2.015795931E-2,-1.679830020E-3
5.948864219E0,1.588202827E-2,1.893626526E-2,-4.123218823E-3
5.958578490E0,1.832541823E-2,2.382304333E-2,-5.344913341E-3
5.968291875E0,1.588202827E-2,3.603998944E-2,-5.344913341E-3
5.978004584E0,1.343864016E-2,3.359659761E-2,-4.123218823E-3
5.987718073E0,1.466033421E-2,5.497625098E-3,-4.581354442E-4
5.997432344E0,1.099525020E-2,-2.870982140E-2,7.635590737E-4
6.007145730E0,2.443389036E-3,-5.192201585E-2,3.206948051E-3
6.016858438E0,-7.330167107E-3,-5.192201585E-2,4.428642802E-3
6.026571928E0,-1.588202827E-2,-3.603998944E-2,3.206948051E-3
6.036286198E0,-1.588202827E-2,-1.771457121E-2,5.650337320E-3
6.045999584E0,-9.773556143E-3,-7.941014133E-3,5.650337320E-3
6.055712292E0,-2.443389036E-3,6.108472589E-4,3.206948051E-3
6.065425782E0,-0.000000000E0,1.527118124E-2,7.635590737E-4
6.075140053E0,-0.000000000E0,2.015795931E-2,-1.679830020E-3
6.084853542E0,1.221694518E-3,9.162709117E-3,-2.901524538E-3
6.094566146E0,2.443389036E-3,-6.719320081E-3,-1.679830020E-3
6.104279636E0,2.443389036E-3,-7.941014133E-3,-4.581354442E-4
6.113993907E0,-0.000000000E0,9.162709117E-3,1.985253533E-3
6.123707396E0,-2.443389036E-3,2.137965336E-2,7.635590737E-4
6.133420000E0,2.443389036E-3,1.527118124E-2,-4.581354442E-4
6.143133542E0,9.773556143E-3,-9.162709117E-3,-2.901524538E-3
6.152847761E0,1.588202827E-2,-2.993151546E-2,-1.679830020E-3
6.162561250E0,1.466033421E-2,-2.504473738E-2,-1.679830020E-3
6.172273855E0,1.099525020E-2,-1.832541777E-3,7.635590737E-4
6.181987396E0,1.099525020E-2,1.649287529E-2,7.635590737E-4
6.191701615E0,1.343864016E-2,1.893626526E-2,1.985253533E-3
6.201415105E0,1.343864016E-2,2.015795931E-2,1.985253533E-3
6.211127709E0,1.099525020E-2,2.626643144E-2,1.985253533E-3
6.220841250E0,7.330167107E-3,2.748812735E-2,-4.581354442E-4
6.230555469E0,7.330167107E-3,2.015795931E-2,-4.123218823E-3
6.240268959E0,8.551862091E-3,7.941014133E-3,-4.123218823E-3
6.249981563E0,7.330167107E-3,-5.497625098E-3,-4.123218823E-3
6.259695105E0,3.665083554E-3,-1.649287529E-2,-1.679830020E-3
6.269409323E0,-4.886778072E-3,-1.527118124E-2,-4.581354442E-4
6.279122813E0,-1.221694518E-2,-1.038440317E-2,7.635590737E-4
6.288835417E0,-1.588202827E-2,-9.162709117E-3,1.985253533E-3
6.298548959E0,-1.588202827E-2,-6.719320081E-3,7.635590737E-4
6.308263230E0,-1.588202827E-2,4.275931045E-3,-1.679830020E-3
6.317976615E0,-1.466033421E-2,2.504473738E-2,-2.901524538E-3
6.327689271E0,-1.221694518E-2,4.459185153E-2,-4.123218823E-3
6.337402813E0,-1.099525020E-2,5.192201585E-2,-2.901524538E-3
6.347117084E0,-7.330167107E-3,4.703523964E-2,-1.679830020E-3
6.356830469E0,-7.330167107E-3,4.214845970E-2,-4.581354442E-4
6.366543125E0,-1.099525020E-2,4.214845970E-2,7.635590737E-4
6.376256667E0,-1.588202827E-2,5.070032179E-2,7.635590737E-4
6.385970938E0,-2.321219631E-2,6.413896382E-2,1.985253533E-3
6.395684323E0,-2.687728032E-2,7.513421029E-2,7.635590737E-4
6.405397032E0,-2.199050039E-2,6.780404598E-2,-4.123218823E-3
6.415110521E0,-8.551862091E-3,3.726168349E-2,-5.344913341E-3
6.424824792E0,6.108472589E-3,-6.719320081E-3,7.635590737E-4
6.434538178E0,1.466033421E-2,-3.359659761E-2,8.093725890E-3
6.444250886E0,8.551862091E-3,-3.237490356E-2,8.093725890E-3
6.453964375E0,-4.886778072E-3,-2.015795931E-2,6.872031838E-3
6.463678646E0,-1.588202827E-2,-1.527118124E-2,1.985253533E-3
6.473392032E0,-2.321219631E-2,-2.993151546E-2,-6.566607859E-3
6.483104740E0,-2.321219631E-2,-3.726168349E-2,-1.389677543E-2
6.492818230E0,-2.076880634E-2,-2.504473738E-2,-1.878355257E-2
6.502532500E0,-1.466033421E-2,3.054236295E-3,-2.244863659E-2
6.512245886E0,-4.886778072E-3,2.504473738E-2,-1.878355257E-2
6.521958594E0,4.886778072E-3,2.626643144E-2,-1.634016447E-2
6.531672084E0,9.773556143E-3,1.160609815E-2,-1.145338640E-2
6.541386355E0,7.330167107E-3,-4.275931045E-3,-2.901524538E-3
6.551099740E0,-1.221694518E-3,-1.160609815E-2,5.650337320E-3
6.560812448E0,-1.221694518E-2,-3.054236295E-3,1.053711493E-2
6.570525938E0,-2.076880634E-2,2.260134928E-2,1.420219894E-2
6.580240209E0,-2.199050039E-2,4.825693369E-2,1.542389300E-2
6.589953698E0,-8.551862091E-3,5.192201585E-2,1.298050396E-2
6.599666303E0,9.773556143E-3,2.748812735E-2,9.315420873E-3
6.609379792E0,2.321219631E-2,-3.054236295E-3,1.985253533E-3
6.619094063E0,2.565558441E-2,-1.282779220E-2,-2.901524538E-3
6.628807553E0,2.199050039E-2,1.832541777E-3,-5.344913341E-3
6.638520157E0,1.466033421E-2,2.260134928E-2,-5.344913341E-3
6.648233698E0,1.343864016E-2,2.382304333E-2,-1.679830020E-3
6.657947917E0,1.343864016E-2,3.054236295E-3,-4.581354442E-4
6.667661407E0,1.466033421E-2,-1.893626526E-2,1.985253533E-3
6.677374011E0,1.099525020E-2,-2.748812735E-2,1.985253533E-3
6.687087553E0,4.886778072E-3,-1.649287529E-2,1.985253533E-3
6.696801771E0,-2.443389036E-3,6.719320081E-3,-4.581354442E-4
6.706515261E0,-4.886778072E-3,2.504473738E-2,-2.901524538E-3
6.716227865E0,-1.221694518E-3,2.993151546E-2,-5.344913341E-3
6.725941407E0,4.886778072E-3,2.748812735E-2,-4.123218823E-3
6.735655625E0,9.773556143E-3,2.748812735E-2,7.635590737E-4
6.745369115E0,1.221694518E-2,2.382304333E-2,8.093725890E-3
6.755081719E0,1.099525020E-2,6.719320081E-3,1.420219894E-2
6.764795261E0,4.886778072E-3,-9.162709117E-3,1.786728203E-2
6.774509480E0,-7.330167107E-3,-5.497625098E-3,1.664558798E-2
6.784222969E0,-1.832541823E-2,1.649287529E-2,1.420219894E-2
6.793935573E0,-1.710372418E-2,3.359659761E-2,6.872031838E-3
6.803649115E0,-3.665083554E-3,3.359659761E-2,-1.679830020E-3
6.813363334E0,1.588202827E-2,2.504473738E-2,-6.566607859E-3
6.823076823E0,3.298575059E-2,1.893626526E-2,-9.009997360E-3
6.832789428E0,4.031591862E-2,1.282779220E-2,-9.009997360E-3
6.842502969E0,3.787253052E-2,4.275931045E-3,-6.566607859E-3
6.852217188E0,2.687728032E-2,-1.160609815E-2,-2.901524538E-3
6.861930678E0,8.551862091E-3,-2.626643144E-2,3.206948051E-3
6.871643282E0,-7.330167107E-3,-2.870982140E-2,9.315420873E-3
6.881356823E0,-1.710372418E-2,-1.649287529E-2,1.298050396E-2
6.891071042E0,-1.832541823E-2,-1.160609815E-2,1.420219894E-2
6.900784532E0,-8.551862091E-3,-2.137965336E-2,1.420219894E-2
6.910497136E0,-0.000000000E0,-2.382304333E-2,9.315420873E-3
6.920210678E0,2.443389036E-3,6.108472589E-4,7.635590737E-4
6.929924896E0,-0.000000000E0,3.970507160E-2,-5.344913341E-3
6.939638386E0,1.221694518E-3,5.925218388E-2,-9.009997360E-3
6.949350990E0,8.551862091E-3,5.314370990E-2,-1.145338640E-2
6.959064532E0,1.221694518E-2,3.603998944E-2,-1.023169141E-2
6.968778750E0,1.343864016E-2,2.260134928E-2,-4.123218823E-3
6.978492240E0,9.773556143E-3,1.038440317E-2,3.206948051E-3
6.988204844E0,4.886778072E-3,-1.038440317E-2,9.315420873E-3
6.997918386E0,-0.000000000E0,-3.970507160E-2,1.298050396E-2
7.007632605E0,-6.108472589E-3,-6.413896382E-2,1.175880991E-2
7.017346094E0,-1.221694518E-2,-6.536065787E-2,6.872031838E-3
7.027058698E0,-1.588202827E-2,-4.214845970E-2,3.206948051E-3
7.036772240E0,-1.588202827E-2,-7.941014133E-3,-2.901524538E-3
7.046486459E0,-9.773556143E-3,1.893626526E-2,-6.566607859E-3
7.056199948E0,-2.443389036E-3,3.481829539E-2,-1.023169141E-2
7.065912553E0,6.108472589E-3,3.603998944E-2,-9.009997360E-3
7.075626094E0,1.221694518E-2,1.649287529E-2,-6.566607859E-3
7.085340313E0,1.221694518E-2,-5.497625098E-3,-5.344913341E-3
7.095053803E0,3.665083554E-3,-9.162709117E-3,-1.679830020E-3
7.104766407E0,-4.886778072E-3,3.054236295E-3,3.206948051E-3
7.114479948E0,-6.108472589E-3,7.941014133E-3,6.872031838E-3
7.124194167E0,-2.443389036E-3,-6.719320081E-3,8.093725890E-3
7.133907657E0,2.443389036E-3,-2.870982140E-2,5.650337320E-3
7.143620261E0,6.108472589E-3,-3.848337755E-2,3.206948051E-3
7.153333750E0,6.108472589E-3,-2.870982140E-2,7.635590737E-4
7.163048021E0,6.108472589E-3,-1.649287529E-2,-1.679830020E-3
7.172761511E0,7.330167107E-3,-1.160609815E-2,-2.901524538E-3
7.182474115E0,7.330167107E-3,-6.719320081E-3,-1.679830020E-3
7.192187605E0,3.665083554E-3,1.832541777E-3,-4.581354442E-4
7.201901875E0,-1.221694518E-3,2.015795931E-2,3.206948051E-3
7.211615365E0,-3.665083554E-3,4.214845970E-2,4.428642802E-3
7.221327969E0,-0.000000000E0,4.459185153E-2,3.206948051E-3
7.231041459E0,8.551862091E-3,2.015795931E-2,7.635590737E-4
7.240755730E0,1.588202827E-2,-1.160609815E-2,-1.679830020E-3
7.250469115E0,1.832541823E-2,-2.993151546E-2,-4.123218823E-3
7.260181823E0,1.343864016E-2,-2.993151546E-2,-4.123218823E-3
7.269895313E0,3.665083554E-3,-1.527118124E-2,-1.679830020E-3
7.279609584E0,-6.108472589E-3,-6.108472589E-4,1.985253533E-3
7.289322969E0,-1.221694518E-2,3.054236295E-3,1.985253533E-3
7.299035678E0,-1.099525020E-2,-7.941014133E-3,3.206948051E-3
7.308749167E0,-7.330167107E-3,-1.771457121E-2,4.428642802E-3
7.318463438E0,-2.443389036E-3,-1.404948719E-2,3.206948051E-3
7.328176823E0,-0.000000000E0,-5.497625098E-3,1.985253533E-3
7.337889480E0,-0.000000000E0,1.832541777E-3,7.635590737E-4
7.347603021E0,-3.665083554E-3,7.941014133E-3,7.635590737E-4
7.357317292E0,-7.330167107E-3,2.015795931E-2,-4.581354442E-4
7.367030678E0,-9.773556143E-3,2.504473738E-2,-1.679830020E-3
7.376743334E0,-4.886778072E-3,1.160609815E-2,-2.901524538E-3
7.386456875E0,3.665083554E-3,-1.038440317E-2,-4.123218823E-3
7.396171094E0,9.773556143E-3,-2.626643144E-2,-2.901524538E-3
7.405884584E0,1.099525020E-2,-3.115320951E-2,7.635590737E-4
7.415597188E0,7.330167107E-3,-3.481829539E-2,7.635590737E-4
7.425310730E0,1.221694518E-3,-3.603998944E-2,-1.679830020E-3
7.435024948E0,-4.886778072E-3,-2.870982140E-2,-1.679830020E-3
7.444738438E0,-9.773556143E-3,-1.160609815E-2,-2.901524538E-3
7.454451042E0,-8.551862091E-3,-6.108472589E-4,-4.581354442E-4
7.464164584E0,-3.665083554E-3,3.054236295E-3,-4.581354442E-4
7.473878803E0,1.221694518E-3,5.497625098E-3,-1.679830020E-3
7.483592292E0,3.665083554E-3,3.054236295E-3,-1.679830020E-3
7.493304896E0,1.221694518E-3,-5.497625098E-3,-4.123218823E-3
7.503018386E0,-3.665083554E-3,-1.038440317E-2,-5.344913341E-3
7.512732657E0,-9.773556143E-3,-4.275931045E-3,-6.566607859E-3
7.522446146E0,-1.221694518E-2,1.160609815E-2,-7.788302377E-3
7.532158750E0,-1.221694518E-2,2.260134928E-2,-7.788302377E-3
7.541872240E0,-6.108472589E-3,1.527118124E-2,-7.788302377E-3
7.551586511E0,-0.000000000E0,-1.282779220E-2,-5.344913341E-3
7.561299896E0,-0.000000000E0,-2.870982140E-2,-4.123218823E-3
7.571012605E0,-4.886778072E-3,-2.015795931E-2,-4.123218823E-3
7.580726094E0,-8.551862091E-3,-4.275931045E-3,-4.123218823E-3
7.590440365E0,-9.773556143E-3,9.162709117E-3,-4.123218823E-3
7.600153750E0,-9.773556143E-3,1.771457121E-2,-4.123218823E-3
7.609866407E0,-7.330167107E-3,1.527118124E-2,-1.679830020E-3
7.619579948E0,-2.443389036E-3,6.108472589E-4,3.206948051E-3
7.629294167E0,-0.000000000E0,-2.015795931E-2,4.428642802E-3
7.639007657E0,-0.000000000E0,-3.115320951E-2,1.985253533E-3
7.648720261E0,-0.000000000E0,-2.504473738E-2,-4.581354442E-4
7.658433803E0,1.221694518E-3,-1.282779220E-2,7.635590737E-4
7.668148021E0,7.330167107E-3,-6.719320081E-3,3.206948051E-3
7.677861511E0,1.343864016E-2,-1.527118124E-2,5.650337320E-3
7.687574115E0,1.343864016E-2,-2.504473738E-2,8.093725890E-3
7.697287605E0,4.886778072E-3,-2.260134928E-2,9.315420873E-3
7.707001875E0,-9.773556143E-3,-6.719320081E-3,8.093725890E-3
7.716715261E0,-2.443389036E-2,1.771457121E-2,5.650337320E-3
7.726427969E0,-3.542914242E-2,4.459185153E-2,3.206948051E-3
7.736141459E0,-3.787253052E-2,5.803048983E-2,-4.581354442E-4
7.745855730E0,-3.176405653E-2,5.436540768E-2,-4.123218823E-3
7.755569115E0,-2.565558441E-2,4.092676565E-2,-7.788302377E-3
7.765281771E0,-1.954711229E-2,2.382304333E-2,-1.023169141E-2
7.774995313E0,-1.466033421E-2,4.275931045E-3,-1.267508045E-2
7.784709532E0,-1.099525020E-2,-5.497625098E-3,-1.145338640E-2
7.794423021E0,-8.551862091E-3,-6.719320081E-3,-9.009997360E-3
7.804135625E0,-2.443389036E-3,-4.275931045E-3,-5.344913341E-3
7.813849167E0,4.886778072E-3,-1.527118124E-2,-4.581354442E-4
7.823563386E0,1.099525020E-2,-4.214845970E-2,1.985253533E-3
7.833276875E0,1.099525020E-2,-6.536065787E-2,4.428642802E-3
7.842989480E0,4.886778072E-3,-7.146912813E-2,7.635590737E-4
7.852702969E0,-4.886778072E-3,-6.413896382E-2,-1.679830020E-3
7.862417240E0,-1.099525020E-2,-4.459185153E-2,-5.344913341E-3
7.872130625E0,-1.343864016E-2,-1.527118124E-2,-7.788302377E-3
7.881843334E0,-1.221694518E-2,1.771457121E-2,-1.023169141E-2
7.891556823E0,-7.330167107E-3,3.237490356E-2,-9.009997360E-3
7.901271094E0,-0.000000000E0,2.382304333E-2,-9.009997360E-3
7.910984480E0,3.665083554E-3,4.275931045E-3,-6.566607859E-3
7.920697136E0,-3.665083554E-3,-7.941014133E-3,-1.679830020E-3
7.930410678E0,-1.588202827E-2,-9.162709117E-3,-4.581354442E-4
7.940124896E0,-2.076880634E-2,-1.649287529E-2,3.206948051E-3
7.949838386E0,-2.199050039E-2,-3.237490356E-2,4.428642802E-3
7.959550990E0,-2.565558441E-2,-4.337015375E-2,1.985253533E-3
7.969264480E0,-2.321219631E-2,-3.726168349E-2,-1.679830020E-3
7.978978750E0,-1.832541823E-2,-3.359659761E-2,-4.123218823E-3
7.988692136E0,-9.773556143E-3,-4.092676565E-2,-5.344913341E-3
7.998404844E0,-3.665083554E-3,-3.726168349E-2,-9.009997360E-3
8.008118334E0,-1.221694518E-3,-1.038440317E-2,-9.009997360E-3
8.017832605E0,1.221694518E-3,2.015795931E-2,-5.344913341E-3
8.027545990E0,9.773556143E-3,2.748812735E-2,-4.581354442E-4
8.037258646E0,1.954711229E-2,5.497625098E-3,5.650337320E-3
8.046972188E0,2.076880634E-2,-2.504473738E-2,9.315420873E-3
8.056686407E0,1.221694518E-2,-4.581354558E-2,9.315420873E-3
8.066399896E0,-0.000000000E0,-4.825693369E-2,8.093725890E-3
8.076112500E0,-1.221694518E-2,-3.848337755E-2,6.872031838E-3
8.085825990E0,-1.832541823E-2,-2.015795931E-2,4.428642802E-3
8.095540261E0,-1.588202827E-2,7.941014133E-3,-1.679830020E-3
8.105253750E0,-9.773556143E-3,4.092676565E-2,-6.566607859E-3
8.114966355E0,1.221694518E-3,6.291726977E-2,-1.023169141E-2
8.124679844E0,1.343864016E-2,6.169557199E-2,-1.145338640E-2
8.134394115E0,2.199050039E-2,4.337015375E-2,-1.267508045E-2
8.144107500E0,2.321219631E-2,1.893626526E-2,-1.145338640E-2
8.153820209E0,1.588202827E-2,3.054236295E-3,-1.023169141E-2
8.163533698E0,3.665083554E-3,-7.941014133E-3,-7.788302377E-3
8.173247969E0,-4.886778072E-3,-2.137965336E-2,-2.901524538E-3
8.182961355E0,-1.099525020E-2,-3.359659761E-2,7.635590737E-4
8.192674011E0,-1.343864016E-2,-4.337015375E-2,3.206948051E-3
8.202387553E0,-1.588202827E-2,-3.970507160E-2,3.206948051E-3
8.212101771E0,-1.588202827E-2,-1.527118124E-2,7.635590737E-4
8.221815261E0,-1.588202827E-2,1.893626526E-2,-2.901524538E-3
8.231527865E0,-7.330167107E-3,3.359659761E-2,-5.344913341E-3
8.241241355E0,3.665083554E-3,2.626643144E-2,-6.566607859E-3
8.250955625E0,7.330167107E-3,2.137965336E-2,-5.344913341E-3
8.260669011E0,2.443389036E-3,2.748812735E-2,-6.566607859E-3
8.270381719E0,-3.665083554E-3,2.504473738E-2,-5.344913341E-3
8.280095209E0,-4.886778072E-3,6.719320081E-3,-4.123218823E-3
8.289809480E0,-7.330167107E-3,-1.038440317E-2,-2.901524538E-3
8.299522865E0,-8.551862091E-3,-1.160609815E-2,-4.123218823E-3
8.309235573E0,-4.886778072E-3,-1.832541777E-3,-5.344913341E-3
8.318949063E0,1.221694518E-3,4.275931045E-3,-5.344913341E-3
8.328663334E0,1.099525020E-2,-6.108472589E-4,-7.788302377E-3
8.338376719E0,1.710372418E-2,-1.038440317E-2,-7.788302377E-3
8.348089375E0,1.832541823E-2,-1.404948719E-2,-4.123218823E-3
8.357802917E0,1.221694518E-2,-6.719320081E-3,-4.581354442E-4
8.367517136E0,7.330167107E-3,1.038440317E-2,-4.581354442E-4
8.377230625E0,4.886778072E-3,1.771457121E-2,3.206948051E-3
8.386943230E0,8.551862091E-3,6.719320081E-3,3.206948051E-3
8.396656771E0,1.343864016E-2,-9.162709117E-3,4.428642802E-3
8.406370990E0,1.221694518E-2,-1.649287529E-2,4.428642802E-3
8.416084480E0,8.551862091E-3,-1.404948719E-2,3.206948051E-3
8.425797084E0,3.665083554E-3,-1.649287529E-2,7.635590737E-4
8.435510625E0,2.443389036E-3,-2.260134928E-2,-4.581354442E-4
8.445224844E0,6.108472589E-3,-2.137965336E-2,7.635590737E-4
8.454938334E0,7.330167107E-3,-1.893626526E-2,1.985253533E-3
8.464650938E0,1.099525020E-2,-2.382304333E-2,3.206948051E-3
8.474364428E0,9.773556143E-3,-3.115320951E-2,3.206948051E-3
8.484078698E0,1.221694518E-3,-2.993151546E-2,3.206948051E-3
8.493792188E0,-9.773556143E-3,-2.015795931E-2,1.985253533E-3
8.503504792E0,-1.954711229E-2,-9.162709117E-3,-4.581354442E-4
8.513218282E0,-2.932066843E-2,4.275931045E-3,-4.123218823E-3
8.522932553E0,-2.932066843E-2,2.382304333E-2,-7.788302377E-3
8.532646042E0,-1.954711229E-2,3.359659761E-2,-1.023169141E-2
8.542358646E0,-1.221694518E-3,2.626643144E-2,-1.267508045E-2
8.552072136E0,1.466033421E-2,1.160609815E-2,-1.023169141E-2
8.561786407E0,2.199050039E-2,1.832541777E-3,-5.344913341E-3
8.571499896E0,1.954711229E-2,-3.054236295E-3,7.635590737E-4
8.581212500E0,1.221694518E-2,-1.404948719E-2,9.315420873E-3
8.590925990E0,4.886778072E-3,-2.870982140E-2,1.664558798E-2
8.600640261E0,-4.886778072E-3,-3.603998944E-2,1.908897609E-2
8.610353750E0,-9.773556143E-3,-2.626643144E-2,1.542389300E-2
8.620066355E0,-6.108472589E-3,-7.941014133E-3,1.175880991E-2
8.629779844E0,6.108472589E-3,5.497625098E-3,5.650337320E-3
8.639494115E0,1.954711229E-2,2.015795931E-2,-4.581354442E-4
8.649207605E0,2.809897438E-2,4.092676565E-2,-5.344913341E-3
8.658920209E0,3.054236248E-2,5.314370990E-2,-6.566607859E-3
8.668633750E0,2.687728032E-2,4.581354558E-2,-4.123218823E-3
8.678347969E0,1.832541823E-2,2.748812735E-2,7.635590737E-4
8.688061459E0,3.665083554E-3,1.404948719E-2,1.985253533E-3
8.697774063E0,-7.330167107E-3,1.282779220E-2,4.428642802E-3
8.707487605E0,-1.221694518E-2,1.404948719E-2,8.093725890E-3
8.717201823E0,-8.551862091E-3,7.941014133E-3,8.093725890E-3
8.726915313E0,-0.000000000E0,6.108472589E-4,5.650337320E-3
8.736627917E0,7.330167107E-3,-6.108472589E-4,4.428642802E-3
8.746341459E0,1.343864016E-2,3.054236295E-3,4.428642802E-3
8.756055678E0,1.588202827E-2,4.275931045E-3,4.428642802E-3
8.765769167E0,1.099525020E-2,4.275931045E-3,5.650337320E-3
8.775481771E0,2.443389036E-3,1.832541777E-3,6.872031838E-3
8.785195313E0,-7.330167107E-3,-4.275931045E-3,8.093725890E-3
8.794909584E0,-1.588202827E-2,-1.160609815E-2,9.315420873E-3
8.804622969E0,-2.199050039E-2,-1.160609815E-2,6.872031838E-3
8.814335678E0,-2.565558441E-2,-4.275931045E-3,4.428642802E-3
8.824049167E0,-2.321219631E-2,7.941014133E-3,7.635590737E-4
8.833763438E0,-1.466033421E-2,2.382304333E-2,-2.901524538E-3
8.843476823E0,-2.443389036E-3,3.115320951E-2,-6.566607859E-3
8.853189532E0,1.221694518E-2,2.382304333E-2,-5.344913341E-3
8.862903021E0,2.443389036E-2,6.108472589E-4,-1.679830020E-3
8.872617292E0,2.809897438E-2,-2.015795931E-2,1.985253533E-3
8.882330782E0,1.954711229E-2,-2.993151546E-2,4.428642802E-3
8.892043386E0,9.773556143E-3,-3.726168349E-2,8.093725890E-3
8.901756928E0,1.221694518E-3,-4.947862774E-2,1.175880991E-2
8.911471146E0,-1.221694518E-3,-5.314370990E-2,1.053711493E-2
8.921184636E0,-3.665083554E-3,-3.726168349E-2,5.650337320E-3
8.930897240E0,-1.221694518E-3,-1.038440317E-2,1.985253533E-3
8.940610782E0,4.886778072E-3,1.160609815E-2,7.635590737E-4
8.950325000E0,1.099525020E-2,2.137965336E-2,-1.679830020E-3
8.960038490E0,9.773556143E-3,3.115320951E-2,-2.901524538E-3
8.969751146E0,7.330167107E-3,3.848337755E-2,-1.679830020E-3
8.979464636E0,2.443389036E-3,3.237490356E-2,7.635590737E-4
8.989178907E0,1.221694518E-3,1.038440317E-2,4.428642802E-3
8.998892292E0,-1.221694518E-3,-6.719320081E-3,6.872031838E-3
9.008605000E0,-7.330167107E-3,-5.497625098E-3,6.872031838E-3
9.018318490E0,-8.551862091E-3,-6.108472589E-4,6.872031838E-3
9.028032761E0,-4.886778072E-3,-4.275931045E-3,5.650337320E-3
9.037746250E0,1.221694518E-3,-1.404948719E-2,1.985253533E-3
9.047458855E0,7.330167107E-3,-2.260134928E-2,7.635590737E-4
9.057172396E0,1.099525020E-2,-2.870982140E-2,-1.679830020E-3
9.066886667E0,1.221694518E-2,-3.115320951E-2,-4.581354442E-4
9.076600053E0,9.773556143E-3,-2.504473738E-2,-4.581354442E-4
9.086312761E0,3.665083554E-3,-1.282779220E-2,1.985253533E-3
9.096026250E0,-4.886778072E-3,-6.108472589E-4,5.650337320E-3
9.105740521E0,-1.099525020E-2,6.719320081E-3,5.650337320E-3
9.115454011E0,-1.221694518E-2,4.275931045E-3,4.428642802E-3
9.125166615E0,-1.099525020E-2,1.832541777E-3,3.206948051E-3
9.134880157E0,-7.330167107E-3,1.038440317E-2,-4.581354442E-4
9.144594375E0,-0.000000000E0,2.626643144E-2,-4.581354442E-4
9.154307865E0,7.330167107E-3,3.359659761E-2,7.635590737E-4
9.164020469E0,1.466033421E-2,2.137965336E-2,3.206948051E-3
9.173734011E0,1.588202827E-2,-3.054236295E-3,4.428642802E-3
9.183448282E0,1.099525020E-2,-3.359659761E-2,3.206948051E-3
9.193161667E0,1.221694518E-3,-5.680879578E-2,1.985253533E-3
9.202874375E0,-8.551862091E-3,-6.169557199E-2,1.985253533E-3
9.212587917E0,-1.466033421E-2,-4.703523964E-2,7.635590737E-4
9.222302136E0,-1.588202827E-2,-1.893626526E-2,-1.679830020E-3
9.232015625E0,-1.099525020E-2,1.527118124E-2,-4.581354442E-4
9.241728230E0,-3.665083554E-3,3.848337755E-2,7.635590737E-4
9.251441771E0,3.665083554E-3,4.459185153E-2,3.206948051E-3
9.261156042E0,7.330167107E-3,3.726168349E-2,5.650337320E-3
9.270869428E0,4.886778072E-3,2.626643144E-2,6.872031838E-3
9.280582136E0,1.221694518E-3,1.527118124E-2,8.093725890E-3
9.290295678E0,-1.221694518E-3,5.497625098E-3,8.093725890E-3
9.300009896E0,-0.000000000E0,-3.054236295E-3,6.872031838E-3
9.309723386E0,4.886778072E-3,-9.162709117E-3,4.428642802E-3
9.319436042E0,9.773556143E-3,-4.275931045E-3,1.985253533E-3
9.329149532E0,1.466033421E-2,4.275931045E-3,7.635590737E-4
9.338863803E0,2.076880634E-2,4.275931045E-3,7.635590737E-4
9.348577292E0,2.199050039E-2,-3.054236295E-3,1.985253533E-3
9.358289896E0,1.710372418E-2,-4.275931045E-3,4.428642802E-3
9.368003438E0,6.108472589E-3,4.275931045E-3,6.872031838E-3
9.377717709E0,-2.443389036E-3,1.404948719E-2,8.093725890E-3
9.387431094E0,-7.330167107E-3,2.260134928E-2,9.315420873E-3
9.397143803E0,-7.330167107E-3,2.382304333E-2,8.093725890E-3
9.406857292E0,-2.443389036E-3,2.382304333E-2,5.650337320E-3
9.416571563E0,4.886778072E-3,1.649287529E-2,1.985253533E-3
9.426285053E0,1.099525020E-2,4.275931045E-3,-1.679830020E-3
9.435997657E0,1.343864016E-2,-6.719320081E-3,-2.901524538E-3
9.445711198E0,1.343864016E-2,-1.038440317E-2,-2.901524538E-3
9.455425469E0,9.773556143E-3,-3.054236295E-3,-4.581354442E-4
9.465138959E0,4.886778072E-3,6.719320081E-3,3.206948051E-3
9.474851563E0,1.221694518E-3,7.941014133E-3,5.650337320E-3
9.484565105E0,-0.000000000E0,-6.108472589E-4,8.093725890E-3
9.494279323E0,-2.443389036E-3,-7.941014133E-3,8.093725890E-3
9.503992813E0,-3.665083554E-3,-5.497625098E-3,8.093725890E-3
9.513705469E0,-2.443389036E-3,4.275931045E-3,5.650337320E-3
9.523418959E0,-0.000000000E0,1.282779220E-2,5.650337320E-3
9.533133230E0,3.665083554E-3,2.137965336E-2,3.206948051E-3
9.542846719E0,7.330167107E-3,3.237490356E-2,7.635590737E-4
9.552559375E0,1.221694518E-2,3.115320951E-2,7.635590737E-4
9.562272865E0,1.832541823E-2,1.771457121E-2,7.635590737E-4
9.571987136E0,2.199050039E-2,-1.832541777E-3,7.635590737E-4
9.581700625E0,1.954711229E-2,-1.282779220E-2,7.635590737E-4
9.591413230E0,1.466033421E-2,-1.527118124E-2,3.206948051E-3
9.601126771E0,9.773556143E-3,-1.282779220E-2,3.206948051E-3
9.610841042E0,6.108472589E-3,-6.719320081E-3,4.428642802E-3
9.620554428E0,4.886778072E-3,-6.108472589E-4,6.872031838E-3
9.630267136E0,3.665083554E-3,5.497625098E-3,8.093725890E-3
9.639980678E0,2.443389036E-3,1.038440317E-2,6.872031838E-3
9.649694948E0,4.886778072E-3,1.649287529E-2,4.428642802E-3
9.659408334E0,6.108472589E-3,2.260134928E-2,3.206948051E-3
9.669121042E0,6.108472589E-3,3.115320951E-2,1.985253533E-3
9.678834584E0,8.551862091E-3,3.481829539E-2,3.206948051E-3
9.688548855E0,9.773556143E-3,2.748812735E-2,3.206948051E-3
9.698262240E0,8.551862091E-3,1.527118124E-2,1.985253533E-3
9.707974948E0,6.108472589E-3,4.275931045E-3,3.206948051E-3
9.717688438E0,1.221694518E-3,-4.275931045E-3,3.206948051E-3
9.727402709E0,-1.221694518E-3,-1.404948719E-2,1.985253533E-3
9.737116198E0,-2.443389036E-3,-1.527118124E-2,1.985253533E-3
9.746828855E0,-3.665083554E-3,-3.054236295E-3,3.206948051E-3
9.756542396E0,-2.443389036E-3,1.282779220E-2,7.635590737E-4
9.766256615E0,2.443389036E-3,1.649287529E-2,7.635590737E-4
9.775970105E0,8.551862091E-3,6.108472589E-4,7.635590737E-4
9.785682761E0,1.099525020E-2,-2.260134928E-2,7.635590737E-4
9.795396250E0,8.551862091E-3,-2.626643144E-2,7.635590737E-4
9.805110521E0,1.221694518E-3,-6.719320081E-3,1.985253533E-3
9.814824011E0,-3.665083554E-3,1.404948719E-2,4.428642802E-3
9.824536667E0,-3.665083554E-3,1.649287529E-2,6.872031838E-3
9.834250157E0,-1.221694518E-3,7.941014133E-3,9.315420873E-3
9.843964428E0,-1.221694518E-3,6.108472589E-4,6.872031838E-3
9.853677917E0,-2.443389036E-3,-6.108472589E-4,4.428642802E-3
9.863390573E0,-1.221694518E-3,4.275931045E-3,7.635590737E-4
9.873104063E0,1.221694518E-3,-1.832541777E-3,-2.901524538E-3
9.882818334E0,4.886778072E-3,-1.160609815E-2,-1.679830020E-3
9.892531823E0,4.886778072E-3,-1.527118124E-2,-2.901524538E-3
9.902244480E0,1.221694518E-3,-1.282779220E-2,-1.679830020E-3
9.911957969E0,-3.665083554E-3,-6.719320081E-3,-4.581354442E-4
9.921672240E0,-7.330167107E-3,-6.719320081E-3,7.635590737E-4
9.931385730E0,-8.551862091E-3,-7.941014133E-3,3.206948051E-3
9.941098386E0,-4.886778072E-3,-6.719320081E-3,4.428642802E-3
9.950811875E0,-0.000000000E0,-4.275931045E-3,6.872031838E-3
9.960526146E0,3.665083554E-3,-6.108472589E-4,4.428642802E-3
9.970239636E0,4.886778072E-3,6.108472589E-4,1.985253533E-3
9.979952292E0,4.886778072E-3,-1.832541777E-3,-4.581354442E-4
9.989665782E0,4.886778072E-3,6.108472589E-4,-4.123218823E-3
9.999380053E0,4.886778072E-3,9.162709117E-3,-5.344913341E-3
1.000909354E1,4.886778072E-3,1.404948719E-2,-1.679830020E-3
1.001880620E1,8.551862091E-3,9.162709117E-3,7.635590737E-4
1.002851969E1,9.773556143E-3,-5.497625098E-3,4.428642802E-3
1.003823396E1,8.551862091E-3,-1.527118124E-2,5.650337320E-3
1.004794745E1,2.443389036E-3,-1.038440317E-2,8.093725890E-3
1.005766010E1,-7.330167107E-3,6.108472589E-4,8.093725890E-3
1.006737365E1,-1.221694518E-2,4.275931045E-3,5.650337320E-3
1.007708787E1,-1.343864016E-2,1.832541777E-3,7.635590737E-4
1.008680136E1,-9.773556143E-3,6.108472589E-4,-4.123218823E-3
1.009651401E1,-3.665083554E-3,6.719320081E-3,-6.566607859E-3
1.010622755E1,3.665083554E-3,6.719320081E-3,-6.566607859E-3
1.011594182E1,1.099525020E-2,-1.832541777E-3,-5.344913341E-3
1.012565521E1,1.221694518E-2,-9.162709117E-3,-2.901524538E-3
1.013536792E1,7.330167107E-3,-7.941014133E-3,1.985253533E-3
1.014508146E1,2.443389036E-3,-7.941014133E-3,3.206948051E-3
1.015479573E1,-3.665083554E-3,-1.404948719E-2,4.428642802E-3
1.016450922E1,-7.330167107E-3,-1.527118124E-2,4.428642802E-3
1.017422182E1,-8.551862091E-3,-5.497625098E-3,7.635590737E-4
1.018393536E1,-4.886778072E-3,9.162709117E-3,-4.581354442E-4
1.019364964E1,1.221694518E-3,1.649287529E-2,-1.679830020E-3
1.020336313E1,6.108472589E-3,1.160609815E-2,-2.901524538E-3
1.021307573E1,8.551862091E-3,-6.108472589E-4,-2.901524538E-3
1.022278927E1,4.886778072E-3,-1.160609815E-2,7.635590737E-4
1.023250354E1,-2.443389036E-3,-1.771457121E-2,4.428642802E-3
1.024221703E1,-1.221694518E-2,-1.404948719E-2,5.650337320E-3
1.025192964E1,-1.710372418E-2,-4.275931045E-3,4.428642802E-3
1.026164318E1,-1.466033421E-2,1.832541777E-3,3.206948051E-3
1.027135745E1,-6.108472589E-3,1.832541777E-3,-4.581354442E-4
1.028107094E1,4.886778072E-3,-1.832541777E-3,-4.123218823E-3
1.029078359E1,1.099525020E-2,-1.832541777E-3,-4.123218823E-3
1.030049714E1,1.343864016E-2,-6.108472589E-4,-4.123218823E-3
1.031021136E1,1.221694518E-2,-6.108472589E-4,-5.344913341E-3
1.031992484E1,8.551862091E-3,6.108472589E-4,-2.901524538E-3
1.032963750E1,6.108472589E-3,-6.108472589E-4,7.635590737E-4
1.033935104E1,3.665083554E-3,-6.108472589E-4,4.428642802E-3
1.034906531E1,2.443389036E-3,-3.054236295E-3,8.093725890E-3
1.035877870E1,-0.000000000E0,-7.941014133E-3,9.315420873E-3
1.036849141E1,-2.443389036E-3,-1.038440317E-2,9.315420873E-3
1.037820495E1,-3.665083554E-3,-6.719320081E-3,8.093725890E-3
1.038791922E1,-4.886778072E-3,-1.832541777E-3,5.650337320E-3
1.039763271E1,-4.886778072E-3,3.054236295E-3,3.206948051E-3
1.040734531E1,-1.221694518E-3,7.941014133E-3,-4.581354442E-4
1.041705886E1,1.221694518E-3,1.282779220E-2,-2.901524538E-3
1.042677312E1,6.108472589E-3,1.404948719E-2,-2.901524538E-3
1.043648662E1,1.099525020E-2,4.275931045E-3,-4.123218823E-3
1.044619922E1,1.466033421E-2,-1.038440317E-2,-2.901524538E-3
1.045591276E1,1.343864016E-2,-1.771457121E-2,-4.581354442E-4
1.046562703E1,8.551862091E-3,-1.527118124E-2,7.635590737E-4
1.047534052E1,2.443389036E-3,-7.941014133E-3,1.985253533E-3
1.048505312E1,-1.221694518E-3,-5.497625098E-3,5.650337320E-3
1.049476667E1,-2.443389036E-3,-1.282779220E-2,8.093725890E-3
1.050448094E1,-2.443389036E-3,-1.160609815E-2,5.650337320E-3
1.051419443E1,-2.443389036E-3,4.275931045E-3,3.206948051E-3
1.052390708E1,-2.443389036E-3,2.870982140E-2,7.635590737E-4
1.053362057E1,2.443389036E-3,4.337015375E-2,-4.581354442E-4
1.054333484E1,9.773556143E-3,4.092676565E-2,-2.901524538E-3
1.055304833E1,1.466033421E-2,2.748812735E-2,-4.123218823E-3
1.056276099E1,1.710372418E-2,1.038440317E-2,-4.123218823E-3
1.057247453E1,1.466033421E-2,-1.832541777E-3,-4.123218823E-3
1.058218880E1,9.773556143E-3,-9.162709117E-3,-1.679830020E-3
1.059190219E1,4.886778072E-3,-2.015795931E-2,7.635590737E-4
1.060161490E1,1.221694518E-3,-2.504473738E-2,1.985253533E-3
1.061132844E1,-0.000000000E0,-2.015795931E-2,3.206948051E-3
1.062104271E1,-1.221694518E-3,-1.404948719E-2,1.985253533E-3
1.063075620E1,1.221694518E-3,-7.941014133E-3,-4.581354442E-4
1.064046880E1,6.108472589E-3,-7.941014133E-3,-1.679830020E-3
1.065018234E1,1.099525020E-2,-6.719320081E-3,-1.679830020E-3
1.065989662E1,1.221694518E-2,1.832541777E-3,7.635590737E-4
1.066961010E1,9.773556143E-3,1.893626526E-2,1.985253533E-3
1.067932271E1,8.551862091E-3,2.993151546E-2,3.206948051E-3
1.068903625E1,7.330167107E-3,1.771457121E-2,5.650337320E-3
1.069875052E1,6.108472589E-3,-5.497625098E-3,5.650337320E-3
1.070846401E1,-0.000000000E0,-1.527118124E-2,5.650337320E-3
1.071817662E1,-8.551862091E-3,-7.941014133E-3,3.206948051E-3
1.072789016E1,-9.773556143E-3,-6.719320081E-3,1.985253533E-3
1.073760443E1,-3.665083554E-3,-2.260134928E-2,-4.581354442E-4
1.074731792E1,4.886778072E-3,-4.337015375E-2,-4.581354442E-4
1.075703052E1,4.886778072E-3,-4.337015375E-2,-1.679830020E-3
1.076674406E1,-0.000000000E0,-2.260134928E-2,-1.679830020E-3
1.077645833E1,-4.886778072E-3,-4.275931045E-3,7.635590737E-4
1.078617182E1,-6.108472589E-3,-1.832541777E-3,-4.581354442E-4
1.079588448E1,-3.665083554E-3,-3.054236295E-3,-4.581354442E-4
1.080559797E1,-0.000000000E0,3.054236295E-3,-2.901524538E-3
1.081531224E1,3.665083554E-3,1.527118124E-2,-2.901524538E-3
1.082502573E1,8.551862091E-3,2.626643144E-2,-4.581354442E-4
1.083473839E1,1.221694518E-2,2.260134928E-2,-4.581354442E-4
1.084445193E1,1.343864016E-2,9.162709117E-3,1.985253533E-3
1.085416620E1,9.773556143E-3,-5.497625098E-3,3.206948051E-3
1.086387958E1,7.330167107E-3,-1.404948719E-2,5.650337320E-3
1.087359229E1,3.665083554E-3,-1.771457121E-2,8.093725890E-3
1.088330583E1,2.443389036E-3,-1.893626526E-2,8.093725890E-3
1.089302011E1,2.443389036E-3,-1.649287529E-2,9.315420873E-3
1.090273349E1,2.443389036E-3,-9.162709117E-3,8.093725890E-3
1.091244620E1,1.221694518E-3,5.497625098E-3,3.206948051E-3
1.092215974E1,-0.000000000E0,2.382304333E-2,-4.581354442E-4
1.093187401E1,1.221694518E-3,3.970507160E-2,-4.123218823E-3
1.094158750E1,6.108472589E-3,4.581354558E-2,-5.344913341E-3
1.095130011E1,1.343864016E-2,3.359659761E-2,-5.344913341E-3
1.096101365E1,2.199050039E-2,4.275931045E-3,-4.123218823E-3
1.097072792E1,2.321219631E-2,-2.626643144E-2,-4.581354442E-4
1.098044141E1,1.954711229E-2,-4.703523964E-2,7.635590737E-4
1.099015401E1,1.343864016E-2,-5.925218388E-2,5.650337320E-3
1.099986755E1,4.886778072E-3,-6.169557199E-2,6.872031838E-3
1.100958182E1,-1.221694518E-3,-4.581354558E-2,6.872031838E-3
1.101929531E1,-6.108472589E-3,-1.038440317E-2,5.650337320E-3
1.102900792E1,-4.886778072E-3,2.137965336E-2,1.985253533E-3
1.103872146E1,-0.000000000E0,3.603998944E-2,-1.679830020E-3
1.104843573E1,4.886778072E-3,4.214845970E-2,-4.123218823E-3
1.105814922E1,7.330167107E-3,4.092676565E-2,-6.566607859E-3
1.106786182E1,4.886778072E-3,3.603998944E-2,-6.566607859E-3
1.107757537E1,1.221694518E-3,2.382304333E-2,-2.901524538E-3
1.108728964E1,-4.886778072E-3,4.275931045E-3,7.635590737E-4
1.109700312E1,-9.773556143E-3,-9.162709117E-3,7.635590737E-4
1.110671573E1,-1.343864016E-2,-1.771457121E-2,4.428642802E-3
1.111642927E1,-1.221694518E-2,-2.382304333E-2,5.650337320E-3
1.112614354E1,-8.551862091E-3,-2.993151546E-2,3.206948051E-3
1.113585703E1,-3.665083554E-3,-3.848337755E-2,7.635590737E-4
1.114556969E1,-0.000000000E0,-4.459185153E-2,-1.679830020E-3
1.115528318E1,-1.221694518E-3,-3.603998944E-2,-4.123218823E-3
1.116499745E1,-7.330167107E-3,-9.162709117E-3,-4.123218823E-3
1.117471094E1,-1.221694518E-2,2.137965336E-2,-1.679830020E-3
1.118442359E1,-1.221694518E-2,3.237490356E-2,7.635590737E-4
1.119413708E1,-9.773556143E-3,2.137965336E-2,4.428642802E-3
1.120385136E1,-6.108472589E-3,7.941014133E-3,4.428642802E-3
1.121356484E1,-3.665083554E-3,3.054236295E-3,4.428642802E-3
1.122327750E1,-0.000000000E0,-1.832541777E-3,3.206948051E-3
1.123299099E1,4.886778072E-3,-1.893626526E-2,1.985253533E-3
1.124270526E1,1.099525020E-2,-3.115320951E-2,7.635590737E-4
1.125241875E1,9.773556143E-3,-3.115320951E-2,-2.901524538E-3
1.126213136E1,6.108472589E-3,-2.015795931E-2,-4.123218823E-3
1.127184490E1,2.443389036E-3,-3.054236295E-3,-4.123218823E-3
1.128155917E1,-1.221694518E-3,7.941014133E-3,-2.901524538E-3
1.129127266E1,-2.443389036E-3,9.162709117E-3,-1.679830020E-3
1.130098531E1,-3.665083554E-3,7.941014133E-3,-4.581354442E-4
1.131069880E1,-6.108472589E-3,1.038440317E-2,-4.581354442E-4
1.132041307E1,-8.551862091E-3,1.160609815E-2,1.985253533E-3
1.133012656E1,-8.551862091E-3,9.162709117E-3,1.985253533E-3
1.133983917E1,-7.330167107E-3,4.275931045E-3,7.635590737E-4
1.134955271E1,-6.108472589E-3,1.832541777E-3,1.985253533E-3
1.135926698E1,-2.443389036E-3,4.275931045E-3,7.635590737E-4
1.136898047E1,2.443389036E-3,1.038440317E-2,3.206948051E-3
1.137869307E1,8.551862091E-3,7.941014133E-3,4.428642802E-3
1.138840662E1,1.099525020E-2,6.108472589E-4,4.428642802E-3
1.139812089E1,1.099525020E-2,-3.054236295E-3,1.985253533E-3
1.140783438E1,6.108472589E-3,-4.275931045E-3,1.985253533E-3
1.141754698E1,2.443389036E-3,-1.832541777E-3,7.635590737E-4
1.142726052E1,-3.665083554E-3,6.719320081E-3,-1.679830020E-3
1.143697479E1,-7.330167107E-3,2.382304333E-2,-5.344913341E-3
1.144668828E1,-6.108472589E-3,3.359659761E-2,-6.566607859E-3
1.145640089E1,1.221694518E-3,2.626643144E-2,-6.566607859E-3
1.146611443E1,8.551862091E-3,6.719320081E-3,-4.123218823E-3
1.147582870E1,9.773556143E-3,-1.038440317E-2,-4.581354442E-4
1.148554219E1,6.108472589E-3,-1.893626526E-2,7.635590737E-4
1.149525479E1,-0.000000000E0,-2.137965336E-2,4.428642802E-3
1.150496833E1,-3.665083554E-3,-2.993151546E-2,9.315420873E-3
1.151468260E1,-4.886778072E-3,-3.848337755E-2,9.315420873E-3
1.152439609E1,-8.551862091E-3,-3.359659761E-2,6.872031838E-3
1.153410870E1,-9.773556143E-3,-1.527118124E-2,1.985253533E-3
1.154382224E1,-8.551862091E-3,7.941014133E-3,-2.901524538E-3
1.155353651E1,-3.665083554E-3,2.626643144E-2,-7.788302377E-3
1.156324990E1,3.665083554E-3,3.359659761E-2,-9.009997360E-3
1.157296260E1,7.330167107E-3,3.237490356E-2,-1.023169141E-2
1.158267615E1,7.330167107E-3,2.260134928E-2,-9.009997360E-3
1.159239042E1,2.443389036E-3,6.108472589E-4,-6.566607859E-3
1.160210380E1,-6.108472589E-3,-3.237490356E-2,-4.123218823E-3
1.161181651E1,-1.710372418E-2,-4.703523964E-2,-1.679830020E-3
1.162153005E1,-2.687728032E-2,-3.603998944E-2,7.635590737E-4
1.163124427E1,-3.054236248E-2,-1.404948719E-2,7.635590737E-4
1.164095776E1,-2.321219631E-2,6.108472589E-4,-4.581354442E-4
1.165067042E1,-8.551862091E-3,3.054236295E-3,-2.901524538E-3
1.166038391E1,3.665083554E-3,4.275931045E-3,-2.901524538E-3
1.167009818E1,9.773556143E-3,1.038440317E-2,-4.123218823E-3
1.167981167E1,8.551862091E-3,1.649287529E-2,-1.679830020E-3
1.168952432E1,6.108472589E-3,1.282779220E-2,7.635590737E-4
1.169923781E1,1.221694518E-3,3.054236295E-3,1.985253533E-3
1.170895208E1,-4.886778072E-3,-1.832541777E-3,7.635590737E-4
1.171866557E1,-1.099525020E-2,-4.275931045E-3,-1.679830020E-3
1.172837818E1,-1.099525020E-2,-7.941014133E-3,-2.901524538E-3
1.173809172E1,-9.773556143E-3,-4.275931045E-3,-6.566607859E-3
1.174780599E1,-4.886778072E-3,4.275931045E-3,-5.344913341E-3
1.175751938E1,-1.221694518E-3,1.160609815E-2,-5.344913341E-3
1.176723208E1,1.221694518E-3,1.282779220E-2,-1.679830020E-3
1.177694563E1,1.221694518E-3,4.275931045E-3,7.635590737E-4
1.178665990E1,-3.665083554E-3,-1.832541777E-3,7.635590737E-4
1.179637328E1,-1.099525020E-2,-1.832541777E-3,-4.581354442E-4
1.180608599E1,-1.588202827E-2,-1.832541777E-3,-1.679830020E-3
1.181579953E1,-1.588202827E-2,-6.719320081E-3,-4.123218823E-3
1.182551375E1,-1.221694518E-2,-5.497625098E-3,-6.566607859E-3
1.183522724E1,-7.330167107E-3,7.941014133E-3,-6.566607859E-3
1.184493990E1,-3.665083554E-3,2.748812735E-2,-4.123218823E-3
1.185465339E1,-0.000000000E0,3.848337755E-2,-2.901524538E-3
1.186436766E1,-0.000000000E0,2.870982140E-2,-4.581354442E-4
1.187408115E1,-2.443389036E-3,1.038440317E-2,7.635590737E-4
1.188379375E1,-9.773556143E-3,-1.832541777E-3,7.635590737E-4
1.189350729E1,-1.832541823E-2,-5.497625098E-3,-4.581354442E-4
1.190322156E1,-2.443389036E-2,3.054236295E-3,-2.901524538E-3
1.191293505E1,-2.565558441E-2,1.527118124E-2,-6.566607859E-3
1.192264766E1,-2.199050039E-2,2.504473738E-2,-1.145338640E-2
1.193236120E1,-1.221694518E-2,2.382304333E-2,-1.511846948E-2
1.194207547E1,1.221694518E-3,1.649287529E-2,-1.878355257E-2
1.195178886E1,1.466033421E-2,1.832541777E-3,-1.756185852E-2
1.196150156E1,2.199050039E-2,-9.162709117E-3,-9.009997360E-3
1.197121510E1,2.076880634E-2,-9.162709117E-3,-2.901524538E-3
1.198092932E1,1.099525020E-2,-1.832541777E-3,7.635590737E-4
1.199064281E1,3.665083554E-3,-1.832541777E-3,3.206948051E-3
1.200035547E1,-4.886778072E-3,-1.404948719E-2,4.428642802E-3
1.201006896E1,-1.099525020E-2,-1.893626526E-2,3.206948051E-3
1.201978323E1,-1.588202827E-2,-1.832541777E-3,3.206948051E-3
1.202949672E1,-1.588202827E-2,2.137965336E-2,3.206948051E-3
1.203920932E1,-7.330167107E-3,3.481829539E-2,3.206948051E-3
1.204892287E1,1.221694518E-3,3.726168349E-2,3.206948051E-3
1.205863714E1,6.108472589E-3,3.115320951E-2,4.428642802E-3
1.206835062E1,6.108472589E-3,2.015795931E-2,3.206948051E-3
1.207806323E1,-2.443389036E-3,9.162709117E-3,3.206948051E-3
1.208777677E1,-1.343864016E-2,4.275931045E-3,7.635590737E-4
1.209749099E1,-2.199050039E-2,6.108472589E-4,-4.581354442E-4
1.210720448E1,-2.443389036E-2,-7.941014133E-3,-4.123218823E-3
1.211691714E1,-2.443389036E-2,-1.649287529E-2,-6.566607859E-3
1.212663062E1,-2.443389036E-2,-1.649287529E-2,-9.009997360E-3
1.213634490E1,-2.076880634E-2,-9.162709117E-3,-9.009997360E-3
1.214605839E1,-1.466033421E-2,-9.162709117E-3,-6.566607859E-3
1.215577099E1,-4.886778072E-3,-1.404948719E-2,-4.123218823E-3
1.216548453E1,-1.221694518E-3,-1.649287529E-2,-4.581354442E-4
1.217519880E1,-2.443389036E-3,-1.527118124E-2,1.985253533E-3
1.218491219E1,-4.886778072E-3,-1.282779220E-2,1.985253533E-3
1.219462490E1,-8.551862091E-3,-4.275931045E-3,-4.581354442E-4
1.220433844E1,-1.221694518E-2,1.282779220E-2,-1.679830020E-3
1.221405266E1,-1.099525020E-2,3.481829539E-2,-5.344913341E-3
1.222376615E1,-3.665083554E-3,4.214845970E-2,-6.566607859E-3
1.223347880E1,7.330167107E-3,3.481829539E-2,-5.344913341E-3
1.224319229E1,1.588202827E-2,1.527118124E-2,-2.901524538E-3
1.225290656E1,1.954711229E-2,-3.054236295E-3,7.635590737E-4
1.226262005E1,1.466033421E-2,-2.137965336E-2,4.428642802E-3
1.227233266E1,6.108472589E-3,-3.970507160E-2,5.650337320E-3
1.228204620E1,-3.665083554E-3,-5.192201585E-2,5.650337320E-3
1.229176047E1,-1.099525020E-2,-4.947862774E-2,3.206948051E-3
1.230147386E1,-1.466033421E-2,-2.870982140E-2,7.635590737E-4
1.231118656E1,-1.343864016E-2,-6.108472589E-4,-4.123218823E-3
1.232090005E1,-8.551862091E-3,2.748812735E-2,-7.788302377E-3
1.233061432E1,-0.000000000E0,4.825693369E-2,-1.023169141E-2
1.234032781E1,7.330167107E-3,5.558710173E-2,-1.023169141E-2
1.235004042E1,1.099525020E-2,4.825693369E-2,-1.023169141E-2
1.235975396E1,8.551862091E-3,3.115320951E-2,-5.344913341E-3
1.236946823E1,1.221694518E-3,1.282779220E-2,-4.581354442E-4
1.237918162E1,-8.551862091E-3,-6.719320081E-3,1.985253533E-3
1.238889432E1,-1.588202827E-2,-2.382304333E-2,4.428642802E-3
1.239860786E1,-2.199050039E-2,-3.603998944E-2,5.650337320E-3
1.240832208E1,-2.443389036E-2,-3.726168349E-2,5.650337320E-3
1.241803557E1,-2.443389036E-2,-2.748812735E-2,4.428642802E-3
1.242774823E1,-2.199050039E-2,-5.497625098E-3,7.635590737E-4
1.243746172E1,-1.710372418E-2,2.137965336E-2,-2.901524538E-3
1.244717599E1,-1.099525020E-2,4.459185153E-2,-6.566607859E-3
1.245688948E1,-2.443389036E-3,5.192201585E-2,-9.009997360E-3
1.246660208E1,6.108472589E-3,4.214845970E-2,-9.009997360E-3
1.247631563E1,9.773556143E-3,2.504473738E-2,-7.788302377E-3
1.248602984E1,1.221694518E-2,9.162709117E-3,-5.344913341E-3
1.249574333E1,1.343864016E-2,-3.054236295E-3,7.635590737E-4
1.250545599E1,1.221694518E-2,-1.649287529E-2,5.650337320E-3
1.251516948E1,9.773556143E-3,-3.603998944E-2,1.175880991E-2
1.252488375E1,6.108472589E-3,-5.925218388E-2,1.664558798E-2
1.253459724E1,-3.665083554E-3,-6.169557199E-2,1.664558798E-2
1.254430984E1,-1.466033421E-2,-3.726168349E-2,1.053711493E-2
1.255402339E1,-1.710372418E-2,-1.404948719E-2,4.428642802E-3
1.256373760E1,-7.330167107E-3,-1.038440317E-2,-2.901524538E-3
1.257345109E1,4.886778072E-3,-6.719320081E-3,-1.023169141E-2
1.258316370E1,1.710372418E-2,1.038440317E-2,-1.267508045E-2
1.259287724E1,2.321219631E-2,2.870982140E-2,-1.023169141E-2
1.260259151E1,2.321219631E-2,2.748812735E-2,-7.788302377E-3
1.261230500E1,1.832541823E-2,7.941014133E-3,-1.679830020E-3
1.262201760E1,6.108472589E-3,-1.527118124E-2,4.428642802E-3
1.263173115E1,-8.551862091E-3,-2.504473738E-2,9.315420873E-3
1.264144537E1,-2.565558441E-2,-1.404948719E-2,1.420219894E-2
1.265115886E1,-3.298575059E-2,5.497625098E-3,1.664558798E-2
1.266087146E1,-3.176405653E-2,1.771457121E-2,1.298050396E-2
1.267058500E1,-1.954711229E-2,1.649287529E-2,8.093725890E-3
1.268029927E1,-2.443389036E-3,7.941014133E-3,1.985253533E-3
1.269001266E1,9.773556143E-3,-1.832541777E-3,-1.679830020E-3
1.269972536E1,1.588202827E-2,-4.275931045E-3,-2.901524538E-3
1.270943886E1,1.832541823E-2,-4.275931045E-3,-4.123218823E-3
1.271915312E1,1.710372418E-2,-4.275931045E-3,-2.901524538E-3
1.272886662E1,1.588202827E-2,-7.941014133E-3,-1.679830020E-3
1.273857922E1,1.466033421E-2,-1.527118124E-2,7.635590737E-4
1.274829276E1,1.099525020E-2,-2.137965336E-2,3.206948051E-3
1.275800703E1,8.551862091E-3,-1.893626526E-2,5.650337320E-3
1.276772042E1,8.551862091E-3,-1.649287529E-2,5.650337320E-3
1.277743312E1,7.330167107E-3,-2.260134928E-2,6.872031838E-3
1.278714662E1,4.886778072E-3,-2.382304333E-2,6.872031838E-3
1.279686089E1,-0.000000000E0,-1.404948719E-2,6.872031838E-3
1.280657438E1,-6.108472589E-3,6.108472589E-4,5.650337320E-3
1.281628698E1,-7.330167107E-3,5.497625098E-3,3.206948051E-3
1.282600052E1,-3.665083554E-3,6.108472589E-4,1.985253533E-3
1.283571479E1,-0.000000000E0,-6.719320081E-3,7.635590737E-4
1.284542818E1,3.665083554E-3,-1.282779220E-2,-4.581354442E-4
1.285514089E1,6.108472589E-3,-1.893626526E-2,-4.581354442E-4
1.286485438E1,8.551862091E-3,-2.382304333E-2,7.635590737E-4
1.287456865E1,8.551862091E-3,-2.626643144E-2,1.985253533E-3
1.288428203E1,6.108472589E-3,-2.015795931E-2,1.985253533E-3
1.289399474E1,3.665083554E-3,-1.282779220E-2,1.985253533E-3
1.290370828E1,2.443389036E-3,-6.719320081E-3,4.428642802E-3
1.291342250E1,2.443389036E-3,-1.832541777E-3,3.206948051E-3
1.292313599E1,3.665083554E-3,1.282779220E-2,1.985253533E-3
1.293284859E1,6.108472589E-3,2.748812735E-2,1.985253533E-3
1.294256214E1,1.099525020E-2,2.870982140E-2,3.206948051E-3
1.295227641E1,1.832541823E-2,1.282779220E-2,1.985253533E-3
1.296198979E1,2.321219631E-2,-7.941014133E-3,7.635590737E-4
1.297170250E1,2.565558441E-2,-2.137965336E-2,1.985253533E-3
1.298141599E1,2.321219631E-2,-2.015795931E-2,4.428642802E-3
1.299113026E1,1.710372418E-2,-1.038440317E-2,4.428642802E-3
1.300084375E1,1.221694518E-2,1.832541777E-3,6.872031838E-3
1.301055636E1,8.551862091E-3,1.282779220E-2,9.315420873E-3
1.302026990E1,4.886778072E-3,2.137965336E-2,9.315420873E-3
1.302998412E1,1.221694518E-3,3.603998944E-2,9.315420873E-3
1.303969760E1,-0.000000000E0,4.581354558E-2,1.053711493E-2
1.304941021E1,1.221694518E-3,4.337015375E-2,9.315420873E-3
1.305912375E1,3.665083554E-3,3.237490356E-2,5.650337320E-3
1.306883802E1,3.665083554E-3,2.260134928E-2,3.206948051E-3
1.307855141E1,3.665083554E-3,1.649287529E-2,7.635590737E-4
1.308826412E1,4.886778072E-3,1.038440317E-2,-2.901524538E-3
1.309797760E1,8.551862091E-3,6.108472589E-4,-5.344913341E-3
1.310769188E1,1.343864016E-2,-7.941014133E-3,-6.566607859E-3
1.311740537E1,1.466033421E-2,-1.038440317E-2,-2.901524538E-3
1.312711797E1,1.466033421E-2,-5.497625098E-3,7.635590737E-4
1.313683151E1,1.099525020E-2,-6.108472589E-4,4.428642802E-3
1.314654573E1,6.108472589E-3,3.054236295E-3,5.650337320E-3
1.315625922E1,1.221694518E-3,1.832541777E-3,6.872031838E-3
1.316597188E1,-1.221694518E-3,6.108472589E-4,6.872031838E-3
1.317568537E1,-2.443389036E-3,6.108472589E-4,6.872031838E-3
1.318539964E1,-2.443389036E-3,5.497625098E-3,4.428642802E-3
1.319511302E1,1.221694518E-3,4.275931045E-3,3.206948051E-3
1.320482573E1,4.886778072E-3,-4.275931045E-3,3.206948051E-3
1.321453922E1,4.886778072E-3,-1.404948719E-2,3.206948051E-3
1.322425349E1,-0.000000000E0,-1.527118124E-2,3.206948051E-3
1.323396698E1,-2.443389036E-3,-1.649287529E-2,7.635590737E-4
1.324367958E1,-2.443389036E-3,-2.626643144E-2,-1.679830020E-3
1.325339312E1,-3.665083554E-3,-3.970507160E-2,-4.123218823E-3
1.326310740E1,-7.330167107E-3,-3.848337755E-2,-6.566607859E-3
1.327282078E1,-1.099525020E-2,-2.015795931E-2,-6.566607859E-3
1.328253349E1,-9.773556143E-3,-4.275931045E-3,-6.566607859E-3
1.329224698E1,-3.665083554E-3,1.832541777E-3,-6.566607859E-3
1.330196125E1,2.443389036E-3,-3.054236295E-3,-2.901524538E-3
1.331167474E1,4.886778072E-3,-6.719320081E-3,7.635590737E-4
1.332138734E1,4.886778072E-3,-4.275931045E-3,5.650337320E-3
1.333110089E1,4.886778072E-3,-1.832541777E-3,8.093725890E-3
1.334081510E1,6.108472589E-3,-6.719320081E-3,9.315420873E-3
1.335052859E1,8.551862091E-3,-1.771457121E-2,1.053711493E-2
1.336024125E1,8.551862091E-3,-2.626643144E-2,6.872031838E-3
1.336995474E1,7.330167107E-3,-2.260134928E-2,3.206948051E-3
1.337966901E1,7.330167107E-3,-1.038440317E-2,7.635590737E-4
1.338938240E1,8.551862091E-3,3.054236295E-3,7.635590737E-4
1.339909510E1,8.551862091E-3,1.404948719E-2,7.635590737E-4
1.340880859E1,6.108472589E-3,3.237490356E-2,4.428642802E-3
1.341852287E1,4.886778072E-3,4.581354558E-2,6.872031838E-3
1.342823636E1,4.886778072E-3,4.459185153E-2,8.093725890E-3
1.343794896E1,6.108472589E-3,2.748812735E-2,6.872031838E-3
1.344766250E1,6.108472589E-3,1.038440317E-2,6.872031838E-3
1.345737677E1,8.551862091E-3,1.832541777E-3,5.650337320E-3
1.346709016E1,1.099525020E-2,-4.275931045E-3,7.635590737E-4
1.347680287E1,1.710372418E-2,-1.527118124E-2,-1.679830020E-3
1.348651636E1,2.076880634E-2,-2.870982140E-2,-4.581354442E-4
1.349623062E1,2.076880634E-2,-3.237490356E-2,-1.679830020E-3
1.350594412E1,1.710372418E-2,-2.137965336E-2,1.985253533E-3
1.351565672E1,1.099525020E-2,-7.941014133E-3,4.428642802E-3
1.352537026E1,6.108472589E-3,1.832541777E-3,5.650337320E-3
1.353508448E1,1.221694518E-3,9.162709117E-3,6.872031838E-3
1.354479797E1,-2.443389036E-3,2.260134928E-2,6.872031838E-3
1.355451057E1,-2.443389036E-3,4.337015375E-2,9.315420873E-3
1.356422412E1,-0.000000000E0,6.291726977E-2,9.315420873E-3
1.357393839E1,2.443389036E-3,7.391251624E-2,8.093725890E-3
1.358365177E1,8.551862091E-3,7.024743408E-2,5.650337320E-3
1.359336448E1,1.343864016E-2,5.192201585E-2,1.985253533E-3
1.360307797E1,1.710372418E-2,2.504473738E-2,-4.581354442E-4
1.361279224E1,1.832541823E-2,4.275931045E-3,-2.901524538E-3
1.362250573E1,1.710372418E-2,-7.941014133E-3,-1.679830020E-3
1.363221833E1,1.832541823E-2,-2.260134928E-2,-4.581354442E-4
1.364193188E1,1.954711229E-2,-3.970507160E-2,1.985253533E-3
1.365164615E1,1.832541823E-2,-4.825693369E-2,5.650337320E-3
1.366135953E1,1.221694518E-2,-3.603998944E-2,9.315420873E-3
1.367107224E1,4.886778072E-3,-1.038440317E-2,9.315420873E-3
1.368078573E1,2.443389036E-3,1.038440317E-2,8.093725890E-3
1.369050000E1,2.443389036E-3,1.527118124E-2,6.872031838E-3
1.370021349E1,2.443389036E-3,2.137965336E-2,3.206948051E-3
1.370992609E1,-0.000000000E0,3.848337755E-2,-4.581354442E-4
1.371963964E1,-1.221694518E-3,4.947862774E-2,-1.679830020E-3
1.372935386E1,-0.000000000E0,3.603998944E-2,-4.123218823E-3
1.373906734E1,-0.000000000E0,1.038440317E-2,-2.901524538E-3
1.374877995E1,-2.443389036E-3,-9.162709117E-3,-2.901524538E-3
1.375849349E1,-7.330167107E-3,-1.771457121E-2,-1.679830020E-3
1.376820776E1,-1.099525020E-2,-1.771457121E-2,-4.581354442E-4
1.377792115E1,-6.108472589E-3,-2.504473738E-2,7.635590737E-4
1.378763386E1,-0.000000000E0,-3.481829539E-2,-4.581354442E-4
1.379734734E1,7.330167107E-3,-3.603998944E-2,-1.679830020E-3
1.380706162E1,1.099525020E-2,-2.260134928E-2,-1.679830020E-3
1.381677511E1,1.099525020E-2,-3.054236295E-3,-4.581354442E-4
1.382648771E1,7.330167107E-3,1.404948719E-2,7.635590737E-4
1.383620125E1,4.886778072E-3,2.137965336E-2,1.985253533E-3
1.384591552E1,2.443389036E-3,1.771457121E-2,1.985253533E-3
1.385562891E1,-0.000000000E0,1.771457121E-2,3.206948051E-3
1.386534162E1,-3.665083554E-3,2.382304333E-2,3.206948051E-3
1.387505511E1,-3.665083554E-3,2.260134928E-2,7.635590737E-4
1.388476938E1,-1.221694518E-3,7.941014133E-3,-1.679830020E-3
1.389448286E1,2.443389036E-3,-1.649287529E-2,-2.901524538E-3
1.390419547E1,2.443389036E-3,-3.481829539E-2,-4.123218823E-3
1.391390901E1,-2.443389036E-3,-3.726168349E-2,-2.901524538E-3
1.392362328E1,-7.330167107E-3,-2.382304333E-2,-1.679830020E-3
1.393333667E1,-8.551862091E-3,-1.038440317E-2,-2.901524538E-3
1.394304938E1,-6.108472589E-3,-1.832541777E-3,-4.581354442E-4
1.395276286E1,-3.665083554E-3,1.832541777E-3,-1.679830020E-3
1.396247714E1,-0.000000000E0,4.275931045E-3,-1.679830020E-3
1.397219052E1,-1.221694518E-3,6.719320081E-3,-1.679830020E-3
1.398190323E1,-3.665083554E-3,1.160609815E-2,-5.344913341E-3
1.399161677E1,-6.108472589E-3,1.527118124E-2,-6.566607859E-3
1.400133099E1,-6.108472589E-3,1.404948719E-2,-5.344913341E-3
1.401104448E1,-4.886778072E-3,1.038440317E-2,-5.344913341E-3
1.402075708E1,-3.665083554E-3,6.719320081E-3,-4.123218823E-3
1.403047063E1,-3.665083554E-3,3.054236295E-3,-4.581354442E-4
1.404018490E1,-2.443389036E-3,-3.054236295E-3,4.428642802E-3
1.404989828E1,-4.886778072E-3,-1.160609815E-2,3.206948051E-3
1.405961099E1,-6.108472589E-3,-1.404948719E-2,7.635590737E-4
1.406932448E1,-4.886778072E-3,-1.160609815E-2,-4.581354442E-4
1.407903875E1,-2.443389036E-3,-1.282779220E-2,-1.679830020E-3
1.408875224E1,2.443389036E-3,-1.404948719E-2,-4.123218823E-3
1.409846484E1,7.330167107E-3,-7.941014133E-3,-2.901524538E-3
1.410817839E1,1.099525020E-2,1.832541777E-3,-2.901524538E-3
1.411789266E1,8.551862091E-3,7.941014133E-3,-4.581354442E-4
1.412760604E1,3.665083554E-3,7.941014133E-3,-4.581354442E-4
1.413731875E1,-4.886778072E-3,6.719320081E-3,-4.581354442E-4
1.414703224E1,-1.099525020E-2,9.162709117E-3,-4.581354442E-4
1.415674651E1,-1.221694518E-2,1.282779220E-2,-4.581354442E-4
1.416646000E1,-9.773556143E-3,1.649287529E-2,-1.679830020E-3
1.417617261E1,-4.886778072E-3,1.404948719E-2,-5.344913341E-3
1.418588615E1,1.221694518E-3,4.275931045E-3,-7.788302377E-3
1.419560036E1,7.330167107E-3,-1.160609815E-2,-9.009997360E-3
1.420531386E1,9.773556143E-3,-2.626643144E-2,-5.344913341E-3
1.421502646E1,8.551862091E-3,-3.603998944E-2,-2.901524538E-3
1.422474000E1,3.665083554E-3,-3.481829539E-2,1.985253533E-3
1.423445427E1,-0.000000000E0,-2.504473738E-2,4.428642802E-3
1.424416766E1,-3.665083554E-3,-1.160609815E-2,5.650337320E-3
1.425388036E1,-6.108472589E-3,-6.108472589E-4,4.428642802E-3
1.426359386E1,-8.551862091E-3,1.038440317E-2,7.635590737E-4
1.427330813E1,-7.330167107E-3,2.015795931E-2,-4.123218823E-3
1.428302162E1,-8.551862091E-3,2.870982140E-2,-9.009997360E-3
1.429273422E1,-9.773556143E-3,3.237490356E-2,-1.267508045E-2
1.430244776E1,-9.773556143E-3,3.237490356E-2,-1.389677543E-2
1.431216198E1,-1.221694518E-2,2.626643144E-2,-1.389677543E-2
1.432187547E1,-1.466033421E-2,1.893626526E-2,-1.023169141E-2
1.433158813E1,-1.954711229E-2,1.893626526E-2,-5.344913341E-3
1.434130162E1,-2.199050039E-2,2.015795931E-2,-1.679830020E-3
1.435101589E1,-1.710372418E-2,5.497625098E-3,7.635590737E-4
1.436072938E1,-6.108472589E-3,-2.626643144E-2,4.428642802E-3
1.437044198E1,3.665083554E-3,-5.436540768E-2,6.872031838E-3
1.438015552E1,7.330167107E-3,-5.192201585E-2,8.093725890E-3
1.438986974E1,6.108472589E-3,-2.993151546E-2,5.650337320E-3
1.439958323E1,1.221694518E-3,-1.404948719E-2,-4.581354442E-4
1.440929583E1,-4.886778072E-3,-5.497625098E-3,-5.344913341E-3
1.441900938E1,-1.099525020E-2,9.162709117E-3,-1.267508045E-2
1.442872365E1,-1.099525020E-2,2.260134928E-2,-1.511846948E-2
1.443843703E1,-2.443389036E-3,2.015795931E-2,-1.511846948E-2
1.444814974E1,9.773556143E-3,3.054236295E-3,-1.634016447E-2
1.445786323E1,1.466033421E-2,-1.282779220E-2,-1.267508045E-2
1.446757750E1,9.773556143E-3,-2.015795931E-2,-6.566607859E-3
1.447729099E1,-4.886778072E-3,-2.382304333E-2,7.635590737E-4
1.448700359E1,-2.321219631E-2,-2.382304333E-2,6.872031838E-3
1.449671714E1,-4.031591862E-2,-2.137965336E-2,1.053711493E-2
1.450643136E1,-5.008947477E-2,-1.527118124E-2,1.175880991E-2
1.451614484E1,-5.131116882E-2,-4.275931045E-3,8.093725890E-3
1.452585745E1,-4.275930673E-2,1.038440317E-2,1.985253533E-3
1.453557099E1,-2.687728032E-2,2.137965336E-2,-4.123218823E-3
1.454528526E1,-7.330167107E-3,2.137965336E-2,-1.023169141E-2
1.455499865E1,9.773556143E-3,1.038440317E-2,-1.389677543E-2
1.456471136E1,2.076880634E-2,-6.719320081E-3,-1.267508045E-2
1.457442484E1,1.954711229E-2,-2.382304333E-2,-6.566607859E-3
1.458413912E1,7.330167107E-3,-2.870982140E-2,-1.679830020E-3
1.459385260E1,-8.551862091E-3,-2.137965336E-2,1.985253533E-3
1.460356521E1,-2.076880634E-2,-1.282779220E-2,7.635590737E-4
1.461327875E1,-2.199050039E-2,-1.771457121E-2,-1.679830020E-3
1.462299297E1,-1.343864016E-2,-3.115320951E-2,-5.344913341E-3
1.463270646E1,-0.000000000E0,-3.726168349E-2,-9.009997360E-3
1.464241906E1,1.221694518E-2,-2.626643144E-2,-1.145338640E-2
1.465213260E1,1.832541823E-2,-6.108472589E-4,-1.023169141E-2
1.466184688E1,2.076880634E-2,2.504473738E-2,-9.009997360E-3
1.467156026E1,1.954711229E-2,2.748812735E-2,-4.123218823E-3
1.468127297E1,1.710372418E-2,5.497625098E-3,3.206948051E-3
1.469098646E1,1.343864016E-2,-1.771457121E-2,8.093725890E-3
1.470070073E1,7.330167107E-3,-2.504473738E-2,1.298050396E-2
1.471041422E1,1.221694518E-3,-1.527118124E-2,1.664558798E-2
1.472012682E1,-3.665083554E-3,1.832541777E-3,1.420219894E-2
1.472984031E1,-4.886778072E-3,1.771457121E-2,9.315420873E-3
1.473955458E1,-4.886778072E-3,2.993151546E-2,3.206948051E-3
1.474926807E1,-6.108472589E-3,3.237490356E-2,-6.566607859E-3
1.475898068E1,-7.330167107E-3,3.115320951E-2,-1.511846948E-2
1.476869422E1,-4.886778072E-3,2.993151546E-2,-2.000524849E-2
1.477840844E1,-1.221694518E-3,2.504473738E-2,-1.634016447E-2
1.478812193E1,3.665083554E-3,1.404948719E-2,-9.009997360E-3
1.479783458E1,7.330167107E-3,-6.108472589E-4,7.635590737E-4
1.480754807E1,4.886778072E-3,-1.404948719E-2,9.315420873E-3
1.481726234E1,-1.221694518E-3,-3.237490356E-2,1.420219894E-2
1.482697573E1,-7.330167107E-3,-5.436540768E-2,1.420219894E-2
1.483668844E1,-1.343864016E-2,-6.047387794E-2,8.093725890E-3
1.484640193E1,-1.588202827E-2,-4.337015375E-2,3.206948051E-3
1.485611620E1,-1.343864016E-2,-7.941014133E-3,-5.344913341E-3
1.486582969E1,-3.665083554E-3,3.237490356E-2,-1.145338640E-2
1.487554229E1,9.773556143E-3,6.047387794E-2,-1.511846948E-2
1.488525583E1,2.199050039E-2,5.925218388E-2,-1.389677543E-2
1.489497005E1,2.687728032E-2,3.115320951E-2,-1.023169141E-2
1.490468354E1,1.954711229E-2,6.108472589E-4,-5.344913341E-3
1.491439615E1,2.443389036E-3,-1.771457121E-2,-4.581354442E-4
1.492410969E1,-1.221694518E-2,-3.237490356E-2,1.985253533E-3
1.493382396E1,-2.321219631E-2,-4.459185153E-2,3.206948051E-3
1.494353734E1,-2.687728032E-2,-4.703523964E-2,1.985253533E-3
1.495325005E1,-2.321219631E-2,-3.603998944E-2,-4.581354442E-4
1.496296354E1,-1.466033421E-2,-1.649287529E-2,-5.344913341E-3
1.497267781E1,-3.665083554E-3,4.275931045E-3,-9.009997360E-3
1.498239120E1,7.330167107E-3,1.771457121E-2,-1.145338640E-2
1.499210391E1,1.343864016E-2,2.137965336E-2,-7.788302377E-3
1.500181740E1,1.588202827E-2,1.160609815E-2,-2.901524538E-3
1.501153167E1,9.773556143E-3,-1.832541777E-3,5.650337320E-3
1.502124516E1,-2.443389036E-3,-1.038440317E-2,9.315420873E-3
1.503095776E1,-1.343864016E-2,-1.404948719E-2,1.175880991E-2
1.504067125E1,-1.954711229E-2,-2.015795931E-2,1.053711493E-2
1.505038552E1,-1.588202827E-2,-2.993151546E-2,8.093725890E-3
1.506009901E1,-3.665083554E-3,-3.237490356E-2,1.985253533E-3
1.506981162E1,8.551862091E-3,-2.137965336E-2,-2.901524538E-3
1.507952516E1,2.076880634E-2,-3.054236295E-3,-7.788302377E-3
