"Time (s)","Acceleration x (m/s^2)","Acceleration y (m/s^2)","Acceleration z (m/s^2)"
5.254887100E-2,-3.215654612E0,-9.308079720E0,-1.525424421E-1
6.226319400E-2,-3.172583818E0,-9.310472488E0,-1.501496136E-1
7.197986100E-2,-3.122334480E0,-9.315258980E0,-2.572284266E-2
8.150215200E-2,-3.122334480E0,-9.315258980E0,-2.572284266E-2
9.140381900E-2,-3.148655415E0,-9.320044518E0,4.127619043E-2
1.011173090E-1,-3.182155132E0,-9.320044518E0,7.716853172E-2
1.108300170E-1,-3.196511984E0,-9.324830055E0,9.391828626E-2
1.205436110E-1,-3.218047380E0,-9.317651749E0,7.477571070E-2
1.302579340E-1,-3.241975546E0,-9.308079720E0,2.691925503E-2
1.399714230E-1,-3.251546860E0,-9.286544800E0,-2.333002165E-2
1.496841840E-1,-3.270689487E0,-9.286544800E0,-6.640082598E-2
1.593977770E-1,-3.270689487E0,-9.298508644E0,-9.032905847E-2
1.691121000E-1,-3.263510942E0,-9.298508644E0,-9.511470050E-2
1.788255900E-1,-3.227618694E0,-9.315258980E0,-1.142572835E-1
1.885383500E-1,-3.213261604E0,-9.320044518E0,-1.286142170E-1
1.982518400E-1,-3.222832918E0,-9.308079720E0,-8.793623000E-2
2.079662670E-1,-3.234797001E0,-9.291330338E0,-1.645065546E-1
2.176797570E-1,-3.218047380E0,-9.308079720E0,-2.338984162E-1
2.273924650E-1,-3.208476067E0,-9.312865257E0,-1.854437590E-2
2.371060590E-1,-3.213261604E0,-9.308079720E0,7.776673418E-3
2.468203820E-1,-3.220440149E0,-9.317651749E0,-2.147558331E-1
2.565338710E-1,-3.179762125E0,-9.334401131E0,-1.453639716E-1
2.662466320E-1,-3.179762125E0,-9.332008362E0,-1.136590727E-2
2.759602250E-1,-3.189333439E0,-9.327222824E0,-1.908276081E-1
2.856745480E-1,-3.163012505E0,-9.322437286E0,-2.673979402E-1
2.953880380E-1,-3.134298563E0,-9.320044518E0,-4.725824669E-2
3.051007980E-1,-3.141477108E0,-9.308079720E0,-2.811566554E-2
3.148143920E-1,-3.134298563E0,-9.308079720E0,-2.458625287E-1
3.245287150E-1,-3.096013308E0,-9.312865257E0,-1.310070455E-1
3.342422040E-1,-3.117548704E0,-9.305686951E0,3.170489892E-2
3.439549650E-1,-3.136691332E0,-9.324830055E0,-1.310070455E-1
3.536684540E-1,-3.155833960E0,-9.355937004E0,-2.003988922E-1
3.633828290E-1,-3.143869877E0,-9.370293617E0,-1.375873014E-2
3.730963190E-1,-3.158226728E0,-9.339186668E0,-3.768695518E-2
3.828090790E-1,-3.160619497E0,-9.327222824E0,-2.458625287E-1
3.925226730E-1,-3.158226728E0,-9.322437286E0,-1.501496136E-1
4.022369960E-1,-3.186940670E0,-9.312865257E0,-1.136590727E-2
4.119504860E-1,-3.218047380E0,-9.286544800E0,-2.027917206E-1
4.216632460E-1,-3.196511984E0,-9.284152031E0,-2.769692242E-1
4.313768400E-1,-3.170190811E0,-9.315258980E0,-8.554340899E-2
4.410911630E-1,-3.141477108E0,-9.341579437E0,-1.046859920E-1
4.508046520E-1,-3.151048422E0,-9.343972206E0,-2.913261652E-1
4.605174130E-1,-3.148655415E0,-9.358329773E0,-1.333998591E-1
4.702310070E-1,-3.189333439E0,-9.332008362E0,3.409772366E-2
4.799453290E-1,-3.249154091E0,-9.327222824E0,-1.214357466E-1
4.896588190E-1,-3.270689487E0,-9.317651749E0,-1.884347796E-1
4.993715790E-1,-3.253939629E0,-9.308079720E0,7.776673418E-3
5.090851730E-1,-3.265903711E0,-9.296115875E0,-6.400800496E-2
5.187994960E-1,-3.251546860E0,-9.310472488E0,-2.626122832E-1
5.285129860E-1,-3.218047380E0,-9.329615593E0,-1.333998591E-1
5.382257460E-1,-3.172583818E0,-9.329615593E0,-2.093719877E-2
5.479393400E-1,-3.148655415E0,-9.348757744E0,-2.315055877E-1
5.576536630E-1,-3.136691332E0,-9.341579437E0,-2.530409992E-1
5.673671520E-1,-3.158226728E0,-9.308079720E0,-2.333002165E-2
5.770799130E-1,-3.220440149E0,-9.267401695E0,-3.050848842E-2
5.867935070E-1,-3.273082256E0,-9.253045082E0,-1.788634956E-1
5.965078290E-1,-3.280260801E0,-9.265008926E0,-4.247260094E-2
6.062213190E-1,-3.275475025E0,-9.274580956E0,4.845465720E-2
6.159340790E-1,-3.265903711E0,-9.303294182E0,-1.716850251E-1
6.256476730E-1,-3.203690529E0,-9.327222824E0,-2.434697002E-1
6.353619960E-1,-3.146262646E0,-9.341579437E0,-4.725824669E-2
6.450754860E-1,-3.107977629E0,-9.336793900E0,-1.166501045E-1
6.547882460E-1,-3.069692373E0,-9.341579437E0,-3.056831062E-1
6.645018400E-1,-3.036192894E0,-9.355937004E0,-1.597209126E-1
6.742161630E-1,-3.045764208E0,-9.346364975E0,-5.443671346E-2
6.839296520E-1,-3.093620539E0,-9.329615593E0,-2.291127741E-1
6.936424130E-1,-3.136691332E0,-9.324830055E0,-2.554338276E-1
7.033560070E-1,-3.165405273E0,-9.296115875E0,-8.315058798E-2
7.130703290E-1,-3.203690529E0,-9.305686951E0,-1.860419661E-1
7.227838190E-1,-3.186940670E0,-9.315258980E0,-1.932204217E-1
7.324965790E-1,-3.174976587E0,-9.343972206E0,-1.932204217E-1
7.422101730E-1,-3.148655415E0,-9.353543282E0,-1.668993831E-1
7.519244960E-1,-3.153441191E0,-9.358329773E0,-1.333998591E-1
7.616379860E-1,-3.160619497E0,-9.348757744E0,-8.793623000E-2
7.713507460E-1,-3.191726208E0,-9.339186668E0,-4.965107143E-2
7.810643400E-1,-3.225225925E0,-9.322437286E0,-3.290131316E-2
7.907786630E-1,-3.241975546E0,-9.291330338E0,-5.204389244E-2
8.004921520E-1,-3.249154091E0,-9.262616158E0,-6.640082598E-2
8.102049130E-1,-3.227618694E0,-9.248259544E0,-9.032905847E-2
8.199185070E-1,-3.206083298E0,-9.276973724E0,-1.214357466E-1
8.296328820E-1,-3.158226728E0,-9.303294182E0,-1.286142170E-1
8.393463710E-1,-3.141477108E0,-9.339186668E0,-1.262213886E-1
8.490591320E-1,-3.153441191E0,-9.370293617E0,-1.357926875E-1
8.587727250E-1,-3.155833960E0,-9.365508080E0,-1.022931710E-1
8.684870480E-1,-3.143869877E0,-9.363115311E0,-9.990034252E-2
8.782005380E-1,-3.177369356E0,-9.327222824E0,-7.836493850E-2
8.879132980E-1,-3.194119215E0,-9.293723106E0,-5.204389244E-2
8.976268920E-1,-3.225225925E0,-9.269794464E0,-6.879365444E-2
9.073412150E-1,-3.244368315E0,-9.284152031E0,-9.511470050E-2
9.170548090E-1,-3.253939629E0,-9.293723106E0,-1.190429255E-1
9.267675170E-1,-3.232404232E0,-9.315258980E0,-1.357926875E-1
9.364811110E-1,-3.191726208E0,-9.327222824E0,-1.788634956E-1
9.461954340E-1,-3.143869877E0,-9.348757744E0,-1.908276081E-1
9.559089230E-1,-3.091227770E0,-9.365508080E0,-1.884347796E-1
9.656216840E-1,-3.079263687E0,-9.370293617E0,-1.549352705E-1
9.753352770E-1,-3.096013308E0,-9.363115311E0,-1.094716340E-1
9.850496520E-1,-3.100799084E0,-9.343972206E0,-7.836493850E-2
9.947631420E-1,-3.122334480E0,-9.343972206E0,-6.161518395E-2
1.004475902E0,-3.163012505E0,-9.363115311E0,-5.922235921E-2
1.014189496E0,-3.186940670E0,-9.332008362E0,-9.511470050E-2
1.023903819E0,-3.213261604E0,-9.329615593E0,-1.310070455E-1
1.033617413E0,-3.206083298E0,-9.336793900E0,-1.453639716E-1
1.043330121E0,-3.186940670E0,-9.308079720E0,-1.812563092E-1
1.053043715E0,-3.165405273E0,-9.298508644E0,-1.908276081E-1
1.062758038E0,-3.131905794E0,-9.288937569E0,-1.812563092E-1
1.072471632E0,-3.103191853E0,-9.298508644E0,-1.549352705E-1
1.082184340E0,-3.060121059E0,-9.293723106E0,-1.190429255E-1
1.091897934E0,-3.017050266E0,-9.300901413E0,-1.046859920E-1
1.101612257E0,-2.997907639E0,-9.312865257E0,-1.070788130E-1
1.111325746E0,-3.009871721E0,-9.339186668E0,-1.238285750E-1
1.121038559E0,-3.050549746E0,-9.363115311E0,-1.357926875E-1
1.130752152E0,-3.129513025E0,-9.370293617E0,-1.477568001E-1
1.140466475E0,-3.182155132E0,-9.377471924E0,-1.573280841E-1
1.150180069E0,-3.237190008E0,-9.382257462E0,-1.645065546E-1
1.159892777E0,-3.268296719E0,-9.379864693E0,-1.668993831E-1
1.169606371E0,-3.304188967E0,-9.360722542E0,-1.621137410E-1
1.179320694E0,-3.332902908E0,-9.320044518E0,-1.357926875E-1
1.189034288E0,-3.361616611E0,-9.288937569E0,-1.190429255E-1
1.198746996E0,-3.364009619E0,-9.260223389E0,-8.075776696E-2
1.208460590E0,-3.368795156E0,-9.236295700E0,-4.965107143E-2
1.218174965E0,-3.347259760E0,-9.219545364E0,-8.973085321E-3
1.227888454E0,-3.320938826E0,-9.219545364E0,7.776673418E-3
1.237601215E0,-3.289832115E0,-9.224330902E0,1.256231871E-2
1.247314861E0,-3.265903711E0,-9.255437851E0,-1.375873014E-2
1.257029184E0,-3.225225925E0,-9.279366493E0,-6.640082598E-2
1.266742673E0,-3.222832918E0,-9.303294182E0,-1.142572835E-1
1.276455486E0,-3.206083298E0,-9.320044518E0,-1.668993831E-1
1.286169079E0,-3.184547901E0,-9.336793900E0,-2.243271172E-1
1.295883402E0,-3.174976587E0,-9.363115311E0,-2.793620527E-1
1.305596996E0,-3.160619497E0,-9.375079155E0,-2.937189937E-1
1.315309704E0,-3.143869877E0,-9.389435768E0,-2.865405083E-1
1.325023298E0,-3.127120018E0,-9.363115311E0,-2.530409992E-1
1.334737673E0,-3.115155935E0,-9.351150513E0,-1.980060786E-1
1.344451163E0,-3.096013308E0,-9.324830055E0,-1.453639716E-1
1.354163975E0,-3.096013308E0,-9.334401131E0,-1.142572835E-1
1.363877569E0,-3.079263687E0,-9.346364975E0,-1.118644550E-1
1.373591944E0,-3.069692373E0,-9.394221306E0,-9.750752151E-2
1.383305434E0,-3.052942514E0,-9.413364410E0,-9.511470050E-2
1.393018194E0,-3.050549746E0,-9.410971642E0,-9.032905847E-2
1.402731840E0,-3.084049225E0,-9.382257462E0,-9.750752151E-2
1.412446163E0,-3.131905794E0,-9.343972206E0,-9.990034252E-2
1.422159757E0,-3.189333439E0,-9.329615593E0,-1.070788130E-1
1.431872465E0,-3.222832918E0,-9.315258980E0,-1.262213886E-1
1.441586059E0,-3.225225925E0,-9.284152031E0,-1.214357466E-1
1.451300434E0,-3.191726208E0,-9.274580956E0,-1.477568001E-1
1.461014027E0,-3.139084101E0,-9.265008926E0,-1.501496136E-1
1.470726736E0,-3.098406315E0,-9.288937569E0,-1.453639716E-1
1.480440329E0,-3.067299604E0,-9.317651749E0,-1.333998591E-1
1.490154704E0,-3.031407118E0,-9.370293617E0,-1.405783296E-1
1.499868194E0,-3.021835804E0,-9.399007797E0,-1.190429255E-1
1.509581007E0,-3.019443035E0,-9.413364410E0,-1.142572835E-1
1.519294600E0,-3.072085142E0,-9.413364410E0,-9.990034252E-2
1.529008975E0,-3.148655415E0,-9.372686386E0,-8.793623000E-2
1.538722465E0,-3.222832918E0,-9.315258980E0,-8.315058798E-2
1.548435225E0,-3.289832115E0,-9.303294182E0,-7.118647546E-2
1.558148871E0,-3.313760281E0,-9.284152031E0,-6.879365444E-2
1.567863246E0,-3.289832115E0,-9.269794464E0,-6.161518395E-2
1.577576736E0,-3.230011463E0,-9.276973724E0,-1.070788130E-1
1.587289548E0,-3.170190811E0,-9.317651749E0,-1.118644550E-1
1.597003142E0,-3.096013308E0,-9.334401131E0,-9.750752151E-2
1.606717517E0,-3.036192894E0,-9.339186668E0,-8.075776696E-2
1.616431007E0,-3.026621580E0,-9.353543282E0,-2.811566554E-2
1.626143819E0,-3.019443035E0,-9.355937004E0,7.776673418E-3
1.635857413E0,-3.074477911E0,-9.346364975E0,2.452643216E-2
1.645571788E0,-3.148655415E0,-9.327222824E0,-1.794616925E-3
1.655285382E0,-3.220440149E0,-9.315258980E0,-4.247260094E-2
1.664998090E0,-3.268296719E0,-9.312865257E0,-9.511470050E-2
1.674711684E0,-3.275475025E0,-9.310472488E0,-1.501496136E-1
1.684426059E0,-3.237190008E0,-9.327222824E0,-1.812563092E-1
1.694139652E0,-3.189333439E0,-9.327222824E0,-1.980060786E-1
1.703852361E0,-3.131905794E0,-9.334401131E0,-1.860419661E-1
1.713566007E0,-3.086441994E0,-9.336793900E0,-1.381855011E-1
1.723280329E0,-3.088835001E0,-9.334401131E0,-7.357929647E-2
1.732993923E0,-3.107977629E0,-9.317651749E0,2.991028363E-3
1.742706632E0,-3.139084101E0,-9.296115875E0,6.041877344E-2
1.752420277E0,-3.172583818E0,-9.286544800E0,8.913264424E-2
1.762134652E0,-3.194119215E0,-9.317651749E0,5.802594870E-2
1.771848142E0,-3.213261604E0,-9.358329773E0,3.649054468E-2
1.781560954E0,-3.225225925E0,-9.372686386E0,-1.794616925E-3
1.791274548E0,-3.218047380E0,-9.346364975E0,-7.597211748E-2
1.800988923E0,-3.201297522E0,-9.341579437E0,-1.525424421E-1
1.810702517E0,-3.189333439E0,-9.348757744E0,-1.740778536E-1
1.820415225E0,-3.172583818E0,-9.346364975E0,-2.147558331E-1
1.830128871E0,-3.158226728E0,-9.332008362E0,-2.051845491E-1
1.839843194E0,-3.160619497E0,-9.315258980E0,-1.956132501E-1
1.849556788E0,-3.158226728E0,-9.308079720E0,-1.381855011E-1
1.859269496E0,-3.170190811E0,-9.303294182E0,-1.022931710E-1
1.868983142E0,-3.170190811E0,-9.298508644E0,-5.682953820E-2
1.878697517E0,-3.165405273E0,-9.308079720E0,-2.093719877E-2
1.888411007E0,-3.153441191E0,-9.322437286E0,2.452643216E-2
1.898123819E0,-3.143869877E0,-9.351150513E0,4.127619043E-2
1.907837413E0,-3.107977629E0,-9.372686386E0,6.281159073E-2
1.917551788E0,-3.067299604E0,-9.367900848E0,6.759724021E-2
1.927265382E0,-3.024228811E0,-9.348757744E0,4.845465720E-2
1.936978090E0,-3.038585663E0,-9.324830055E0,2.452643216E-2
1.946691736E0,-3.072085142E0,-9.298508644E0,-3.290131316E-2
1.956406111E0,-3.110370398E0,-9.296115875E0,-8.554340899E-2
1.966119600E0,-3.160619497E0,-9.298508644E0,-1.333998591E-1
1.975832413E0,-3.174976587E0,-9.322437286E0,-1.884347796E-1
1.985546007E0,-3.177369356E0,-9.329615593E0,-2.243271172E-1
1.995260382E0,-3.134298563E0,-9.348757744E0,-2.530409992E-1
2.004973975E0,-3.100799084E0,-9.370293617E0,-2.673979402E-1
2.014686684E0,-3.069692373E0,-9.377471924E0,-2.219343036E-1
2.024400329E0,-3.050549746E0,-9.401400566E0,-1.764706671E-1
2.034114704E0,-3.033800125E0,-9.387042999E0,-1.070788130E-1
2.043828194E0,-3.038585663E0,-9.372686386E0,-5.204389244E-2
2.053541007E0,-3.069692373E0,-9.363115311E0,-8.973085321E-3
2.063254600E0,-3.110370398E0,-9.327222824E0,-4.187439568E-3
2.072968975E0,-3.163012505E0,-9.310472488E0,5.383851007E-3
2.082682569E0,-3.182155132E0,-9.288937569E0,-1.854437590E-2
2.092395277E0,-3.158226728E0,-9.281759262E0,-7.357929647E-2
2.102108923E0,-3.143869877E0,-9.293723106E0,-1.238285750E-1
2.111823298E0,-3.124727249E0,-9.293723106E0,-1.668993831E-1
2.121536788E0,-3.107977629E0,-9.305686951E0,-1.764706671E-1
2.131249600E0,-3.081656456E0,-9.305686951E0,-1.788634956E-1
2.140963194E0,-3.081656456E0,-9.336793900E0,-1.740778536E-1
2.150677569E0,-3.055335522E0,-9.367900848E0,-1.429711580E-1
2.160391163E0,-3.031407118E0,-9.377471924E0,-1.214357466E-1
2.170103871E0,-3.036192894E0,-9.399007797E0,-1.022931710E-1
2.179817517E0,-3.045764208E0,-9.418149948E0,-6.400800496E-2
2.189531892E0,-3.055335522E0,-9.408578873E0,-6.879365444E-2
2.199245382E0,-3.081656456E0,-9.396614075E0,-6.400800496E-2
2.208958194E0,-3.127120018E0,-9.351150513E0,-4.965107143E-2
2.218671788E0,-3.196511984E0,-9.310472488E0,-4.247260094E-2
2.228386163E0,-3.234797001E0,-9.286544800E0,-4.247260094E-2
2.238099757E0,-3.282653570E0,-9.272188187E0,-4.247260094E-2
2.247812465E0,-3.325724363E0,-9.250652313E0,-5.204389244E-2
2.257526111E0,-3.325724363E0,-9.250652313E0,-5.204389244E-2
2.267240486E0,-3.316153049E0,-9.262616158E0,-5.204389244E-2
2.276953975E0,-3.277868032E0,-9.284152031E0,-7.597211748E-2
2.286666788E0,-3.203690529E0,-9.315258980E0,-1.118644550E-1
2.296380434E0,-3.124727249E0,-9.334401131E0,-1.405783296E-1
2.306094757E0,-3.098406315E0,-9.355937004E0,-1.190429255E-1
2.315808350E0,-3.069692373E0,-9.372686386E0,-6.400800496E-2
2.325521059E0,-3.076870918E0,-9.370293617E0,-3.290131316E-2
2.335234704E0,-3.105584621E0,-9.343972206E0,1.974078640E-2
2.344949079E0,-3.129513025E0,-9.308079720E0,5.324030295E-2
2.354662673E0,-3.163012505E0,-9.303294182E0,6.520441920E-2
2.364375382E0,-3.170190811E0,-9.305686951E0,4.606183618E-2
2.374089027E0,-3.167798042E0,-9.310472488E0,1.256231871E-2
2.383803350E0,-3.158226728E0,-9.320044518E0,-2.811566554E-2
2.393516944E0,-3.172583818E0,-9.341579437E0,-2.333002165E-2
2.403229704E0,-3.177369356E0,-9.353543282E0,-4.965107143E-2
2.412943298E0,-3.191726208E0,-9.372686386E0,-6.879365444E-2
2.422657673E0,-3.196511984E0,-9.389435768E0,-8.315058798E-2
2.432371267E0,-3.182155132E0,-9.415757179E0,-1.190429255E-1
2.442083975E0,-3.172583818E0,-9.396614075E0,-1.453639716E-1
2.451797621E0,-3.167798042E0,-9.370293617E0,-1.357926875E-1
2.461511944E0,-3.172583818E0,-9.324830055E0,-1.262213886E-1
2.471225538E0,-3.155833960E0,-9.276973724E0,-9.272187948E-2
2.480938298E0,-3.124727249E0,-9.260223389E0,-4.965107143E-2
2.490651892E0,-3.124727249E0,-9.267401695E0,3.170489892E-2
2.500366267E0,-3.096013308E0,-9.293723106E0,1.082752272E-1
2.510079861E0,-3.072085142E0,-9.298508644E0,1.923231184E-1
2.519792569E0,-3.062513828E0,-9.303294182E0,2.497508675E-1
2.529506215E0,-3.069692373E0,-9.305686951E0,2.545365095E-1
2.539220538E0,-3.105584621E0,-9.310472488E0,2.186441720E-1
2.548934132E0,-3.189333439E0,-9.320044518E0,1.465603858E-1
2.558646892E0,-3.244368315E0,-9.320044518E0,3.888336942E-2
2.568360486E0,-3.289832115E0,-9.334401131E0,-7.836493850E-2
2.578074861E0,-3.275475025E0,-9.360722542E0,-2.003988922E-1
2.587788454E0,-3.220440149E0,-9.384650230E0,-3.272185028E-1
2.597501163E0,-3.139084101E0,-9.396614075E0,-4.208376706E-1
2.607214809E0,-3.064906597E0,-9.418149948E0,-4.519443810E-1
2.616929132E0,-3.005086184E0,-9.458827972E0,-4.256233275E-1
2.626642725E0,-2.952444077E0,-9.444471359E0,-3.248256743E-1
2.636355486E0,-2.928216696E0,-9.420542717E0,-1.812563092E-1
2.646069079E0,-2.966800928E0,-9.377471924E0,-6.161518395E-2
2.655783454E0,-3.043371201E0,-9.343972206E0,3.649054468E-2
2.665497048E0,-3.136691332E0,-9.305686951E0,1.322034448E-1
2.675209757E0,-3.208476067E0,-9.260223389E0,1.776670814E-1
2.684923402E0,-3.261118174E0,-9.243474007E0,1.995015889E-1
2.694637777E0,-3.287439108E0,-9.233902931E0,1.947159469E-1
2.704351267E0,-3.285046339E0,-9.248259544E0,1.561316848E-1
2.714064079E0,-3.246761322E0,-9.269794464E0,1.034895778E-1
2.723777673E0,-3.184547901E0,-9.291330338E0,7.716853172E-2
2.733492048E0,-3.122334480E0,-9.334401131E0,3.170489892E-2
2.743205642E0,-3.064906597E0,-9.351150513E0,-1.136590727E-2
2.752918350E0,-3.033800125E0,-9.370293617E0,-6.161518395E-2
2.762631996E0,-3.017050266E0,-9.370293617E0,-1.046859920E-1
2.772346319E0,-3.043371201E0,-9.358329773E0,-9.990034252E-2
2.782059913E0,-3.076870918E0,-9.358329773E0,-1.094716340E-1
2.791772673E0,-3.127120018E0,-9.339186668E0,-1.166501045E-1
2.801486267E0,-3.167798042E0,-9.341579437E0,-1.094716340E-1
2.811200642E0,-3.160619497E0,-9.329615593E0,-1.166501045E-1
2.820914236E0,-3.160619497E0,-9.303294182E0,-1.166501045E-1
2.830626944E0,-3.172583818E0,-9.310472488E0,-1.238285750E-1
2.840340590E0,-3.146262646E0,-9.322437286E0,-1.525424421E-1
2.850054913E0,-3.117548704E0,-9.353543282E0,-1.668993831E-1
2.859768507E0,-3.096013308E0,-9.353543282E0,-1.501496136E-1
2.869481215E0,-3.084049225E0,-9.358329773E0,-1.142572835E-1
2.879194861E0,-3.076870918E0,-9.358329773E0,-7.836493850E-2
2.888909236E0,-3.072085142E0,-9.348757744E0,-5.443671346E-2
2.898622725E0,-3.091227770E0,-9.336793900E0,-2.333002165E-2
2.908335538E0,-3.105584621E0,-9.332008362E0,-2.093719877E-2
2.918049184E0,-3.119941711E0,-9.348757744E0,-3.290131316E-2
2.927763507E0,-3.153441191E0,-9.351150513E0,-7.357929647E-2
2.937477100E0,-3.198904753E0,-9.348757744E0,-1.094716340E-1
2.947189809E0,-3.268296719E0,-9.334401131E0,-1.357926875E-1
2.956903454E0,-3.285046339E0,-9.334401131E0,-1.525424421E-1
2.966617829E0,-3.277868032E0,-9.317651749E0,-1.310070455E-1
2.976331319E0,-3.270689487E0,-9.305686951E0,-1.238285750E-1
2.986044132E0,-3.251546860E0,-9.286544800E0,-7.118647546E-2
2.995757725E0,-3.237190008E0,-9.267401695E0,-3.768695518E-2
3.005472100E0,-3.227618694E0,-9.262616158E0,-1.136590727E-2
3.015185694E0,-3.196511984E0,-9.269794464E0,1.256231871E-2
3.024898402E0,-3.158226728E0,-9.296115875E0,3.409772366E-2
3.034612048E0,-3.131905794E0,-9.324830055E0,4.366901144E-2
3.044326371E0,-3.076870918E0,-9.329615593E0,4.845465720E-2
3.054039965E0,-3.033800125E0,-9.327222824E0,5.563312769E-2
3.063752725E0,-3.021835804E0,-9.322437286E0,2.691925503E-2
3.073466319E0,-3.026621580E0,-9.348757744E0,-2.811566554E-2
3.083180694E0,-3.069692373E0,-9.355937004E0,-7.597211748E-2
3.092894184E0,-3.122334480E0,-9.332008362E0,-1.453639716E-1
3.102606996E0,-3.179762125E0,-9.305686951E0,-2.003988922E-1
3.112320642E0,-3.225225925E0,-9.300901413E0,-2.362912297E-1
3.122034965E0,-3.227618694E0,-9.312865257E0,-2.769692242E-1
3.131748559E0,-3.213261604E0,-9.329615593E0,-3.056831062E-1
3.141461267E0,-3.167798042E0,-9.365508080E0,-3.056831062E-1
3.151174913E0,-3.115155935E0,-9.389435768E0,-2.769692242E-1
3.160889288E0,-3.084049225E0,-9.418149948E0,-2.530409992E-1
3.170602777E0,-3.036192894E0,-9.408578873E0,-1.597209126E-1
3.180315590E0,-3.033800125E0,-9.387042999E0,-6.400800496E-2
3.190029184E0,-3.038585663E0,-9.346364975E0,5.084748194E-2
3.199743559E0,-3.086441994E0,-9.315258980E0,1.058823988E-1
3.209457152E0,-3.115155935E0,-9.281759262E0,1.776670814E-1
3.219169861E0,-3.170190811E0,-9.253045082E0,1.633101404E-1
3.228883507E0,-3.203690529E0,-9.269794464E0,1.465603858E-1
3.238597829E0,-3.225225925E0,-9.286544800E0,5.084748194E-2
3.248311423E0,-3.244368315E0,-9.308079720E0,-2.811566554E-2
3.258024132E0,-3.194119215E0,-9.322437286E0,-1.429711580E-1
3.267737777E0,-3.160619497E0,-9.329615593E0,-2.123630047E-1
3.277452152E0,-3.143869877E0,-9.322437286E0,-2.195414752E-1
3.287165642E0,-3.131905794E0,-9.308079720E0,-2.051845491E-1
3.296878454E0,-3.119941711E0,-9.305686951E0,-1.525424421E-1
3.306592048E0,-3.151048422E0,-9.322437286E0,-9.511470050E-2
3.316306423E0,-3.172583818E0,-9.329615593E0,-3.290131316E-2
3.326020017E0,-3.170190811E0,-9.363115311E0,-1.136590727E-2
3.335732725E0,-3.167798042E0,-9.353543282E0,-1.136590727E-2
3.345446319E0,-3.146262646E0,-9.334401131E0,-8.973085321E-3
3.355160694E0,-3.134298563E0,-9.339186668E0,-2.811566554E-2
3.364874288E0,-3.119941711E0,-9.334401131E0,-1.615155302E-2
3.374586996E0,-3.124727249E0,-9.334401131E0,-2.572284266E-2
3.384300642E0,-3.134298563E0,-9.332008362E0,5.982056609E-4
3.394015017E0,-3.153441191E0,-9.332008362E0,1.734796353E-2
3.403728507E0,-3.182155132E0,-9.334401131E0,2.213360928E-2
3.413441319E0,-3.196511984E0,-9.327222824E0,7.776673418E-3
3.423154913E0,-3.210868835E0,-9.327222824E0,-6.580262445E-3
3.432869288E0,-3.222832918E0,-9.317651749E0,-5.443671346E-2
3.442582777E0,-3.213261604E0,-9.298508644E0,-9.032905847E-2
3.452295590E0,-3.232404232E0,-9.284152031E0,-1.190429255E-1
3.462009184E0,-3.253939629E0,-9.293723106E0,-1.166501045E-1
3.471723559E0,-3.215654612E0,-9.310472488E0,-1.310070455E-1
3.481437152E0,-3.174976587E0,-9.334401131E0,-1.022931710E-1
3.491149861E0,-3.139084101E0,-9.346364975E0,-8.554340899E-2
3.500863507E0,-3.119941711E0,-9.346364975E0,-4.247260094E-2
3.510577829E0,-3.100799084E0,-9.334401131E0,5.982056609E-4
3.520291423E0,-3.112763166E0,-9.315258980E0,4.127619043E-2
3.530004132E0,-3.107977629E0,-9.298508644E0,5.802594870E-2
3.539717777E0,-3.124727249E0,-9.310472488E0,6.759724021E-2
3.549432100E0,-3.153441191E0,-9.308079720E0,4.127619043E-2
3.559145694E0,-3.165405273E0,-9.315258980E0,2.931207791E-2
3.568858402E0,-3.194119215E0,-9.332008362E0,-8.973085321E-3
3.578572048E0,-3.191726208E0,-9.358329773E0,-7.118647546E-2
3.588286423E0,-3.165405273E0,-9.367900848E0,-1.357926875E-1
3.597999913E0,-3.141477108E0,-9.363115311E0,-1.956132501E-1
3.607712725E0,-3.127120018E0,-9.367900848E0,-2.315055877E-1
3.617426319E0,-3.122334480E0,-9.370293617E0,-2.338984162E-1
3.627140694E0,-3.129513025E0,-9.365508080E0,-2.027917206E-1
3.636854184E0,-3.146262646E0,-9.355937004E0,-1.549352705E-1
3.646566996E0,-3.148655415E0,-9.339186668E0,-7.836493850E-2
3.656280590E0,-3.165405273E0,-9.312865257E0,-4.007977992E-2
3.665994965E0,-3.153441191E0,-9.312865257E0,5.383851007E-3
3.675708559E0,-3.165405273E0,-9.291330338E0,1.495514158E-2
3.685421267E0,-3.163012505E0,-9.267401695E0,4.127619043E-2
3.695134913E0,-3.182155132E0,-9.272188187E0,6.281159073E-2
3.704849236E0,-3.184547901E0,-9.286544800E0,1.034895778E-1
3.714562829E0,-3.179762125E0,-9.303294182E0,1.154536903E-1
3.724275538E0,-3.179762125E0,-9.324830055E0,1.082752272E-1
3.733989184E0,-3.146262646E0,-9.343972206E0,5.563312769E-2
3.743703507E0,-3.148655415E0,-9.351150513E0,7.776673418E-3
3.753417100E0,-3.134298563E0,-9.346364975E0,-5.682953820E-2
3.763129809E0,-3.122334480E0,-9.327222824E0,-1.094716340E-1
3.772843454E0,-3.107977629E0,-9.322437286E0,-1.549352705E-1
3.782557829E0,-3.096013308E0,-9.343972206E0,-1.501496136E-1
3.792271319E0,-3.119941711E0,-9.351150513E0,-1.477568001E-1
3.801984079E0,-3.119941711E0,-9.346364975E0,-9.750752151E-2
3.811697725E0,-3.131905794E0,-9.343972206E0,-7.118647546E-2
3.821412048E0,-3.163012505E0,-9.324830055E0,-5.443671346E-2
3.831125642E0,-3.174976587E0,-9.320044518E0,-5.443671346E-2
3.840838350E0,-3.184547901E0,-9.343972206E0,-4.965107143E-2
3.850551996E0,-3.189333439E0,-9.348757744E0,-3.529413417E-2
3.860266371E0,-3.179762125E0,-9.341579437E0,-1.615155302E-2
3.869979861E0,-3.160619497E0,-9.332008362E0,1.495514158E-2
3.879692621E0,-3.143869877E0,-9.298508644E0,2.691925503E-2
3.889406267E0,-3.146262646E0,-9.305686951E0,3.649054468E-2
3.899120642E0,-3.146262646E0,-9.308079720E0,2.931207791E-2
3.908834132E0,-3.127120018E0,-9.324830055E0,5.383851007E-3
3.918546892E0,-3.148655415E0,-9.324830055E0,-3.290131316E-2
3.928260538E0,-3.167798042E0,-9.346364975E0,-6.161518395E-2
3.937974913E0,-3.191726208E0,-9.343972206E0,-7.357929647E-2
3.947688402E0,-3.218047380E0,-9.341579437E0,-6.400800496E-2
3.957401163E0,-3.198904753E0,-9.329615593E0,-4.725824669E-2
3.967114809E0,-3.196511984E0,-9.317651749E0,-2.333002165E-2
3.976829184E0,-3.227618694E0,-9.315258980E0,1.256231871E-2
3.986542673E0,-3.234797001E0,-9.310472488E0,3.409772366E-2
3.996255486E0,-3.246761322E0,-9.291330338E0,3.170489892E-2
4.005969079E0,-3.253939629E0,-9.298508644E0,4.127619043E-2
4.015683454E0,-3.225225925E0,-9.291330338E0,2.931207791E-2
4.025396944E0,-3.213261604E0,-9.296115875E0,1.495514158E-2
4.035109704E0,-3.194119215E0,-9.300901413E0,1.256231871E-2
4.044823350E0,-3.170190811E0,-9.324830055E0,-1.136590727E-2
4.054537725E0,-3.136691332E0,-9.329615593E0,-6.640082598E-2
4.064251215E0,-3.110370398E0,-9.329615593E0,-8.554340899E-2
4.073963975E0,-3.084049225E0,-9.329615593E0,-1.357926875E-1
4.083677621E0,-3.067299604E0,-9.336793900E0,-1.621137410E-1
4.093391996E0,-3.072085142E0,-9.329615593E0,-1.477568001E-1
4.103105486E0,-3.098406315E0,-9.329615593E0,-9.032905847E-2
4.112818246E0,-3.119941711E0,-9.341579437E0,-4.965107143E-2
4.122531892E0,-3.148655415E0,-9.355937004E0,5.982056609E-4
4.132246267E0,-3.184547901E0,-9.365508080E0,1.734796353E-2
4.141959757E0,-3.203690529E0,-9.351150513E0,1.734796353E-2
4.151672517E0,-3.198904753E0,-9.353543282E0,-4.187439568E-3
4.161386163E0,-3.203690529E0,-9.353543282E0,-4.007977992E-2
4.171100486E0,-3.210868835E0,-9.346364975E0,-7.357929647E-2
4.180814079E0,-3.198904753E0,-9.351150513E0,-8.315058798E-2
4.190526788E0,-3.186940670E0,-9.370293617E0,-9.511470050E-2
4.200240434E0,-3.170190811E0,-9.358329773E0,-7.597211748E-2
4.209954757E0,-3.177369356E0,-9.341579437E0,-7.118647546E-2
4.219668350E0,-3.196511984E0,-9.312865257E0,-7.118647546E-2
4.229381059E0,-3.225225925E0,-9.298508644E0,-4.725824669E-2
4.239094704E0,-3.261118174E0,-9.272188187E0,-1.854437590E-2
4.248809027E0,-3.282653570E0,-9.257830620E0,-6.580262445E-3
4.258522621E0,-3.285046339E0,-9.245866776E0,2.452643216E-2
4.268235329E0,-3.275475025E0,-9.265008926E0,2.931207791E-2
4.277948975E0,-3.227618694E0,-9.300901413E0,3.888336942E-2
4.287663298E0,-3.177369356E0,-9.327222824E0,3.409772366E-2
4.297376892E0,-3.129513025E0,-9.341579437E0,3.649054468E-2
4.307089600E0,-3.096013308E0,-9.324830055E0,-6.580262445E-3
4.316803246E0,-3.124727249E0,-9.334401131E0,-4.965107143E-2
4.326517569E0,-3.184547901E0,-9.353543282E0,-9.272187948E-2
4.336231163E0,-3.232404232E0,-9.334401131E0,-1.238285750E-1
4.345943871E0,-3.227618694E0,-9.336793900E0,-1.621137410E-1
4.355657517E0,-3.218047380E0,-9.327222824E0,-1.860419661E-1
4.365371840E0,-3.167798042E0,-9.315258980E0,-1.716850251E-1
4.375085434E0,-3.148655415E0,-9.312865257E0,-1.501496136E-1
4.384798142E0,-3.131905794E0,-9.312865257E0,-1.453639716E-1
4.394511788E0,-3.103191853E0,-9.339186668E0,-1.286142170E-1
4.404226111E0,-3.124727249E0,-9.336793900E0,-9.990034252E-2
4.413939704E0,-3.131905794E0,-9.334401131E0,-7.357929647E-2
4.423652413E0,-3.136691332E0,-9.310472488E0,-9.032905847E-2
4.433366059E0,-3.134298563E0,-9.320044518E0,-9.032905847E-2
4.443080382E0,-3.100799084E0,-9.332008362E0,-1.070788130E-1
4.452793975E0,-3.096013308E0,-9.355937004E0,-1.118644550E-1
4.462506684E0,-3.088835001E0,-9.365508080E0,-1.166501045E-1
4.472220329E0,-3.103191853E0,-9.348757744E0,-1.166501045E-1
4.481934652E0,-3.107977629E0,-9.329615593E0,-8.793623000E-2
4.491648246E0,-3.110370398E0,-9.322437286E0,-6.161518395E-2
4.501360954E0,-3.160619497E0,-9.310472488E0,-2.811566554E-2
4.511074600E0,-3.186940670E0,-9.305686951E0,5.982056609E-4
4.520788923E0,-3.210868835E0,-9.300901413E0,2.991028363E-3
4.530502517E0,-3.220440149E0,-9.291330338E0,-2.811566554E-2
4.540215225E0,-3.241975546E0,-9.281759262E0,-6.400800496E-2
4.549928871E0,-3.251546860E0,-9.272188187E0,-1.262213886E-1
4.559643194E0,-3.265903711E0,-9.267401695E0,-1.764706671E-1
4.569356788E0,-3.261118174E0,-9.274580956E0,-2.267199457E-1
4.579069496E0,-3.232404232E0,-9.296115875E0,-2.315055877E-1
4.588783142E0,-3.222832918E0,-9.293723106E0,-1.884347796E-1
4.598497465E0,-3.184547901E0,-9.300901413E0,-1.357926875E-1
4.608211059E0,-3.134298563E0,-9.296115875E0,-7.836493850E-2
4.617923767E0,-3.093620539E0,-9.303294182E0,-4.725824669E-2
4.627637413E0,-3.084049225E0,-9.286544800E0,7.776673418E-3
4.637351736E0,-3.103191853E0,-9.303294182E0,2.452643216E-2
4.647065329E0,-3.136691332E0,-9.334401131E0,1.734796353E-2
4.656778038E0,-3.186940670E0,-9.379864693E0,-8.973085321E-3
4.666491684E0,-3.198904753E0,-9.399007797E0,-6.640082598E-2
4.676206007E0,-3.174976587E0,-9.384650230E0,-1.573280841E-1
4.685919600E0,-3.203690529E0,-9.353543282E0,-2.291127741E-1
4.695632309E0,-3.230011463E0,-9.332008362E0,-2.769692242E-1
4.705345954E0,-3.270689487E0,-9.317651749E0,-2.793620527E-1
4.715060277E0,-3.270689487E0,-9.308079720E0,-2.602194548E-1
4.724773871E0,-3.253939629E0,-9.291330338E0,-2.315055877E-1
4.734486579E0,-3.184547901E0,-9.284152031E0,-1.956132501E-1
4.744200225E0,-3.129513025E0,-9.276973724E0,-1.692921966E-1
4.753914548E0,-3.079263687E0,-9.284152031E0,-1.549352705E-1
4.763628142E0,-3.091227770E0,-9.293723106E0,-1.166501045E-1
4.773340850E0,-3.127120018E0,-9.298508644E0,-6.879365444E-2
4.783054496E0,-3.134298563E0,-9.315258980E0,-3.050848842E-2
4.792768819E0,-3.136691332E0,-9.348757744E0,-1.136590727E-2
4.802482413E0,-3.091227770E0,-9.360722542E0,-1.854437590E-2
4.812195173E0,-3.052942514E0,-9.391828537E0,-3.768695518E-2
4.821908767E0,-3.045764208E0,-9.372686386E0,-9.032905847E-2
4.831623142E0,-3.093620539E0,-9.351150513E0,-1.046859920E-1
4.841336632E0,-3.170190811E0,-9.322437286E0,-1.022931710E-1
4.851049444E0,-3.258725405E0,-9.303294182E0,-9.511470050E-2
4.860763038E0,-3.287439108E0,-9.303294182E0,-1.118644550E-1
4.870477413E0,-3.294617653E0,-9.288937569E0,-1.238285750E-1
4.880190902E0,-3.273082256E0,-9.296115875E0,-1.501496136E-1
4.889903715E0,-3.234797001E0,-9.291330338E0,-1.621137410E-1
4.899617309E0,-3.203690529E0,-9.303294182E0,-1.573280841E-1
4.909331684E0,-3.177369356E0,-9.310472488E0,-1.716850251E-1
4.919045173E0,-3.153441191E0,-9.303294182E0,-1.453639716E-1
4.928757986E0,-3.165405273E0,-9.305686951E0,-1.142572835E-1
4.938471579E0,-3.182155132E0,-9.320044518E0,-9.511470050E-2
4.948185954E0,-3.234797001E0,-9.324830055E0,-7.597211748E-2
4.957899548E0,-3.263510942E0,-9.324830055E0,-4.965107143E-2
4.967612257E0,-3.275475025E0,-9.288937569E0,-6.640082598E-2
4.977325850E0,-3.268296719E0,-9.255437851E0,-7.118647546E-2
4.987040225E0,-3.249154091E0,-9.238688469E0,-8.793623000E-2
4.996753819E0,-3.215654612E0,-9.224330902E0,-8.793623000E-2
5.006466527E0,-3.174976587E0,-9.257830620E0,-9.272187948E-2
5.016180173E0,-3.127120018E0,-9.334401131E0,-8.075776696E-2
5.025894496E0,-3.072085142E0,-9.418149948E0,-9.511470050E-2
5.035608090E0,-3.048156977E0,-9.454042435E0,-1.070788130E-1
5.045320798E0,-3.069692373E0,-9.437292099E0,-1.190429255E-1
5.055034444E0,-3.124727249E0,-9.391828537E0,-1.310070455E-1
5.064748819E0,-3.225225925E0,-9.343972206E0,-1.046859920E-1
5.074462309E0,-3.292224884E0,-9.281759262E0,-9.750752151E-2
5.084175121E0,-3.335295677E0,-9.243474007E0,-9.990034252E-2
5.093888715E0,-3.316153049E0,-9.212367058E0,-1.094716340E-1
5.103603090E0,-3.256332397E0,-9.207581520E0,-1.142572835E-1
5.113316579E0,-3.177369356E0,-9.243474007E0,-1.094716340E-1
5.123029392E0,-3.100799084E0,-9.293723106E0,-8.315058798E-2
5.132742986E0,-3.050549746E0,-9.343972206E0,-6.161518395E-2
5.142457361E0,-3.000300407E0,-9.363115311E0,-6.161518395E-2
5.152170954E0,-2.969193697E0,-9.375079155E0,-8.075776696E-2
5.161883663E0,-2.964408159E0,-9.353543282E0,-1.094716340E-1
5.171597309E0,-2.990729094E0,-9.358329773E0,-1.429711580E-1
5.181311632E0,-3.043371201E0,-9.360722542E0,-1.310070455E-1
5.191025225E0,-3.131905794E0,-9.375079155E0,-8.554340899E-2
5.200737934E0,-3.201297522E0,-9.360722542E0,-4.725824669E-2
5.210451579E0,-3.275475025E0,-9.332008362E0,-2.572284266E-2
5.220165902E0,-3.299403429E0,-9.300901413E0,-1.615155302E-2
5.229879496E0,-3.320938826E0,-9.279366493E0,-4.486542568E-2
5.239592204E0,-3.320938826E0,-9.293723106E0,-9.750752151E-2
5.249305850E0,-3.304188967E0,-9.308079720E0,-1.166501045E-1
5.259020225E0,-3.253939629E0,-9.305686951E0,-1.142572835E-1
5.268733715E0,-3.215654612E0,-9.315258980E0,-8.315058798E-2
5.278446527E0,-3.208476067E0,-9.300901413E0,-4.486542568E-2
5.288160121E0,-3.206083298E0,-9.303294182E0,-2.811566554E-2
5.297874496E0,-3.198904753E0,-9.296115875E0,-2.093719877E-2
5.307587986E0,-3.213261604E0,-9.298508644E0,-1.615155302E-2
5.317300798E0,-3.234797001E0,-9.327222824E0,-4.007977992E-2
5.327014392E0,-3.239582777E0,-9.332008362E0,-4.486542568E-2
5.336728767E0,-3.232404232E0,-9.334401131E0,-5.443671346E-2
5.346442361E0,-3.249154091E0,-9.322437286E0,-4.247260094E-2
5.356155069E0,-3.261118174E0,-9.298508644E0,-1.615155302E-2
5.365868715E0,-3.270689487E0,-9.308079720E0,-1.615155302E-2
5.375583038E0,-3.263510942E0,-9.305686951E0,5.383851007E-3
5.385296632E0,-3.241975546E0,-9.310472488E0,1.495514158E-2
5.395009340E0,-3.201297522E0,-9.315258980E0,2.452643216E-2
5.404722986E0,-3.177369356E0,-9.312865257E0,4.606183618E-2
5.414437361E0,-3.155833960E0,-9.293723106E0,6.999006122E-2
5.424150850E0,-3.153441191E0,-9.284152031E0,6.041877344E-2
5.433863611E0,-3.134298563E0,-9.291330338E0,3.649054468E-2
5.443577257E0,-3.143869877E0,-9.320044518E0,1.016949583E-2
5.453291632E0,-3.146262646E0,-9.339186668E0,-4.187439568E-3
5.463005121E0,-3.167798042E0,-9.351150513E0,-1.854437590E-2
5.472717934E0,-3.184547901E0,-9.351150513E0,-1.854437590E-2
5.482431527E0,-3.215654612E0,-9.324830055E0,-1.615155302E-2
5.492145902E0,-3.241975546E0,-9.291330338E0,-4.187439568E-3
5.501859392E0,-3.232404232E0,-9.279366493E0,1.016949583E-2
5.511572204E0,-3.261118174E0,-9.281759262E0,1.495514158E-2
5.521285798E0,-3.263510942E0,-9.286544800E0,1.734796353E-2
5.531000173E0,-3.263510942E0,-9.324830055E0,-8.973085321E-3
5.540713767E0,-3.227618694E0,-9.363115311E0,-3.529413417E-2
5.550426475E0,-3.179762125E0,-9.365508080E0,-6.640082598E-2
5.560140121E0,-3.165405273E0,-9.343972206E0,-4.486542568E-2
5.569854444E0,-3.163012505E0,-9.329615593E0,-1.854437590E-2
5.579568038E0,-3.153441191E0,-9.296115875E0,2.991028363E-3
5.589280746E0,-3.163012505E0,-9.269794464E0,2.691925503E-2
5.598994392E0,-3.191726208E0,-9.269794464E0,2.691925503E-2
5.608708715E0,-3.194119215E0,-9.269794464E0,2.213360928E-2
5.618422309E0,-3.194119215E0,-9.279366493E0,2.991028363E-3
5.628135017E0,-3.174976587E0,-9.308079720E0,-6.580262445E-3
5.637848663E0,-3.155833960E0,-9.310472488E0,-4.247260094E-2
5.647563038E0,-3.151048422E0,-9.339186668E0,-4.965107143E-2
5.657276527E0,-3.146262646E0,-9.363115311E0,-6.400800496E-2
5.666989288E0,-3.151048422E0,-9.367900848E0,-6.161518395E-2
5.676702934E0,-3.160619497E0,-9.363115311E0,-6.879365444E-2
5.686417309E0,-3.165405273E0,-9.353543282E0,-7.118647546E-2
5.696130798E0,-3.172583818E0,-9.327222824E0,-7.836493850E-2
5.705843611E0,-3.218047380E0,-9.310472488E0,-8.075776696E-2
5.715557204E0,-3.244368315E0,-9.315258980E0,-8.793623000E-2
5.725271579E0,-3.258725405E0,-9.296115875E0,-9.272187948E-2
5.734985069E0,-3.270689487E0,-9.293723106E0,-9.511470050E-2
5.744697882E0,-3.244368315E0,-9.272188187E0,-8.554340899E-2
5.754411475E0,-3.230011463E0,-9.281759262E0,-7.118647546E-2
5.764125850E0,-3.208476067E0,-9.291330338E0,-3.290131316E-2
5.773839340E0,-3.198904753E0,-9.300901413E0,-1.615155302E-2
5.783552152E0,-3.184547901E0,-9.305686951E0,1.256231871E-2
5.793265746E0,-3.196511984E0,-9.315258980E0,1.256231871E-2
5.802980121E0,-3.213261604E0,-9.310472488E0,2.931207791E-2
5.812693611E0,-3.232404232E0,-9.296115875E0,3.409772366E-2
5.822406423E0,-3.261118174E0,-9.291330338E0,1.974078640E-2
5.832120017E0,-3.261118174E0,-9.288937569E0,2.213360928E-2
5.841834392E0,-3.270689487E0,-9.288937569E0,-4.187439568E-3
5.851547986E0,-3.280260801E0,-9.300901413E0,-4.247260094E-2
5.861260694E0,-3.263510942E0,-9.315258980E0,-7.597211748E-2
5.870974288E0,-3.253939629E0,-9.312865257E0,-1.166501045E-1
5.880688663E0,-3.222832918E0,-9.327222824E0,-1.549352705E-1
5.890402257E0,-3.201297522E0,-9.303294182E0,-1.501496136E-1
5.900114965E0,-3.191726208E0,-9.298508644E0,-1.142572835E-1
5.909828559E0,-3.165405273E0,-9.272188187E0,-4.725824669E-2
5.919542934E0,-3.163012505E0,-9.279366493E0,-1.794616925E-3
5.929256527E0,-3.151048422E0,-9.284152031E0,3.170489892E-2
5.938969236E0,-3.151048422E0,-9.296115875E0,3.888336942E-2
5.948682882E0,-3.158226728E0,-9.300901413E0,1.734796353E-2
5.958397204E0,-3.160619497E0,-9.320044518E0,-4.007977992E-2
5.968110798E0,-3.165405273E0,-9.365508080E0,-8.315058798E-2
5.977823507E0,-3.172583818E0,-9.367900848E0,-1.214357466E-1
5.987537100E0,-3.186940670E0,-9.363115311E0,-1.477568001E-1
5.997251475E0,-3.186940670E0,-9.341579437E0,-1.381855011E-1
6.006965069E0,-3.210868835E0,-9.329615593E0,-1.118644550E-1
6.016677777E0,-3.208476067E0,-9.312865257E0,-1.046859920E-1
6.026391371E0,-3.210868835E0,-9.329615593E0,-1.070788130E-1
6.036105746E0,-3.160619497E0,-9.322437286E0,-1.046859920E-1
6.045819340E0,-3.153441191E0,-9.320044518E0,-1.022931710E-1
6.055532048E0,-3.148655415E0,-9.296115875E0,-7.836493850E-2
6.065245642E0,-3.167798042E0,-9.260223389E0,-4.965107143E-2
6.074960017E0,-3.179762125E0,-9.255437851E0,-1.615155302E-2
6.084673611E0,-3.213261604E0,-9.257830620E0,1.256231871E-2
6.094386319E0,-3.239582777E0,-9.265008926E0,3.170489892E-2
6.104099913E0,-3.258725405E0,-9.267401695E0,6.759724021E-2
6.113814288E0,-3.265903711E0,-9.269794464E0,6.520441920E-2
6.123527882E0,-3.270689487E0,-9.262616158E0,6.520441920E-2
6.133240590E0,-3.263510942E0,-9.269794464E0,3.888336942E-2
6.142954184E0,-3.253939629E0,-9.322437286E0,-4.187439568E-3
6.152668559E0,-3.251546860E0,-9.358329773E0,-5.204389244E-2
6.162382048E0,-3.258725405E0,-9.403793335E0,-8.554340899E-2
6.172094861E0,-3.270689487E0,-9.394221306E0,-1.286142170E-1
6.181808454E0,-3.294617653E0,-9.363115311E0,-1.357926875E-1
6.191522829E0,-3.313760281E0,-9.315258980E0,-1.429711580E-1
6.201236319E0,-3.323331594E0,-9.286544800E0,-1.405783296E-1
6.210949132E0,-3.318545818E0,-9.265008926E0,-1.310070455E-1
6.220662725E0,-3.328117132E0,-9.245866776E0,-8.793623000E-2
6.230377100E0,-3.323331594E0,-9.229117393E0,-4.965107143E-2
6.240090590E0,-3.299403429E0,-9.217152596E0,-2.811566554E-2
6.249803350E0,-3.251546860E0,-9.212367058E0,2.991028363E-3
6.259516996E0,-3.215654612E0,-9.253045082E0,1.974078640E-2
6.269231371E0,-3.172583818E0,-9.312865257E0,3.649054468E-2
6.278944861E0,-3.124727249E0,-9.341579437E0,5.324030295E-2
6.288657621E0,-3.117548704E0,-9.339186668E0,5.563312769E-2
6.298371267E0,-3.119941711E0,-9.341579437E0,5.084748194E-2
6.308085590E0,-3.146262646E0,-9.343972206E0,2.213360928E-2
6.317799184E0,-3.170190811E0,-9.341579437E0,-6.580262445E-3
6.327511892E0,-3.189333439E0,-9.341579437E0,-6.161518395E-2
6.337225538E0,-3.232404232E0,-9.324830055E0,-8.793623000E-2
6.346939861E0,-3.263510942E0,-9.303294182E0,-1.262213886E-1
6.356653454E0,-3.263510942E0,-9.317651749E0,-1.597209126E-1
6.366366163E0,-3.251546860E0,-9.315258980E0,-1.716850251E-1
6.376079757E0,-3.227618694E0,-9.317651749E0,-1.860419661E-1
6.385794132E0,-3.203690529E0,-9.312865257E0,-1.621137410E-1
6.395507621E0,-3.174976587E0,-9.329615593E0,-1.262213886E-1
6.405220434E0,-3.179762125E0,-9.332008362E0,-7.357929647E-2
6.414934027E0,-3.172583818E0,-9.315258980E0,-2.093719877E-2
6.424648402E0,-3.186940670E0,-9.293723106E0,2.452643216E-2
6.434361892E0,-3.208476067E0,-9.296115875E0,5.084748194E-2
6.444074704E0,-3.222832918E0,-9.303294182E0,6.759724021E-2
6.453788298E0,-3.213261604E0,-9.312865257E0,6.759724021E-2
6.463502673E0,-3.208476067E0,-9.298508644E0,6.041877344E-2
6.473216163E0,-3.208476067E0,-9.279366493E0,2.213360928E-2
6.482928923E0,-3.206083298E0,-9.260223389E0,-1.615155302E-2
6.492642569E0,-3.206083298E0,-9.250652313E0,-4.725824669E-2
6.502356892E0,-3.222832918E0,-9.245866776E0,-7.357929647E-2
6.512070486E0,-3.218047380E0,-9.267401695E0,-9.750752151E-2
6.521783194E0,-3.210868835E0,-9.281759262E0,-9.750752151E-2
6.531496788E0,-3.191726208E0,-9.300901413E0,-8.315058798E-2
6.541211163E0,-3.172583818E0,-9.324830055E0,-6.640082598E-2
6.550924652E0,-3.153441191E0,-9.360722542E0,-4.725824669E-2
6.560637465E0,-3.148655415E0,-9.355937004E0,-4.965107143E-2
6.570351059E0,-3.122334480E0,-9.363115311E0,-5.443671346E-2
6.580065434E0,-3.139084101E0,-9.358329773E0,-5.204389244E-2
6.589778923E0,-3.165405273E0,-9.363115311E0,-5.682953820E-2
6.599491684E0,-3.148655415E0,-9.379864693E0,-6.400800496E-2
6.609205329E0,-3.146262646E0,-9.367900848E0,-1.046859920E-1
6.618919652E0,-3.153441191E0,-9.346364975E0,-1.573280841E-1
6.628633246E0,-3.172583818E0,-9.324830055E0,-1.884347796E-1
6.638345954E0,-3.210868835E0,-9.300901413E0,-2.315055877E-1
6.648059548E0,-3.227618694E0,-9.293723106E0,-2.362912297E-1
6.657773923E0,-3.210868835E0,-9.286544800E0,-2.482553422E-1
6.667487413E0,-3.210868835E0,-9.288937569E0,-2.099701911E-1
6.677200225E0,-3.213261604E0,-9.279366493E0,-1.525424421E-1
6.686913819E0,-3.213261604E0,-9.286544800E0,-8.075776696E-2
6.696628142E0,-3.213261604E0,-9.284152031E0,-3.768695518E-2
6.706341736E0,-3.208476067E0,-9.288937569E0,-1.136590727E-2
6.716054444E0,-3.203690529E0,-9.274580956E0,-1.794616925E-3
6.725768090E0,-3.208476067E0,-9.288937569E0,-6.580262445E-3
6.735482413E0,-3.203690529E0,-9.279366493E0,2.931207791E-2
6.745195902E0,-3.206083298E0,-9.265008926E0,4.606183618E-2
6.754908715E0,-3.215654612E0,-9.262616158E0,5.802594870E-2
6.764622309E0,-3.215654612E0,-9.265008926E0,4.127619043E-2
6.774336684E0,-3.222832918E0,-9.296115875E0,-8.973085321E-3
6.784050173E0,-3.237190008E0,-9.329615593E0,-7.357929647E-2
6.793762934E0,-3.249154091E0,-9.348757744E0,-1.310070455E-1
6.803476579E0,-3.239582777E0,-9.343972206E0,-1.860419661E-1
6.813190902E0,-3.208476067E0,-9.339186668E0,-2.410768867E-1
6.822904496E0,-3.184547901E0,-9.327222824E0,-2.602194548E-1
6.832617204E0,-3.153441191E0,-9.339186668E0,-2.602194548E-1
6.842330798E0,-3.151048422E0,-9.334401131E0,-2.386840582E-1
6.852045173E0,-3.155833960E0,-9.312865257E0,-1.812563092E-1
6.861758663E0,-3.172583818E0,-9.305686951E0,-1.262213886E-1
6.871471423E0,-3.196511984E0,-9.279366493E0,-7.836493850E-2
6.881185069E0,-3.206083298E0,-9.262616158E0,-3.529413417E-2
6.890899392E0,-3.196511984E0,-9.265008926E0,-1.136590727E-2
6.900612986E0,-3.201297522E0,-9.296115875E0,2.991028363E-3
6.910325694E0,-3.196511984E0,-9.317651749E0,5.383851007E-3
6.920039288E0,-3.215654612E0,-9.334401131E0,1.974078640E-2
6.929753663E0,-3.208476067E0,-9.334401131E0,2.991028363E-3
6.939467152E0,-3.208476067E0,-9.341579437E0,-2.572284266E-2
6.949179913E0,-3.220440149E0,-9.327222824E0,-7.118647546E-2
6.958893559E0,-3.215654612E0,-9.317651749E0,-1.046859920E-1
6.968607882E0,-3.230011463E0,-9.288937569E0,-1.214357466E-1
6.978321371E0,-3.258725405E0,-9.286544800E0,-1.190429255E-1
6.988034184E0,-3.282653570E0,-9.276973724E0,-9.990034252E-2
6.997747777E0,-3.277868032E0,-9.288937569E0,-8.793623000E-2
7.007462152E0,-3.275475025E0,-9.308079720E0,-7.118647546E-2
7.017175642E0,-3.230011463E0,-9.305686951E0,-7.357929647E-2
7.026888402E0,-3.191726208E0,-9.286544800E0,-7.118647546E-2
7.036601996E0,-3.174976587E0,-9.279366493E0,-6.161518395E-2
7.046316371E0,-3.160619497E0,-9.274580956E0,-7.357929647E-2
7.056029861E0,-3.146262646E0,-9.284152031E0,-8.075776696E-2
7.065742673E0,-3.167798042E0,-9.312865257E0,-7.357929647E-2
7.075456267E0,-3.148655415E0,-9.332008362E0,-7.597211748E-2
7.085170590E0,-3.143869877E0,-9.336793900E0,-7.597211748E-2
7.094884184E0,-3.141477108E0,-9.346364975E0,-8.315058798E-2
7.104596892E0,-3.134298563E0,-9.372686386E0,-6.640082598E-2
7.114310486E0,-3.139084101E0,-9.382257462E0,-7.597211748E-2
7.124024861E0,-3.131905794E0,-9.372686386E0,-5.682953820E-2
7.133738350E0,-3.163012505E0,-9.348757744E0,-4.725824669E-2
7.143451111E0,-3.208476067E0,-9.315258980E0,-3.050848842E-2
7.153164757E0,-3.241975546E0,-9.281759262E0,-4.007977992E-2
7.162879079E0,-3.261118174E0,-9.260223389E0,-5.682953820E-2
7.172592569E0,-3.268296719E0,-9.265008926E0,-9.511470050E-2
7.182305382E0,-3.273082256E0,-9.281759262E0,-1.190429255E-1
7.192018975E0,-3.251546860E0,-9.303294182E0,-1.405783296E-1
7.201733298E0,-3.232404232E0,-9.315258980E0,-1.310070455E-1
7.211446892E0,-3.222832918E0,-9.315258980E0,-9.511470050E-2
7.221159600E0,-3.203690529E0,-9.317651749E0,-6.879365444E-2
7.230873194E0,-3.198904753E0,-9.310472488E0,-3.290131316E-2
7.240587569E0,-3.184547901E0,-9.296115875E0,-1.854437590E-2
7.250301059E0,-3.196511984E0,-9.298508644E0,-1.854437590E-2
7.260013819E0,-3.203690529E0,-9.291330338E0,-2.572284266E-2
7.269727413E0,-3.218047380E0,-9.291330338E0,-3.290131316E-2
7.279441788E0,-3.210868835E0,-9.286544800E0,-4.007977992E-2
7.289155277E0,-3.194119215E0,-9.288937569E0,-5.682953820E-2
7.298868038E0,-3.177369356E0,-9.303294182E0,-6.400800496E-2
7.308581684E0,-3.184547901E0,-9.315258980E0,-9.272187948E-2
7.318296007E0,-3.184547901E0,-9.312865257E0,-1.022931710E-1
7.328009600E0,-3.220440149E0,-9.303294182E0,-1.022931710E-1
7.337722309E0,-3.244368315E0,-9.312865257E0,-8.075776696E-2
7.347435902E0,-3.256332397E0,-9.296115875E0,-8.075776696E-2
7.357150225E0,-3.251546860E0,-9.272188187E0,-7.836493850E-2
7.366863819E0,-3.270689487E0,-9.281759262E0,-7.357929647E-2
7.376576527E0,-3.241975546E0,-9.281759262E0,-5.682953820E-2
7.386290121E0,-3.198904753E0,-9.288937569E0,-7.118647546E-2
7.396004496E0,-3.186940670E0,-9.286544800E0,-6.879365444E-2
7.405717986E0,-3.172583818E0,-9.303294182E0,-5.682953820E-2
7.415430746E0,-3.165405273E0,-9.322437286E0,-5.443671346E-2
7.425144340E0,-3.189333439E0,-9.320044518E0,-2.333002165E-2
7.434858715E0,-3.203690529E0,-9.310472488E0,-8.973085321E-3
7.444572204E0,-3.210868835E0,-9.310472488E0,-2.572284266E-2
7.454284965E0,-3.218047380E0,-9.291330338E0,-3.529413417E-2
7.463998559E0,-3.234797001E0,-9.288937569E0,-5.682953820E-2
7.473712934E0,-3.244368315E0,-9.303294182E0,-7.597211748E-2
7.483426423E0,-3.237190008E0,-9.317651749E0,-8.315058798E-2
7.493139184E0,-3.227618694E0,-9.303294182E0,-6.879365444E-2
7.502852829E0,-3.215654612E0,-9.300901413E0,-3.050848842E-2
7.512567152E0,-3.215654612E0,-9.291330338E0,1.974078640E-2
7.522280642E0,-3.210868835E0,-9.265008926E0,4.127619043E-2
7.531993454E0,-3.246761322E0,-9.257830620E0,4.845465720E-2
7.541707048E0,-3.265903711E0,-9.231510162E0,2.931207791E-2
7.551421371E0,-3.280260801E0,-9.248259544E0,-8.973085321E-3
7.561134861E0,-3.294617653E0,-9.262616158E0,-7.357929647E-2
7.570847673E0,-3.270689487E0,-9.300901413E0,-1.238285750E-1
7.580561267E0,-3.232404232E0,-9.296115875E0,-2.123630047E-1
7.590275590E0,-3.165405273E0,-9.346364975E0,-2.626122832E-1
7.599989184E0,-3.107977629E0,-9.379864693E0,-2.626122832E-1
7.609701892E0,-3.079263687E0,-9.396614075E0,-2.434697002E-1
7.619415486E0,-3.076870918E0,-9.403793335E0,-1.716850251E-1
7.629129809E0,-3.091227770E0,-9.418149948E0,-8.315058798E-2
7.638843402E0,-3.153441191E0,-9.384650230E0,1.016949583E-2
7.648556111E0,-3.201297522E0,-9.348757744E0,7.477571070E-2
7.658269704E0,-3.275475025E0,-9.305686951E0,1.178465188E-1
7.667984027E0,-3.332902908E0,-9.274580956E0,1.082752272E-1
7.677697621E0,-3.352045536E0,-9.253045082E0,8.195417374E-2
7.687410329E0,-3.337688446E0,-9.243474007E0,1.256231871E-2
7.697123923E0,-3.299403429E0,-9.257830620E0,-6.879365444E-2
7.706838246E0,-3.220440149E0,-9.267401695E0,-1.286142170E-1
7.716551840E0,-3.167798042E0,-9.284152031E0,-1.549352705E-1
7.726264548E0,-3.098406315E0,-9.305686951E0,-1.310070455E-1
7.735978142E0,-3.050549746E0,-9.322437286E0,-5.204389244E-2
7.745692465E0,-3.043371201E0,-9.327222824E0,4.127619043E-2
7.755406059E0,-3.050549746E0,-9.315258980E0,1.274178028E-1
7.765118767E0,-3.076870918E0,-9.320044518E0,1.947159469E-1
7.774832361E0,-3.151048422E0,-9.310472488E0,2.282154560E-1
7.784546736E0,-3.237190008E0,-9.291330338E0,2.401795685E-1
7.794260225E0,-3.289832115E0,-9.286544800E0,2.138585299E-1
7.803972986E0,-3.308974504E0,-9.279366493E0,1.657029688E-1
7.813686579E0,-3.325724363E0,-9.267401695E0,8.434699476E-2
7.823400902E0,-3.325724363E0,-9.284152031E0,7.776673418E-3
7.833114496E0,-3.306581736E0,-9.315258980E0,-6.161518395E-2
7.842827204E0,-3.263510942E0,-9.327222824E0,-1.214357466E-1
7.852540798E0,-3.222832918E0,-9.353543282E0,-1.405783296E-1
7.862255121E0,-3.186940670E0,-9.365508080E0,-1.645065546E-1
7.871968715E0,-3.148655415E0,-9.370293617E0,-1.716850251E-1
7.881681423E0,-3.124727249E0,-9.370293617E0,-1.621137410E-1
7.891395017E0,-3.103191853E0,-9.387042999E0,-1.525424421E-1
7.901109340E0,-3.096013308E0,-9.377471924E0,-1.190429255E-1
7.910822934E0,-3.112763166E0,-9.358329773E0,-7.597211748E-2
7.920535642E0,-3.136691332E0,-9.315258980E0,-1.615155302E-2
7.930249236E0,-3.172583818E0,-9.269794464E0,1.734796353E-2
7.939963559E0,-3.210868835E0,-9.233902931E0,6.999006122E-2
7.949677048E0,-3.275475025E0,-9.229117393E0,9.631111473E-2
7.959389861E0,-3.308974504E0,-9.255437851E0,1.226321608E-1
7.969103454E0,-3.335295677E0,-9.305686951E0,1.154536903E-1
7.978817777E0,-3.318545818E0,-9.317651749E0,6.759724021E-2
7.988531267E0,-3.280260801E0,-9.322437286E0,1.974078640E-2
7.998244027E0,-3.261118174E0,-9.305686951E0,-2.572284266E-2
8.007957673E0,-3.261118174E0,-9.291330338E0,-4.965107143E-2
8.017671996E0,-3.244368315E0,-9.286544800E0,-5.682953820E-2
8.027385486E0,-3.239582777E0,-9.293723106E0,-6.879365444E-2
8.037098246E0,-3.237190008E0,-9.315258980E0,-5.922235921E-2
8.046811892E0,-3.244368315E0,-9.315258980E0,-4.247260094E-2
8.056526215E0,-3.251546860E0,-9.300901413E0,-2.811566554E-2
8.066239704E0,-3.261118174E0,-9.293723106E0,-8.973085321E-3
8.075952465E0,-3.263510942E0,-9.288937569E0,1.495514158E-2
8.085666059E0,-3.275475025E0,-9.281759262E0,3.649054468E-2
8.095380434E0,-3.261118174E0,-9.291330338E0,4.606183618E-2
8.105093923E0,-3.261118174E0,-9.300901413E0,5.324030295E-2
8.114806684E0,-3.244368315E0,-9.300901413E0,5.563312769E-2
8.124520277E0,-3.213261604E0,-9.317651749E0,5.563312769E-2
8.134234652E0,-3.172583818E0,-9.308079720E0,5.084748194E-2
8.143948142E0,-3.151048422E0,-9.300901413E0,3.888336942E-2
8.153660902E0,-3.146262646E0,-9.317651749E0,4.127619043E-2
8.163374496E0,-3.134298563E0,-9.322437286E0,4.606183618E-2
8.173088819E0,-3.143869877E0,-9.334401131E0,5.563312769E-2
8.182802413E0,-3.153441191E0,-9.343972206E0,4.606183618E-2
8.192515121E0,-3.158226728E0,-9.346364975E0,1.256231871E-2
8.202228715E0,-3.179762125E0,-9.339186668E0,-3.050848842E-2
8.211943038E0,-3.213261604E0,-9.327222824E0,-6.161518395E-2
8.221656527E0,-3.237190008E0,-9.305686951E0,-6.640082598E-2
8.231369288E0,-3.237190008E0,-9.284152031E0,-6.400800496E-2
8.241082934E0,-3.222832918E0,-9.265008926E0,-4.187439568E-3
8.250797257E0,-3.201297522E0,-9.279366493E0,1.256231871E-2
8.260510746E0,-3.184547901E0,-9.281759262E0,5.563312769E-2
8.270223507E0,-3.196511984E0,-9.288937569E0,7.956135273E-2
8.279937100E0,-3.222832918E0,-9.305686951E0,1.082752272E-1
8.289651475E0,-3.239582777E0,-9.322437286E0,1.034895778E-1
8.299364965E0,-3.241975546E0,-9.322437286E0,9.152546525E-2
8.309077725E0,-3.230011463E0,-9.329615593E0,6.281159073E-2
8.318791319E0,-3.215654612E0,-9.329615593E0,3.170489892E-2
8.328505642E0,-3.210868835E0,-9.310472488E0,1.256231871E-2
8.338219236E0,-3.218047380E0,-9.310472488E0,1.495514158E-2
8.347931944E0,-3.220440149E0,-9.305686951E0,7.776673418E-3
8.357645538E0,-3.232404232E0,-9.298508644E0,1.734796353E-2
8.367359861E0,-3.234797001E0,-9.288937569E0,1.256231871E-2
8.377073350E0,-3.232404232E0,-9.286544800E0,-1.136590727E-2
8.386786111E0,-3.230011463E0,-9.284152031E0,-4.007977992E-2
8.396499757E0,-3.251546860E0,-9.291330338E0,-4.486542568E-2
8.406214079E0,-3.249154091E0,-9.291330338E0,-6.161518395E-2
8.415927569E0,-3.222832918E0,-9.308079720E0,-6.161518395E-2
8.425640329E0,-3.186940670E0,-9.317651749E0,-4.247260094E-2
8.435353923E0,-3.170190811E0,-9.315258980E0,-2.333002165E-2
8.445068246E0,-3.167798042E0,-9.322437286E0,1.974078640E-2
8.454781840E0,-3.170190811E0,-9.317651749E0,6.281159073E-2
8.464494548E0,-3.155833960E0,-9.341579437E0,8.195417374E-2
8.474208142E0,-3.174976587E0,-9.353543282E0,7.716853172E-2
8.483922465E0,-3.163012505E0,-9.341579437E0,8.673982322E-2
8.493635954E0,-3.189333439E0,-9.293723106E0,8.913264424E-2
8.503348715E0,-3.210868835E0,-9.262616158E0,5.563312769E-2
8.513062309E0,-3.261118174E0,-9.245866776E0,4.127619043E-2
8.522776684E0,-3.270689487E0,-9.231510162E0,2.213360928E-2
8.532490173E0,-3.273082256E0,-9.250652313E0,-1.615155302E-2
8.542202934E0,-3.241975546E0,-9.265008926E0,-5.443671346E-2
8.551916527E0,-3.208476067E0,-9.303294182E0,-8.075776696E-2
8.561630850E0,-3.155833960E0,-9.334401131E0,-9.032905847E-2
8.571344444E0,-3.127120018E0,-9.372686386E0,-8.075776696E-2
8.581057100E0,-3.124727249E0,-9.382257462E0,-6.640082598E-2
8.590770746E0,-3.129513025E0,-9.365508080E0,-1.854437590E-2
8.600485069E0,-3.163012505E0,-9.353543282E0,1.734796353E-2
8.610198559E0,-3.215654612E0,-9.336793900E0,5.324030295E-2
8.619911319E0,-3.253939629E0,-9.296115875E0,4.845465720E-2
8.629624913E0,-3.270689487E0,-9.279366493E0,2.931207791E-2
8.639339236E0,-3.265903711E0,-9.281759262E0,7.776673418E-3
8.649052829E0,-3.256332397E0,-9.300901413E0,-2.811566554E-2
8.658765538E0,-3.239582777E0,-9.305686951E0,-4.007977992E-2
8.668479132E0,-3.218047380E0,-9.303294182E0,-2.093719877E-2
8.678193454E0,-3.189333439E0,-9.293723106E0,-1.794616925E-3
8.687906944E0,-3.184547901E0,-9.262616158E0,1.495514158E-2
8.697619704E0,-3.177369356E0,-9.265008926E0,2.452643216E-2
8.707333298E0,-3.196511984E0,-9.265008926E0,4.606183618E-2
8.717047673E0,-3.186940670E0,-9.272188187E0,6.041877344E-2
8.726761163E0,-3.172583818E0,-9.288937569E0,7.238288224E-2
8.736473923E0,-3.165405273E0,-9.312865257E0,6.999006122E-2
8.746187517E0,-3.158226728E0,-9.343972206E0,7.477571070E-2
8.755901840E0,-3.143869877E0,-9.370293617E0,5.563312769E-2
8.765615329E0,-3.153441191E0,-9.367900848E0,3.409772366E-2
8.775328090E0,-3.179762125E0,-9.339186668E0,2.213360928E-2
8.785041684E0,-3.218047380E0,-9.312865257E0,2.991028363E-3
8.794756059E0,-3.256332397E0,-9.298508644E0,-1.375873014E-2
8.804469548E0,-3.275475025E0,-9.274580956E0,-2.093719877E-2
8.814182309E0,-3.287439108E0,-9.260223389E0,-1.854437590E-2
8.823895902E0,-3.287439108E0,-9.267401695E0,-1.615155302E-2
8.833610225E0,-3.280260801E0,-9.296115875E0,1.495514158E-2
8.843323715E0,-3.244368315E0,-9.317651749E0,4.127619043E-2
8.853036475E0,-3.215654612E0,-9.329615593E0,5.324030295E-2
8.862750069E0,-3.186940670E0,-9.339186668E0,6.041877344E-2
8.872464444E0,-3.174976587E0,-9.327222824E0,8.673982322E-2
8.882177934E0,-3.155833960E0,-9.329615593E0,8.434699476E-2
8.891890694E0,-3.172583818E0,-9.327222824E0,1.058823988E-1
8.901604288E0,-3.191726208E0,-9.320044518E0,1.369891018E-1
8.911318611E0,-3.218047380E0,-9.317651749E0,1.561316848E-1
8.921032100E0,-3.225225925E0,-9.317651749E0,1.417747438E-1
8.930744861E0,-3.218047380E0,-9.324830055E0,9.631111473E-2
8.940458454E0,-3.194119215E0,-9.305686951E0,2.691925503E-2
8.950172777E0,-3.172583818E0,-9.296115875E0,-1.615155302E-2
8.959886371E0,-3.189333439E0,-9.279366493E0,-4.965107143E-2
8.969599079E0,-3.206083298E0,-9.284152031E0,-4.007977992E-2
8.979312569E0,-3.220440149E0,-9.296115875E0,-8.973085321E-3
8.989026996E0,-3.230011463E0,-9.317651749E0,2.213360928E-2
8.998740486E0,-3.222832918E0,-9.341579437E0,5.084748194E-2
9.008453246E0,-3.234797001E0,-9.367900848E0,5.084748194E-2
9.018166840E0,-3.239582777E0,-9.351150513E0,5.563312769E-2
9.027881163E0,-3.225225925E0,-9.332008362E0,4.366901144E-2
9.037594652E0,-3.227618694E0,-9.286544800E0,4.127619043E-2
9.047307413E0,-3.230011463E0,-9.281759262E0,4.845465720E-2
9.057021007E0,-3.261118174E0,-9.253045082E0,7.956135273E-2
9.066735382E0,-3.263510942E0,-9.245866776E0,1.298106313E-1
9.076448871E0,-3.265903711E0,-9.238688469E0,1.322034448E-1
9.086161579E0,-3.268296719E0,-9.255437851E0,1.441675574E-1
9.095875225E0,-3.268296719E0,-9.281759262E0,9.391828626E-2
9.105589548E0,-3.244368315E0,-9.288937569E0,5.802594870E-2
9.115303038E0,-3.241975546E0,-9.305686951E0,3.170489892E-2
9.125015798E0,-3.263510942E0,-9.296115875E0,3.409772366E-2
9.134729392E0,-3.287439108E0,-9.312865257E0,6.759724021E-2
9.144443715E0,-3.292224884E0,-9.329615593E0,8.913264424E-2
9.154157204E0,-3.294617653E0,-9.334401131E0,8.913264424E-2
9.163869965E0,-3.297010422E0,-9.332008362E0,5.324030295E-2
9.173583559E0,-3.275475025E0,-9.336793900E0,-6.580262445E-3
9.183297934E0,-3.253939629E0,-9.343972206E0,-5.443671346E-2
9.193011423E0,-3.222832918E0,-9.322437286E0,-6.640082598E-2
9.202724184E0,-3.196511984E0,-9.298508644E0,-4.486542568E-2
9.212437777E0,-3.155833960E0,-9.303294182E0,-6.580262445E-3
9.222152100E0,-3.131905794E0,-9.300901413E0,6.041877344E-2
9.231865590E0,-3.115155935E0,-9.300901413E0,1.010967568E-1
9.241578350E0,-3.122334480E0,-9.303294182E0,1.274178028E-1
9.251291944E0,-3.122334480E0,-9.286544800E0,1.537388563E-1
9.261006267E0,-3.151048422E0,-9.293723106E0,1.274178028E-1
9.270719757E0,-3.177369356E0,-9.284152031E0,9.870393574E-2
9.280432517E0,-3.206083298E0,-9.288937569E0,7.477571070E-2
9.290146111E0,-3.230011463E0,-9.303294182E0,5.324030295E-2
9.299860434E0,-3.237190008E0,-9.317651749E0,3.649054468E-2
9.309574027E0,-3.232404232E0,-9.339186668E0,4.127619043E-2
9.319286684E0,-3.241975546E0,-9.365508080E0,1.734796353E-2
9.329000329E0,-3.239582777E0,-9.343972206E0,-1.136590727E-2
9.338714652E0,-3.227618694E0,-9.317651749E0,-3.290131316E-2
9.348428142E0,-3.206083298E0,-9.300901413E0,-4.486542568E-2
9.358140902E0,-3.186940670E0,-9.276973724E0,-4.486542568E-2
9.367854496E0,-3.184547901E0,-9.284152031E0,-2.811566554E-2
9.377568819E0,-3.189333439E0,-9.296115875E0,-8.973085321E-3
9.387282309E0,-3.191726208E0,-9.286544800E0,2.452643216E-2
9.396995069E0,-3.208476067E0,-9.312865257E0,5.324030295E-2
9.406708663E0,-3.203690529E0,-9.327222824E0,6.999006122E-2
9.416422986E0,-3.206083298E0,-9.317651749E0,8.434699476E-2
9.426136475E0,-3.210868835E0,-9.310472488E0,9.870393574E-2
9.435849236E0,-3.208476067E0,-9.312865257E0,1.034895778E-1
9.445562829E0,-3.237190008E0,-9.341579437E0,1.058823988E-1
9.455277204E0,-3.258725405E0,-9.353543282E0,8.195417374E-2
9.464990694E0,-3.256332397E0,-9.346364975E0,5.802594870E-2
9.474703402E0,-3.280260801E0,-9.308079720E0,1.974078640E-2
9.484416996E0,-3.277868032E0,-9.276973724E0,-6.580262445E-3
9.494131371E0,-3.268296719E0,-9.260223389E0,-2.333002165E-2
9.503844861E0,-3.241975546E0,-9.250652313E0,-4.247260094E-2
9.513557621E0,-3.241975546E0,-9.250652313E0,-1.854437590E-2
9.523271215E0,-3.230011463E0,-9.272188187E0,7.776673418E-3
9.532985538E0,-3.213261604E0,-9.296115875E0,4.606183618E-2
9.542699027E0,-3.165405273E0,-9.327222824E0,5.802594870E-2
9.552411788E0,-3.134298563E0,-9.334401131E0,8.434699476E-2
9.562125382E0,-3.131905794E0,-9.334401131E0,8.195417374E-2
9.571839704E0,-3.131905794E0,-9.332008362E0,8.913264424E-2
9.581553194E0,-3.184547901E0,-9.310472488E0,1.369891018E-1
9.591265954E0,-3.239582777E0,-9.276973724E0,1.875374764E-1
9.600979548E0,-3.285046339E0,-9.260223389E0,2.138585299E-1
9.610693871E0,-3.294617653E0,-9.253045082E0,2.353939265E-1
9.620407361E0,-3.297010422E0,-9.265008926E0,2.042872310E-1
9.630120121E0,-3.265903711E0,-9.257830620E0,1.154536903E-1
9.639833715E0,-3.244368315E0,-9.274580956E0,2.213360928E-2
9.649548038E0,-3.232404232E0,-9.312865257E0,-6.640082598E-2
9.659261527E0,-3.220440149E0,-9.348757744E0,-1.046859920E-1
9.668974288E0,-3.182155132E0,-9.353543282E0,-1.046859920E-1
9.678687882E0,-3.167798042E0,-9.358329773E0,-7.357929647E-2
9.688402204E0,-3.155833960E0,-9.355937004E0,-4.247260094E-2
9.698115694E0,-3.153441191E0,-9.343972206E0,1.256231871E-2
9.707828454E0,-3.160619497E0,-9.329615593E0,4.127619043E-2
9.717542048E0,-3.158226728E0,-9.303294182E0,7.238288224E-2
9.727256423E0,-3.182155132E0,-9.315258980E0,7.716853172E-2
9.736969913E0,-3.203690529E0,-9.308079720E0,7.716853172E-2
9.746682621E0,-3.210868835E0,-9.305686951E0,9.870393574E-2
9.756396267E0,-3.210868835E0,-9.293723106E0,1.082752272E-1
9.766110590E0,-3.203690529E0,-9.274580956E0,1.417747438E-1
9.775824079E0,-3.194119215E0,-9.272188187E0,1.776670814E-1
9.785536788E0,-3.194119215E0,-9.286544800E0,1.776670814E-1
9.795250434E0,-3.196511984E0,-9.298508644E0,1.800599098E-1
9.804964757E0,-3.196511984E0,-9.296115875E0,1.585244983E-1
9.814678246E0,-3.225225925E0,-9.300901413E0,1.010967568E-1
9.824391007E0,-3.237190008E0,-9.322437286E0,6.281159073E-2
9.834104600E0,-3.232404232E0,-9.332008362E0,7.776673418E-3
9.843818923E0,-3.225225925E0,-9.351150513E0,-3.529413417E-2
9.853532413E0,-3.201297522E0,-9.341579437E0,-5.204389244E-2
9.863245173E0,-3.201297522E0,-9.332008362E0,-4.247260094E-2
9.872958767E0,-3.215654612E0,-9.341579437E0,-1.136590727E-2
9.882673090E0,-3.234797001E0,-9.320044518E0,3.170489892E-2
9.892386579E0,-3.218047380E0,-9.315258980E0,6.520441920E-2
9.902099340E0,-3.198904753E0,-9.300901413E0,9.391828626E-2
9.911812934E0,-3.196511984E0,-9.288937569E0,9.152546525E-2
9.921527257E0,-3.174976587E0,-9.298508644E0,8.673982322E-2
9.931240746E0,-3.139084101E0,-9.308079720E0,7.477571070E-2
9.940953507E0,-3.143869877E0,-9.317651749E0,9.391828626E-2
9.950667100E0,-3.160619497E0,-9.317651749E0,1.393819153E-1
9.960381423E0,-3.172583818E0,-9.308079720E0,1.489532143E-1
9.970094913E0,-3.182155132E0,-9.305686951E0,1.680957973E-1
9.979807673E0,-3.191726208E0,-9.308079720E0,1.465603858E-1
9.989521267E0,-3.230011463E0,-9.300901413E0,1.250249892E-1
9.999235590E0,-3.263510942E0,-9.286544800E0,6.041877344E-2
1.000894908E1,-3.287439108E0,-9.279366493E0,2.931207791E-2
1.001866184E1,-3.277868032E0,-9.286544800E0,-8.973085321E-3
1.002837543E1,-3.261118174E0,-9.288937569E0,-1.615155302E-2
1.003808976E1,-3.230011463E0,-9.288937569E0,5.982056609E-4
1.004780325E1,-3.179762125E0,-9.303294182E0,3.649054468E-2
1.005751601E1,-3.158226728E0,-9.329615593E0,7.477571070E-2
1.006722960E1,-3.151048422E0,-9.353543282E0,9.152546525E-2
1.007694392E1,-3.148655415E0,-9.367900848E0,8.195417374E-2
1.008665741E1,-3.148655415E0,-9.365508080E0,6.999006122E-2
1.009637017E1,-3.167798042E0,-9.346364975E0,5.324030295E-2
1.010608377E1,-3.191726208E0,-9.312865257E0,6.999006122E-2
1.011579809E1,-3.191726208E0,-9.274580956E0,6.041877344E-2
1.012551158E1,-3.191726208E0,-9.262616158E0,7.477571070E-2
1.013522434E1,-3.189333439E0,-9.274580956E0,8.195417374E-2
1.014493793E1,-3.186940670E0,-9.291330338E0,1.154536903E-1
1.015465226E1,-3.160619497E0,-9.317651749E0,1.082752272E-1
1.016436575E1,-3.129513025E0,-9.353543282E0,8.913264424E-2
1.017407851E1,-3.115155935E0,-9.370293617E0,6.281159073E-2
1.018379210E1,-3.100799084E0,-9.367900848E0,5.383851007E-3
1.019350642E1,-3.100799084E0,-9.355937004E0,-1.854437590E-2
1.020321991E1,-3.134298563E0,-9.341579437E0,-4.007977992E-2
1.021293267E1,-3.158226728E0,-9.329615593E0,-2.333002165E-2
1.022264616E1,-3.191726208E0,-9.315258980E0,-6.580262445E-3
1.023236059E1,-3.213261604E0,-9.303294182E0,2.213360928E-2
1.024207408E1,-3.213261604E0,-9.310472488E0,4.366901144E-2
1.025178684E1,-3.210868835E0,-9.322437286E0,7.956135273E-2
1.026150033E1,-3.222832918E0,-9.334401131E0,1.010967568E-1
1.027121476E1,-3.215654612E0,-9.336793900E0,1.154536903E-1
1.028092825E1,-3.237190008E0,-9.303294182E0,1.250249892E-1
1.029064095E1,-3.218047380E0,-9.260223389E0,1.393819153E-1
1.030035455E1,-3.222832918E0,-9.269794464E0,1.489532143E-1
1.031006887E1,-3.220440149E0,-9.260223389E0,1.250249892E-1
1.031978236E1,-3.210868835E0,-9.257830620E0,1.298106313E-1
1.032949512E1,-3.208476067E0,-9.274580956E0,1.154536903E-1
1.033920872E1,-3.208476067E0,-9.293723106E0,1.202393398E-1
1.034892304E1,-3.213261604E0,-9.324830055E0,9.870393574E-2
1.035863653E1,-3.206083298E0,-9.346364975E0,8.913264424E-2
1.036834929E1,-3.198904753E0,-9.355937004E0,5.802594870E-2
1.037806288E1,-3.196511984E0,-9.339186668E0,1.495514158E-2
1.038777720E1,-3.191726208E0,-9.324830055E0,-6.580262445E-3
1.039749069E1,-3.194119215E0,-9.312865257E0,-1.794616925E-3
1.040720345E1,-3.215654612E0,-9.310472488E0,5.383851007E-3
1.041691705E1,-3.241975546E0,-9.300901413E0,3.170489892E-2
1.042663137E1,-3.270689487E0,-9.303294182E0,5.084748194E-2
1.043634486E1,-3.275475025E0,-9.300901413E0,4.366901144E-2
1.044605762E1,-3.285046339E0,-9.303294182E0,3.649054468E-2
1.045577122E1,-3.265903711E0,-9.303294182E0,3.170489892E-2
1.046548554E1,-3.237190008E0,-9.298508644E0,4.127619043E-2
1.047519903E1,-3.206083298E0,-9.310472488E0,5.084748194E-2
1.048491179E1,-3.189333439E0,-9.320044518E0,9.152546525E-2
1.049462538E1,-3.165405273E0,-9.322437286E0,9.870393574E-2
1.050433970E1,-3.148655415E0,-9.317651749E0,1.010967568E-1
1.051405319E1,-3.158226728E0,-9.320044518E0,8.195417374E-2
1.052376595E1,-3.182155132E0,-9.303294182E0,6.520441920E-2
1.053347955E1,-3.220440149E0,-9.291330338E0,6.759724021E-2
1.054319387E1,-3.246761322E0,-9.279366493E0,5.563312769E-2
1.055290736E1,-3.258725405E0,-9.274580956E0,7.238288224E-2
1.056262007E1,-3.239582777E0,-9.281759262E0,6.999006122E-2
1.057233366E1,-3.203690529E0,-9.300901413E0,6.041877344E-2
1.058204799E1,-3.160619497E0,-9.310472488E0,5.563312769E-2
1.059176148E1,-3.143869877E0,-9.312865257E0,3.409772366E-2
1.060147424E1,-3.112763166E0,-9.305686951E0,2.452643216E-2
1.061118783E1,-3.124727249E0,-9.293723106E0,3.409772366E-2
1.062090215E1,-3.172583818E0,-9.310472488E0,5.084748194E-2
1.063061564E1,-3.196511984E0,-9.322437286E0,4.366901144E-2
1.064032840E1,-3.184547901E0,-9.332008362E0,1.734796353E-2
1.065004200E1,-3.189333439E0,-9.363115311E0,-6.580262445E-3
1.065975632E1,-3.174976587E0,-9.355937004E0,-3.529413417E-2
1.066946981E1,-3.184547901E0,-9.336793900E0,-5.682953820E-2
1.067918257E1,-3.182155132E0,-9.324830055E0,-5.204389244E-2
1.068889616E1,-3.165405273E0,-9.310472488E0,-3.529413417E-2
1.069861049E1,-3.158226728E0,-9.303294182E0,5.982056609E-4
1.070832398E1,-3.155833960E0,-9.308079720E0,4.127619043E-2
1.071803668E1,-3.160619497E0,-9.320044518E0,4.845465720E-2
1.072775028E1,-3.151048422E0,-9.339186668E0,8.195417374E-2
1.073746460E1,-3.158226728E0,-9.334401131E0,8.434699476E-2
1.074717809E1,-3.191726208E0,-9.332008362E0,9.152546525E-2
1.075689085E1,-3.210868835E0,-9.320044518E0,6.520441920E-2
1.076660444E1,-3.232404232E0,-9.296115875E0,6.999006122E-2
1.077631877E1,-3.251546860E0,-9.288937569E0,7.238288224E-2
1.078603226E1,-3.277868032E0,-9.286544800E0,9.870393574E-2
1.079574502E1,-3.268296719E0,-9.257830620E0,1.034895778E-1
1.080545861E1,-3.270689487E0,-9.272188187E0,1.202393398E-1
1.081517293E1,-3.234797001E0,-9.279366493E0,1.106680483E-1
1.082488642E1,-3.201297522E0,-9.293723106E0,6.520441920E-2
1.083459918E1,-3.184547901E0,-9.300901413E0,1.974078640E-2
1.084431267E1,-3.182155132E0,-9.315258980E0,-2.811566554E-2
1.085402710E1,-3.203690529E0,-9.320044518E0,-4.965107143E-2
1.086374054E1,-3.239582777E0,-9.336793900E0,-4.007977992E-2
1.087345330E1,-3.251546860E0,-9.332008362E0,-8.973085321E-3
1.088316689E1,-3.230011463E0,-9.320044518E0,2.452643216E-2
1.089288122E1,-3.227618694E0,-9.305686951E0,6.759724021E-2
1.090259470E1,-3.249154091E0,-9.312865257E0,7.716853172E-2
1.091230747E1,-3.241975546E0,-9.293723106E0,7.956135273E-2
1.092202106E1,-3.249154091E0,-9.312865257E0,6.759724021E-2
1.093173538E1,-3.234797001E0,-9.327222824E0,7.238288224E-2
1.094144887E1,-3.225225925E0,-9.305686951E0,8.913264424E-2
1.095116163E1,-3.215654612E0,-9.298508644E0,9.391828626E-2
1.096087522E1,-3.225225925E0,-9.312865257E0,1.130608693E-1
1.097058955E1,-3.239582777E0,-9.300901413E0,1.058823988E-1
1.098030304E1,-3.234797001E0,-9.288937569E0,1.058823988E-1
1.099001575E1,-3.222832918E0,-9.269794464E0,7.716853172E-2
1.099972934E1,-3.177369356E0,-9.265008926E0,4.606183618E-2
1.100944366E1,-3.143869877E0,-9.284152031E0,1.974078640E-2
1.101915715E1,-3.134298563E0,-9.298508644E0,1.495514158E-2
1.102886991E1,-3.131905794E0,-9.312865257E0,7.776673418E-3
1.103858351E1,-3.143869877E0,-9.320044518E0,2.991028363E-3
1.104829783E1,-3.158226728E0,-9.336793900E0,5.383851007E-3
1.105801132E1,-3.148655415E0,-9.332008362E0,-1.794616925E-3
1.106772408E1,-3.151048422E0,-9.339186668E0,1.734796353E-2
1.107743767E1,-3.146262646E0,-9.341579437E0,1.016949583E-2
1.108715200E1,-3.139084101E0,-9.341579437E0,1.974078640E-2
1.109686549E1,-3.136691332E0,-9.329615593E0,1.974078640E-2
1.110657819E1,-3.134298563E0,-9.308079720E0,1.734796353E-2
1.111629179E1,-3.136691332E0,-9.312865257E0,-1.136590727E-2
1.112600611E1,-3.141477108E0,-9.324830055E0,5.383851007E-3
1.113571960E1,-3.160619497E0,-9.327222824E0,2.991028363E-3
1.114543236E1,-3.163012505E0,-9.312865257E0,1.734796353E-2
1.115514595E1,-3.206083298E0,-9.303294182E0,3.888336942E-2
1.116486028E1,-3.230011463E0,-9.303294182E0,2.931207791E-2
1.117457377E1,-3.261118174E0,-9.286544800E0,1.734796353E-2
1.118428653E1,-3.297010422E0,-9.286544800E0,-8.973085321E-3
1.119400002E1,-3.294617653E0,-9.300901413E0,-5.922235921E-2
1.120371444E1,-3.270689487E0,-9.296115875E0,-6.400800496E-2
1.121342788E1,-3.232404232E0,-9.286544800E0,-4.965107143E-2
1.122314064E1,-3.220440149E0,-9.286544800E0,-1.375873014E-2
1.123285424E1,-3.196511984E0,-9.298508644E0,2.213360928E-2
1.124256856E1,-3.184547901E0,-9.317651749E0,6.999006122E-2
1.125228205E1,-3.170190811E0,-9.315258980E0,1.010967568E-1
1.126199481E1,-3.174976587E0,-9.303294182E0,1.202393398E-1
1.127170840E1,-3.182155132E0,-9.293723106E0,1.298106313E-1
1.128142272E1,-3.196511984E0,-9.293723106E0,1.106680483E-1
1.129113622E1,-3.218047380E0,-9.310472488E0,6.759724021E-2
1.130084892E1,-3.232404232E0,-9.308079720E0,2.213360928E-2
1.131056252E1,-3.256332397E0,-9.303294182E0,-1.854437590E-2
1.132027684E1,-3.251546860E0,-9.308079720E0,-4.965107143E-2
1.132999033E1,-3.234797001E0,-9.310472488E0,-7.118647546E-2
1.133970309E1,-3.234797001E0,-9.298508644E0,-8.075776696E-2
1.134941668E1,-3.237190008E0,-9.303294182E0,-5.682953820E-2
1.135913101E1,-3.230011463E0,-9.322437286E0,-3.050848842E-2
1.136884450E1,-3.213261604E0,-9.329615593E0,-2.333002165E-2
1.137855720E1,-3.191726208E0,-9.336793900E0,-3.768695518E-2
1.138827080E1,-3.155833960E0,-9.343972206E0,-4.486542568E-2
1.139798512E1,-3.153441191E0,-9.334401131E0,-2.333002165E-2
1.140769861E1,-3.177369356E0,-9.312865257E0,2.931207791E-2
1.141741137E1,-3.194119215E0,-9.291330338E0,8.673982322E-2
1.142712496E1,-3.201297522E0,-9.279366493E0,1.465603858E-1
1.143683929E1,-3.222832918E0,-9.284152031E0,1.728814393E-1
1.144655278E1,-3.237190008E0,-9.279366493E0,1.875374764E-1
1.145626549E1,-3.251546860E0,-9.255437851E0,1.585244983E-1
1.146597908E1,-3.244368315E0,-9.245866776E0,9.631111473E-2
1.147569345E1,-3.220440149E0,-9.238688469E0,4.606183618E-2
1.148540689E1,-3.194119215E0,-9.265008926E0,-1.794616925E-3
1.149511965E1,-3.172583818E0,-9.296115875E0,-2.572284266E-2
1.150483325E1,-3.158226728E0,-9.348757744E0,-2.093719877E-2
1.151454757E1,-3.151048422E0,-9.370293617E0,-2.572284266E-2
1.152426106E1,-3.153441191E0,-9.363115311E0,-2.811566554E-2
1.153397382E1,-3.179762125E0,-9.363115311E0,-2.333002165E-2
1.154368731E1,-3.208476067E0,-9.339186668E0,-2.811566554E-2
1.155340168E1,-3.230011463E0,-9.317651749E0,-2.333002165E-2
1.156311517E1,-3.256332397E0,-9.322437286E0,-8.973085321E-3
1.157282793E1,-3.273082256E0,-9.329615593E0,1.256231871E-2
1.158254153E1,-3.253939629E0,-9.324830055E0,2.931207791E-2
1.159225585E1,-3.258725405E0,-9.320044518E0,3.888336942E-2
1.160196934E1,-3.234797001E0,-9.312865257E0,3.649054468E-2
1.161168210E1,-3.206083298E0,-9.300901413E0,3.888336942E-2
1.162139559E1,-3.184547901E0,-9.276973724E0,6.999006122E-2
1.163110996E1,-3.160619497E0,-9.265008926E0,8.195417374E-2
1.164082345E1,-3.163012505E0,-9.262616158E0,9.870393574E-2
1.165053622E1,-3.160619497E0,-9.272188187E0,1.345962733E-1
1.166024981E1,-3.201297522E0,-9.286544800E0,1.441675574E-1
1.166996413E1,-3.201297522E0,-9.296115875E0,1.465603858E-1
1.167967762E1,-3.203690529E0,-9.298508644E0,1.178465188E-1
1.168939038E1,-3.198904753E0,-9.305686951E0,9.631111473E-2
1.169910387E1,-3.227618694E0,-9.312865257E0,6.281159073E-2
1.170881825E1,-3.237190008E0,-9.329615593E0,1.974078640E-2
1.171853174E1,-3.246761322E0,-9.332008362E0,1.016949583E-2
1.172824450E1,-3.249154091E0,-9.348757744E0,-2.572284266E-2
1.173795809E1,-3.246761322E0,-9.334401131E0,-3.768695518E-2
1.174767241E1,-3.225225925E0,-9.324830055E0,-7.357929647E-2
1.175738590E1,-3.201297522E0,-9.296115875E0,-7.118647546E-2
1.176709861E1,-3.174976587E0,-9.288937569E0,-6.640082598E-2
1.177681220E1,-3.153441191E0,-9.288937569E0,-6.400800496E-2
1.178652653E1,-3.143869877E0,-9.293723106E0,-5.204389244E-2
1.179624002E1,-3.136691332E0,-9.310472488E0,-1.375873014E-2
1.180595278E1,-3.122334480E0,-9.322437286E0,1.495514158E-2
1.181566637E1,-3.124727249E0,-9.312865257E0,7.716853172E-2
1.182538069E1,-3.122334480E0,-9.312865257E0,1.034895778E-1
1.183509418E1,-3.134298563E0,-9.324830055E0,1.322034448E-1
1.184480689E1,-3.141477108E0,-9.339186668E0,1.513460279E-1
1.185452049E1,-3.163012505E0,-9.346364975E0,1.178465188E-1
1.186423481E1,-3.198904753E0,-9.341579437E0,7.477571070E-2
1.187394830E1,-3.230011463E0,-9.332008362E0,4.127619043E-2
1.188366106E1,-3.251546860E0,-9.305686951E0,1.974078640E-2
1.189337465E1,-3.265903711E0,-9.293723106E0,-1.375873014E-2
1.190308898E1,-3.249154091E0,-9.303294182E0,-3.768695518E-2
1.191280241E1,-3.227618694E0,-9.312865257E0,-1.375873014E-2
1.192251517E1,-3.220440149E0,-9.308079720E0,-8.973085321E-3
1.193222877E1,-3.194119215E0,-9.288937569E0,1.734796353E-2
1.194194309E1,-3.182155132E0,-9.298508644E0,4.845465720E-2
1.195165658E1,-3.155833960E0,-9.308079720E0,7.477571070E-2
1.196136934E1,-3.153441191E0,-9.286544800E0,9.870393574E-2
1.197108283E1,-3.167798042E0,-9.298508644E0,1.274178028E-1
1.198079726E1,-3.186940670E0,-9.303294182E0,1.369891018E-1
1.199051069E1,-3.196511984E0,-9.315258980E0,1.250249892E-1
1.200022345E1,-3.213261604E0,-9.308079720E0,9.631111473E-2
1.200993705E1,-3.225225925E0,-9.317651749E0,7.238288224E-2
1.201965137E1,-3.215654612E0,-9.315258980E0,3.888336942E-2
1.202936486E1,-3.227618694E0,-9.322437286E0,3.409772366E-2
1.203907757E1,-3.220440149E0,-9.334401131E0,1.016949583E-2
1.204879116E1,-3.206083298E0,-9.341579437E0,-1.794616925E-3
1.205850549E1,-3.186940670E0,-9.320044518E0,-4.187439568E-3
1.206821898E1,-3.179762125E0,-9.300901413E0,-1.615155302E-2
1.207793174E1,-3.170190811E0,-9.298508644E0,-1.136590727E-2
1.208764523E1,-3.189333439E0,-9.300901413E0,-6.580262445E-3
1.209735960E1,-3.194119215E0,-9.291330338E0,5.383851007E-3
1.210707309E1,-3.220440149E0,-9.286544800E0,3.888336942E-2
1.211678585E1,-3.225225925E0,-9.308079720E0,5.324030295E-2
1.212649944E1,-3.237190008E0,-9.305686951E0,5.324030295E-2
1.213621377E1,-3.230011463E0,-9.308079720E0,6.041877344E-2
1.214592726E1,-3.232404232E0,-9.303294182E0,4.845465720E-2
1.215563996E1,-3.234797001E0,-9.310472488E0,3.649054468E-2
1.216535356E1,-3.222832918E0,-9.317651749E0,2.213360928E-2
1.217506788E1,-3.215654612E0,-9.334401131E0,1.495514158E-2
1.218478137E1,-3.218047380E0,-9.324830055E0,5.383851007E-3
1.219449413E1,-3.198904753E0,-9.315258980E0,2.452643216E-2
1.220420762E1,-3.174976587E0,-9.312865257E0,1.974078640E-2
1.221392205E1,-3.179762125E0,-9.300901413E0,4.127619043E-2
1.222363549E1,-3.182155132E0,-9.279366493E0,4.366901144E-2
1.223334825E1,-3.203690529E0,-9.315258980E0,6.520441920E-2
1.224306184E1,-3.215654612E0,-9.324830055E0,6.759724021E-2
1.225277616E1,-3.239582777E0,-9.341579437E0,4.366901144E-2
1.226248965E1,-3.227618694E0,-9.327222824E0,3.170489892E-2
1.227220236E1,-3.218047380E0,-9.308079720E0,1.016949583E-2
1.228191595E1,-3.218047380E0,-9.298508644E0,2.991028363E-3
1.229163028E1,-3.196511984E0,-9.267401695E0,2.991028363E-3
1.230134377E1,-3.206083298E0,-9.286544800E0,2.213360928E-2
1.231105653E1,-3.186940670E0,-9.286544800E0,2.691925503E-2
1.232077012E1,-3.198904753E0,-9.286544800E0,3.649054468E-2
1.233048444E1,-3.220440149E0,-9.291330338E0,4.366901144E-2
1.234019788E1,-3.215654612E0,-9.312865257E0,3.649054468E-2
1.234991064E1,-3.191726208E0,-9.324830055E0,5.383851007E-3
1.235962424E1,-3.163012505E0,-9.322437286E0,-1.615155302E-2
1.236933856E1,-3.170190811E0,-9.324830055E0,-2.333002165E-2
1.237905205E1,-3.196511984E0,-9.322437286E0,-1.854437590E-2
1.238876476E1,-3.230011463E0,-9.320044518E0,7.776673418E-3
1.239847835E1,-3.237190008E0,-9.327222824E0,2.452643216E-2
1.240819267E1,-3.222832918E0,-9.312865257E0,3.888336942E-2
1.241790616E1,-3.201297522E0,-9.308079720E0,3.409772366E-2
1.242761892E1,-3.196511984E0,-9.317651749E0,2.931207791E-2
1.243733241E1,-3.189333439E0,-9.343972206E0,1.256231871E-2
1.244704679E1,-3.203690529E0,-9.343972206E0,-1.615155302E-2
1.245676028E1,-3.210868835E0,-9.322437286E0,-1.615155302E-2
1.246647304E1,-3.227618694E0,-9.288937569E0,-1.615155302E-2
1.247618663E1,-3.241975546E0,-9.255437851E0,7.776673418E-3
1.248590095E1,-3.256332397E0,-9.231510162E0,2.931207791E-2
1.249561439E1,-3.256332397E0,-9.255437851E0,6.041877344E-2
1.250532715E1,-3.225225925E0,-9.269794464E0,6.281159073E-2
1.251504075E1,-3.182155132E0,-9.303294182E0,5.802594870E-2
1.252475507E1,-3.139084101E0,-9.322437286E0,3.170489892E-2
1.253446856E1,-3.117548704E0,-9.339186668E0,1.734796353E-2
1.254418127E1,-3.074477911E0,-9.353543282E0,2.691925503E-2
1.255389486E1,-3.067299604E0,-9.358329773E0,4.606183618E-2
1.256360918E1,-3.084049225E0,-9.348757744E0,9.152546525E-2
1.257332267E1,-3.127120018E0,-9.346364975E0,1.202393398E-1
1.258303543E1,-3.186940670E0,-9.346364975E0,1.202393398E-1
1.259274892E1,-3.218047380E0,-9.324830055E0,9.391828626E-2
1.260246330E1,-3.249154091E0,-9.300901413E0,2.931207791E-2
1.261217679E1,-3.265903711E0,-9.286544800E0,-2.333002165E-2
1.262188955E1,-3.261118174E0,-9.305686951E0,-5.682953820E-2
1.263160314E1,-3.222832918E0,-9.305686951E0,-7.836493850E-2
1.264131746E1,-3.186940670E0,-9.305686951E0,-8.315058798E-2
1.265103090E1,-3.172583818E0,-9.303294182E0,-6.640082598E-2
1.266074366E1,-3.184547901E0,-9.310472488E0,-2.333002165E-2
1.267045726E1,-3.179762125E0,-9.322437286E0,5.383851007E-3
1.268017158E1,-3.196511984E0,-9.329615593E0,1.734796353E-2
1.268988507E1,-3.201297522E0,-9.320044518E0,3.649054468E-2
1.269959778E1,-3.186940670E0,-9.308079720E0,4.845465720E-2
1.270931137E1,-3.213261604E0,-9.298508644E0,6.520441920E-2
1.271902569E1,-3.234797001E0,-9.303294182E0,8.434699476E-2
1.272873918E1,-3.239582777E0,-9.276973724E0,1.345962733E-1
1.273845189E1,-3.253939629E0,-9.274580956E0,1.633101404E-1
1.274816549E1,-3.258725405E0,-9.272188187E0,1.513460279E-1
1.275787981E1,-3.241975546E0,-9.293723106E0,1.082752272E-1
1.276759330E1,-3.208476067E0,-9.336793900E0,1.734796353E-2
1.277730606E1,-3.153441191E0,-9.363115311E0,-7.118647546E-2
1.278701965E1,-3.141477108E0,-9.360722542E0,-1.214357466E-1
1.279673392E1,-3.141477108E0,-9.358329773E0,-1.166501045E-1
1.280644741E1,-3.186940670E0,-9.322437286E0,-9.272187948E-2
1.281616017E1,-3.220440149E0,-9.305686951E0,-5.204389244E-2
1.282587377E1,-3.263510942E0,-9.286544800E0,-4.187439568E-3
1.283558809E1,-3.277868032E0,-9.262616158E0,2.452643216E-2
1.284530153E1,-3.282653570E0,-9.262616158E0,2.213360928E-2
1.285501429E1,-3.241975546E0,-9.262616158E0,-4.187439568E-3
1.286472788E1,-3.196511984E0,-9.272188187E0,2.991028363E-3
1.287444220E1,-3.179762125E0,-9.274580956E0,1.974078640E-2
1.288415569E1,-3.182155132E0,-9.291330338E0,4.606183618E-2
1.289386840E1,-3.191726208E0,-9.308079720E0,7.477571070E-2
1.290358200E1,-3.215654612E0,-9.315258980E0,9.870393574E-2
1.291329632E1,-3.227618694E0,-9.334401131E0,8.913264424E-2
1.292300981E1,-3.251546860E0,-9.327222824E0,6.281159073E-2
1.293272252E1,-3.256332397E0,-9.317651749E0,2.452643216E-2
1.294243611E1,-3.261118174E0,-9.308079720E0,-3.768695518E-2
1.295215043E1,-3.222832918E0,-9.315258980E0,-1.118644550E-1
1.296186392E1,-3.186940670E0,-9.329615593E0,-1.525424421E-1
1.297157668E1,-3.179762125E0,-9.346364975E0,-1.357926875E-1
1.298129017E1,-3.167798042E0,-9.329615593E0,-9.032905847E-2
1.299100455E1,-3.163012505E0,-9.329615593E0,-2.093719877E-2
1.300071804E1,-3.172583818E0,-9.296115875E0,1.974078640E-2
1.301043080E1,-3.184547901E0,-9.303294182E0,3.409772366E-2
1.302014429E1,-3.167798042E0,-9.298508644E0,3.409772366E-2
1.302985866E1,-3.167798042E0,-9.305686951E0,3.649054468E-2
1.303957215E1,-3.170190811E0,-9.286544800E0,3.649054468E-2
1.304928491E1,-3.182155132E0,-9.298508644E0,3.409772366E-2
1.305899851E1,-3.191726208E0,-9.312865257E0,5.324030295E-2
1.306871278E1,-3.203690529E0,-9.315258980E0,4.606183618E-2
1.307842627E1,-3.194119215E0,-9.317651749E0,1.974078640E-2
1.308813903E1,-3.196511984E0,-9.336793900E0,5.383851007E-3
1.309785262E1,-3.174976587E0,-9.334401131E0,-3.529413417E-2
1.310756694E1,-3.172583818E0,-9.329615593E0,-4.725824669E-2
1.311728038E1,-3.165405273E0,-9.329615593E0,-5.443671346E-2
1.312699314E1,-3.165405273E0,-9.310472488E0,-3.290131316E-2
1.313670674E1,-3.160619497E0,-9.310472488E0,-6.580262445E-3
1.314642106E1,-3.182155132E0,-9.336793900E0,1.495514158E-2
1.315613455E1,-3.189333439E0,-9.324830055E0,4.366901144E-2
1.316584726E1,-3.198904753E0,-9.315258980E0,6.041877344E-2
1.317556085E1,-3.225225925E0,-9.300901413E0,4.127619043E-2
1.318527517E1,-3.237190008E0,-9.296115875E0,3.888336942E-2
1.319498866E1,-3.232404232E0,-9.310472488E0,2.452643216E-2
1.320470137E1,-3.213261604E0,-9.329615593E0,-1.375873014E-2
1.321441497E1,-3.198904753E0,-9.353543282E0,-1.615155302E-2
1.322412929E1,-3.189333439E0,-9.348757744E0,-1.854437590E-2
1.323384278E1,-3.179762125E0,-9.339186668E0,5.383851007E-3
1.324355549E1,-3.172583818E0,-9.310472488E0,1.734796353E-2
1.325326908E1,-3.167798042E0,-9.288937569E0,3.649054468E-2
1.326298340E1,-3.148655415E0,-9.284152031E0,4.845465720E-2
1.327269689E1,-3.131905794E0,-9.298508644E0,6.041877344E-2
1.328240960E1,-3.131905794E0,-9.310472488E0,6.281159073E-2
1.329212319E1,-3.127120018E0,-9.332008362E0,7.716853172E-2
1.330183752E1,-3.139084101E0,-9.339186668E0,6.281159073E-2
1.331155101E1,-3.158226728E0,-9.332008362E0,6.041877344E-2
1.332126372E1,-3.201297522E0,-9.305686951E0,4.366901144E-2
1.333097731E1,-3.225225925E0,-9.291330338E0,1.016949583E-2
1.334069163E1,-3.251546860E0,-9.291330338E0,-1.794616925E-3
1.335040512E1,-3.237190008E0,-9.293723106E0,-2.811566554E-2
1.336011788E1,-3.203690529E0,-9.317651749E0,-4.007977992E-2
1.336983137E1,-3.177369356E0,-9.341579437E0,-5.922235921E-2
1.337954575E1,-3.143869877E0,-9.339186668E0,-5.204389244E-2
1.338925924E1,-3.134298563E0,-9.341579437E0,-3.768695518E-2
1.339897200E1,-3.107977629E0,-9.348757744E0,-1.615155302E-2
1.340868549E1,-3.107977629E0,-9.320044518E0,2.691925503E-2
1.341839986E1,-3.110370398E0,-9.327222824E0,5.084748194E-2
1.342811335E1,-3.148655415E0,-9.305686951E0,8.673982322E-2
1.343782611E1,-3.174976587E0,-9.298508644E0,7.716853172E-2
1.344753970E1,-3.194119215E0,-9.288937569E0,6.281159073E-2
1.345725398E1,-3.191726208E0,-9.308079720E0,4.127619043E-2
1.346696747E1,-3.186940670E0,-9.329615593E0,-1.794616925E-3
1.347668022E1,-3.179762125E0,-9.332008362E0,-5.204389244E-2
1.348639382E1,-3.174976587E0,-9.343972206E0,-4.725824669E-2
1.349610809E1,-3.174976587E0,-9.341579437E0,-4.486542568E-2
1.350582158E1,-3.189333439E0,-9.332008362E0,-3.290131316E-2
1.351553434E1,-3.179762125E0,-9.329615593E0,-1.615155302E-2
1.352524793E1,-3.186940670E0,-9.305686951E0,5.383851007E-3
1.353496226E1,-3.201297522E0,-9.288937569E0,5.982056609E-4
1.354467569E1,-3.213261604E0,-9.281759262E0,-1.794616925E-3
1.355438845E1,-3.227618694E0,-9.303294182E0,-1.794616925E-3
1.356410205E1,-3.220440149E0,-9.315258980E0,5.982056609E-4
1.357381637E1,-3.206083298E0,-9.320044518E0,1.974078640E-2
1.358352981E1,-3.194119215E0,-9.334401131E0,2.691925503E-2
1.359324257E1,-3.165405273E0,-9.343972206E0,3.888336942E-2
1.360295616E1,-3.165405273E0,-9.336793900E0,3.888336942E-2
1.361267049E1,-3.163012505E0,-9.329615593E0,6.281159073E-2
1.362238392E1,-3.184547901E0,-9.308079720E0,6.520441920E-2
1.363209668E1,-3.196511984E0,-9.296115875E0,5.802594870E-2
1.364181028E1,-3.210868835E0,-9.293723106E0,5.084748194E-2
1.365152460E1,-3.210868835E0,-9.286544800E0,1.495514158E-2
1.366123804E1,-3.215654612E0,-9.279366493E0,-3.529413417E-2
1.367095080E1,-3.222832918E0,-9.284152031E0,-6.400800496E-2
1.368066439E1,-3.215654612E0,-9.284152031E0,-6.879365444E-2
1.369037872E1,-3.203690529E0,-9.303294182E0,-6.161518395E-2
1.370009215E1,-3.191726208E0,-9.308079720E0,-4.486542568E-2
1.370980491E1,-3.158226728E0,-9.324830055E0,-1.615155302E-2
1.371951851E1,-3.151048422E0,-9.334401131E0,1.256231871E-2
1.372923283E1,-3.151048422E0,-9.351150513E0,4.127619043E-2
1.373894627E1,-3.136691332E0,-9.346364975E0,6.281159073E-2
1.374865903E1,-3.153441191E0,-9.336793900E0,6.759724021E-2
1.375837262E1,-3.179762125E0,-9.336793900E0,8.434699476E-2
1.376808694E1,-3.208476067E0,-9.322437286E0,7.956135273E-2
1.377780038E1,-3.213261604E0,-9.329615593E0,6.759724021E-2
1.378751314E1,-3.239582777E0,-9.303294182E0,5.324030295E-2
1.379722674E1,-3.256332397E0,-9.293723106E0,2.452643216E-2
1.380694106E1,-3.246761322E0,-9.272188187E0,-1.136590727E-2
1.381665450E1,-3.208476067E0,-9.265008926E0,-2.572284266E-2
1.382636726E1,-3.194119215E0,-9.253045082E0,-4.247260094E-2
1.383608085E1,-3.151048422E0,-9.260223389E0,-5.922235921E-2
1.384579512E1,-3.134298563E0,-9.305686951E0,-6.879365444E-2
1.385550861E1,-3.119941711E0,-9.341579437E0,-5.682953820E-2
1.386522137E1,-3.091227770E0,-9.353543282E0,-2.333002165E-2
1.387493497E1,-3.088835001E0,-9.348757744E0,2.213360928E-2
1.388464924E1,-3.079263687E0,-9.348757744E0,6.041877344E-2
1.389436272E1,-3.100799084E0,-9.341579437E0,8.434699476E-2
1.390407549E1,-3.129513025E0,-9.324830055E0,8.195417374E-2
1.391378908E1,-3.158226728E0,-9.329615593E0,6.041877344E-2
1.392350335E1,-3.184547901E0,-9.336793900E0,2.691925503E-2
1.393321684E1,-3.213261604E0,-9.355937004E0,5.982056609E-4
1.394292960E1,-3.201297522E0,-9.358329773E0,-4.486542568E-2
1.395264319E1,-3.191726208E0,-9.355937004E0,-8.315058798E-2
1.396235746E1,-3.167798042E0,-9.329615593E0,-1.118644550E-1
1.397207095E1,-3.167798042E0,-9.317651749E0,-1.238285750E-1
1.398178372E1,-3.172583818E0,-9.315258980E0,-1.022931710E-1
1.399149720E1,-3.174976587E0,-9.312865257E0,-7.597211748E-2
1.400121158E1,-3.172583818E0,-9.300901413E0,-2.572284266E-2
1.401092507E1,-3.189333439E0,-9.296115875E0,-4.187439568E-3
1.402063783E1,-3.189333439E0,-9.315258980E0,2.213360928E-2
1.403035132E1,-3.182155132E0,-9.308079720E0,6.041877344E-2
1.404006569E1,-3.206083298E0,-9.312865257E0,7.477571070E-2
1.404977918E1,-3.201297522E0,-9.305686951E0,9.631111473E-2
1.405949194E1,-3.198904753E0,-9.293723106E0,1.274178028E-1
1.406920543E1,-3.189333439E0,-9.291330338E0,1.585244983E-1
1.407891981E1,-3.198904753E0,-9.279366493E0,1.489532143E-1
1.408863330E1,-3.208476067E0,-9.284152031E0,1.393819153E-1
1.409834601E1,-3.222832918E0,-9.300901413E0,1.058823988E-1
1.410805960E1,-3.234797001E0,-9.300901413E0,7.238288224E-2
1.411777392E1,-3.227618694E0,-9.300901413E0,2.931207791E-2
1.412748741E1,-3.246761322E0,-9.324830055E0,-3.050848842E-2
1.413720012E1,-3.249154091E0,-9.324830055E0,-5.204389244E-2
1.414691372E1,-3.241975546E0,-9.346364975E0,-7.836493850E-2
1.415662804E1,-3.225225925E0,-9.348757744E0,-6.879365444E-2
1.416634153E1,-3.165405273E0,-9.343972206E0,-5.443671346E-2
1.417605424E1,-3.139084101E0,-9.336793900E0,-4.486542568E-2
1.418576783E1,-3.112763166E0,-9.336793900E0,-3.529413417E-2
1.419548215E1,-3.084049225E0,-9.332008362E0,-1.794616925E-3
1.420519564E1,-3.064906597E0,-9.329615593E0,1.016949583E-2
1.421490835E1,-3.079263687E0,-9.343972206E0,6.281159073E-2
1.422462194E1,-3.091227770E0,-9.343972206E0,8.673982322E-2
1.423433627E1,-3.117548704E0,-9.329615593E0,1.106680483E-1
1.424404976E1,-3.134298563E0,-9.332008362E0,1.130608693E-1
1.425376247E1,-3.160619497E0,-9.320044518E0,9.631111473E-2
1.426347606E1,-3.189333439E0,-9.308079720E0,6.759724021E-2
1.427319038E1,-3.186940670E0,-9.291330338E0,3.170489892E-2
1.428290387E1,-3.213261604E0,-9.293723106E0,1.974078640E-2
1.429261658E1,-3.206083298E0,-9.312865257E0,-2.333002165E-2
1.430233017E1,-3.196511984E0,-9.348757744E0,-5.682953820E-2
1.431204450E1,-3.158226728E0,-9.367900848E0,-1.046859920E-1
1.432175793E1,-3.129513025E0,-9.346364975E0,-9.750752151E-2
1.433147069E1,-3.098406315E0,-9.334401131E0,-9.032905847E-2
1.434118429E1,-3.086441994E0,-9.322437286E0,-4.486542568E-2
1.435089861E1,-3.086441994E0,-9.324830055E0,-2.572284266E-2
1.436061205E1,-3.105584621E0,-9.320044518E0,2.991028363E-3
1.437032481E1,-3.129513025E0,-9.336793900E0,2.931207791E-2
1.438003830E1,-3.158226728E0,-9.327222824E0,6.041877344E-2
1.438975267E1,-3.186940670E0,-9.317651749E0,6.999006122E-2
1.439946616E1,-3.196511984E0,-9.305686951E0,6.281159073E-2
1.440917892E1,-3.210868835E0,-9.303294182E0,4.127619043E-2
1.441889252E1,-3.198904753E0,-9.305686951E0,1.734796353E-2
1.442860679E1,-3.201297522E0,-9.317651749E0,-1.375873014E-2
1.443832028E1,-3.189333439E0,-9.327222824E0,-2.572284266E-2
1.444803304E1,-3.201297522E0,-9.320044518E0,-3.529413417E-2
1.445774653E1,-3.203690529E0,-9.317651749E0,-1.854437590E-2
1.446746090E1,-3.198904753E0,-9.336793900E0,-1.375873014E-2
1.447717439E1,-3.184547901E0,-9.324830055E0,-6.580262445E-3
1.448688710E1,-3.177369356E0,-9.324830055E0,5.982056609E-4
1.449660069E1,-3.155833960E0,-9.327222824E0,-4.187439568E-3
1.450631502E1,-3.146262646E0,-9.322437286E0,7.776673418E-3
1.451602851E1,-3.153441191E0,-9.339186668E0,1.016949583E-2
1.452574122E1,-3.158226728E0,-9.336793900E0,2.213360928E-2
1.453545481E1,-3.167798042E0,-9.341579437E0,2.931207791E-2
1.454516913E1,-3.167798042E0,-9.332008362E0,2.931207791E-2
1.455488262E1,-3.186940670E0,-9.329615593E0,3.170489892E-2
1.456459533E1,-3.184547901E0,-9.310472488E0,3.888336942E-2
1.457430892E1,-3.184547901E0,-9.279366493E0,4.366901144E-2
1.458402325E1,-3.191726208E0,-9.284152031E0,4.366901144E-2
1.459373668E1,-3.189333439E0,-9.272188187E0,5.084748194E-2
1.460344944E1,-3.201297522E0,-9.303294182E0,4.845465720E-2
1.461316304E1,-3.194119215E0,-9.303294182E0,4.845465720E-2
1.462287736E1,-3.184547901E0,-9.320044518E0,1.495514158E-2
1.463259080E1,-3.191726208E0,-9.327222824E0,1.256231871E-2
1.464230356E1,-3.170190811E0,-9.322437286E0,7.776673418E-3
1.465201715E1,-3.165405273E0,-9.332008362E0,5.982056609E-4
1.466173148E1,-3.158226728E0,-9.332008362E0,-1.375873014E-2
1.467144491E1,-3.158226728E0,-9.346364975E0,-2.811566554E-2
1.468115767E1,-3.177369356E0,-9.334401131E0,-2.333002165E-2
1.469087127E1,-3.182155132E0,-9.315258980E0,-8.973085321E-3
1.470058554E1,-3.201297522E0,-9.308079720E0,1.256231871E-2
1.471029903E1,-3.189333439E0,-9.320044518E0,1.734796353E-2
1.472001179E1,-3.194119215E0,-9.317651749E0,2.213360928E-2
1.472972528E1,-3.182155132E0,-9.296115875E0,1.256231871E-2
1.473943965E1,-3.182155132E0,-9.296115875E0,5.982056609E-4
1.474915314E1,-3.184547901E0,-9.300901413E0,-1.854437590E-2
1.475886590E1,-3.194119215E0,-9.320044518E0,-4.965107143E-2
1.476857939E1,-3.191726208E0,-9.348757744E0,-6.400800496E-2
1.477829377E1,-3.179762125E0,-9.367900848E0,-9.272187948E-2
1.478800726E1,-3.160619497E0,-9.367900848E0,-1.190429255E-1
1.479771996E1,-3.141477108E0,-9.365508080E0,-1.238285750E-1
1.480743356E1,-3.127120018E0,-9.372686386E0,-8.315058798E-2
1.481714788E1,-3.103191853E0,-9.355937004E0,-4.486542568E-2
1.482686137E1,-3.100799084E0,-9.324830055E0,1.974078640E-2
1.483657408E1,-3.119941711E0,-9.308079720E0,6.759724021E-2
1.484628767E1,-3.153441191E0,-9.291330338E0,1.202393398E-1
1.485600200E1,-3.179762125E0,-9.267401695E0,1.585244983E-1
1.486571549E1,-3.222832918E0,-9.253045082E0,1.657029688E-1
1.487542819E1,-3.241975546E0,-9.238688469E0,1.393819153E-1
1.488514179E1,-3.265903711E0,-9.255437851E0,8.195417374E-2
1.489485611E1,-3.275475025E0,-9.279366493E0,1.495514158E-2
1.490456960E1,-3.249154091E0,-9.327222824E0,-5.204389244E-2
1.491428231E1,-3.227618694E0,-9.353543282E0,-1.166501045E-1
1.492399590E1,-3.191726208E0,-9.358329773E0,-1.310070455E-1
1.493371022E1,-3.165405273E0,-9.336793900E0,-1.405783296E-1
1.494342372E1,-3.141477108E0,-9.334401131E0,-1.286142170E-1
1.495313642E1,-3.136691332E0,-9.308079720E0,-1.094716340E-1
1.496285002E1,-3.141477108E0,-9.320044518E0,-9.032905847E-2
1.497256434E1,-3.158226728E0,-9.353543282E0,-6.400800496E-2
1.498227783E1,-3.155833960E0,-9.355937004E0,-8.315058798E-2
1.499199054E1,-3.105584621E0,-9.375079155E0,-1.166501045E-1
1.500170413E1,-3.079263687E0,-9.365508080E0,-1.812563092E-1
1.501141845E1,-3.050549746E0,-9.346364975E0,-1.932204217E-1
1.502113194E1,-3.045764208E0,-9.310472488E0,-1.262213886E-1
1.503084465E1,-3.091227770E0,-9.267401695E0,-3.768695518E-2
1.504055825E1,-3.148655415E0,-9.272188187E0,7.716853172E-2
1.505027257E1,-3.213261604E0,-9.286544800E0,1.585244983E-1
1.505998606E1,-3.265903711E0,-9.310472488E0,1.824527234E-1
1.506969877E1,-3.285046339E0,-9.322437286E0,1.465603858E-1
