"Time (s)","Acceleration x (m/s^2)","Acceleration y (m/s^2)","Acceleration z (m/s^2)"
5.455620500E-2,4.483850479E0,-3.444767237E0,5.392823815E-1
6.427084100E-2,4.158127785E0,-2.896811008E0,1.530509233E0
7.398459100E-2,3.008974552E0,-2.274078846E0,2.502593279E0
8.369766400E-2,1.376172066E0,-1.833799481E0,3.692424536E0
9.341146600E-2,-1.944168359E-1,-1.156032443E0,4.681258202E0
1.031261530E-1,-1.281356573E0,-4.307080805E-1,4.855934620E0
1.128399550E-1,-1.958824396E0,2.611167729E-1,4.693222523E0
1.225529760E-1,-2.248355865E0,4.573282301E-1,3.979563236E0
1.322668830E-1,-2.497508526E0,5.820540786E-1,2.152942181E0
1.419815180E-1,-2.887538671E0,3.951148391E-1,-1.648953915E0
1.516952680E-1,-2.913859844E0,-5.838487148E-1,-8.266304970E0
1.614083410E-1,-3.419044495E0,-2.283650160E0,-1.668874168E1
1.711222470E-1,-3.895515203E0,-6.001797199E0,-1.882882309E1
1.808368300E-1,-5.341677666E0,-1.224556923E1,-1.379163170E1
1.905506330E-1,-7.409973621E0,-1.741915131E1,-6.963712215E0
2.002636530E-1,-8.573782921E0,-2.051007843E1,3.479164124E0
2.099775600E-1,-9.413962364E0,-2.450818634E1,9.215657234E0
2.196921950E-1,-5.650351524E0,-2.641377068E1,-1.119840980E0
2.294059970E-1,-2.422732860E-2,-2.412503624E1,-1.634148407E1
2.391190180E-1,1.835893154E0,-2.422822571E1,-1.838854218E1
2.488329240E-1,8.518448472E-1,-2.495833588E1,-8.041080475E0
2.585475080E-1,-8.216354847E-1,-2.518565559E1,-1.418943882E0
2.682613100E-1,-2.681756020E0,-2.436940384E1,-4.200899124E0
2.779743300E-1,-6.093322754E0,-2.245873451E1,-8.316554070E0
2.876882370E-1,-7.960621834E0,-2.143909264E1,-7.210472107E0
2.974028720E-1,-8.626424789E0,-2.120668983E1,-3.894618034E0
3.071166220E-1,-8.961420059E0,-2.115644073E1,-2.977568626E0
3.168296950E-1,-8.951848984E0,-2.079243279E1,-4.033401489E0
3.265436010E-1,-8.085348129E0,-2.038325882E1,-4.617549419E0
3.362581850E-1,-6.241677761E0,-2.021785545E1,-5.429314613E0
3.459719870E-1,-4.264308929E0,-1.989961052E1,-5.682953835E0
3.556850080E-1,-2.624328136E0,-1.924846268E1,-5.381158829E0
3.653989140E-1,-1.812862277E0,-1.867388725E1,-7.057032108E0
3.751135490E-1,-1.546959877E0,-1.758694649E1,-8.862417221E0
3.848272990E-1,-7.259225845E-1,-1.540349674E1,-7.713263988E0
3.945403720E-1,-2.159522474E-1,-1.513280869E1,-5.467599869E0
4.042541740E-1,-1.031904742E-1,-1.510409451E1,-3.351148129E0
4.139688620E-1,-2.685943544E-1,-1.461087418E1,-1.840379715E0
4.236826640E-1,-1.190130115E0,-1.364148235E1,-1.658525229E0
4.333956850E-1,-2.617149830E0,-1.148674488E1,-2.371885538E0
4.431095910E-1,-3.014657497E0,-8.951250076E0,-3.537788391E0
4.528241740E-1,-3.043371201E0,-6.377769470E0,-5.421836853E0
4.625379760E-1,-3.203690529E0,-3.567100286E0,-6.393921375E0
4.722518830E-1,-3.265903711E0,-6.125625968E-1,-5.378766060E0
4.819648510E-1,-3.146262646E0,2.344068766E0,-3.101995468E0
4.916795390E-1,-2.088036776E0,4.354937077E0,-5.811567903E-1
5.013932890E-1,3.059822023E-1,4.860121727E0,1.085145116E0
5.111063620E-1,1.764108539E0,5.020740032E0,1.497009635E0
5.208201640E-1,2.508575439E0,4.419842720E0,1.056431174E0
5.305348510E-1,1.677966833E0,3.526721478E0,4.842474759E-1
5.402486530E-1,-2.422732860E-2,2.432603359E0,-7.223333120E-1
5.499616740E-1,-1.017846942E0,1.206879973E0,-2.185245275E0
5.596755800E-1,-1.499103427E0,3.209373355E-1,-2.932105064E0
5.693901640E-1,-1.532602906E0,-3.565305769E-1,-2.982354403E0
5.791039660E-1,-1.271785259E0,-1.031605721E0,-2.690429926E0
5.888169870E-1,-5.389832854E-1,-1.450648785E0,-2.331207514E0
5.985308930E-1,5.862415433E-1,-1.689931035E0,-1.778166294E0
6.082455280E-1,1.850250125E0,-1.852941990E0,-8.395816684E-1
6.179592780E-1,3.221935749E0,-2.156830549E0,-4.007977992E-2
6.276723510E-1,3.842274904E0,-2.523231506E0,9.870393574E-2
6.373861530E-1,3.384946823E0,-2.516052961E0,-3.801597059E-1
6.471008410E-1,2.434397936E0,-2.312364101E0,-1.706381679E0
6.568145910E-1,1.019641519E0,-2.027618170E0,-3.015853882E0
6.665276640E-1,-3.547359705E-1,-1.532004714E0,-3.533002615E0
6.762414660E-1,-5.461617708E-1,-1.338186026E0,-3.535395384E0
6.859561530E-1,-2.805584669E-1,-1.378864050E0,-3.272184849E0
6.956699550E-1,-1.657029688E-1,-1.151246786E0,-2.525026083E0
7.053829760E-1,-2.925225794E-1,-9.693922997E-1,-1.543669701E0
7.150968830E-1,-6.059823632E-1,-8.545367718E-1,-2.051845491E-1
7.248114660E-1,-9.532406926E-1,-1.005284667E0,-7.247261405E-1
7.345252680E-1,-9.939187169E-1,-1.491326690E0,-2.328814745E0
7.442382890E-1,-1.106381416E0,-2.257328987E0,-3.959224224E0
7.539521950E-1,-5.437689424E-1,-4.117748737E0,-5.086842060E0
7.636667780E-1,-8.766704202E-1,-8.429315567E0,-2.240280151E0
7.733805800E-1,-3.201297522E0,-1.215224934E1,4.746761918E-1
7.830936010E-1,-4.649852753E0,-1.529342651E1,1.147358418E0
7.928075080E-1,-5.667101383E0,-2.064886284E1,-9.817452431E0
8.025221430E-1,-5.480461121E0,-2.469243431E1,-2.287987137E1
8.122358930E-1,-4.814957142E0,-2.492005157E1,-1.418196106E1
8.219489140E-1,-3.799802303E0,-2.740978432E1,-5.005486012E0
8.316628200E-1,-1.728814393E-1,-2.822872734E1,-1.644168258E0
8.413774550E-1,1.447956800E0,-2.694288445E1,-2.553740025E0
8.510912050E-1,1.432702541E-1,-2.489133835E1,-5.982056618E0
8.608042780E-1,-2.892324448E0,-2.315803719E1,-4.507479668E0
8.705180800E-1,-6.816254616E0,-2.225534439E1,-1.160519004E0
8.802327680E-1,-1.084576797E1,-1.999532318E1,-1.677667737E0
8.899465180E-1,-1.241366482E1,-1.810888100E1,-2.819642305E0
8.996595910E-1,-1.235384464E1,-1.742872238E1,-2.603989124E0
9.093733930E-1,-1.154955673E1,-1.751755524E1,-2.592025042E0
9.190880800E-1,-1.098694420E1,-1.788126373E1,-3.820440531E0
9.288018300E-1,-9.897611618E0,-1.837687874E1,-5.934200287E0
9.385149030E-1,-7.458128929E0,-1.944467545E1,-7.287042141E0
9.482287050E-1,-4.731208801E0,-2.017478561E1,-7.344470024E0
9.579433930E-1,-2.540579557E0,-2.031626129E1,-6.391528606E0
9.676571430E-1,-3.355933726E-1,-2.054836464E1,-5.644668579E0
9.773702160E-1,1.577468276E0,-2.074696922E1,-4.694119930E0
9.870840180E-1,2.913261652E0,-2.061057854E1,-3.341576815E0
9.967987050E-1,3.394518137E0,-1.955235291E1,-1.713560104E0
1.006512455E0,2.879761934E0,-1.756541252E1,-5.907281041E-1
1.016225528E0,1.677966833E0,-1.511605930E1,-5.596213937E-1
1.025939330E0,2.988037169E-1,-1.214028454E1,-1.198804140E0
1.035654018E0,-7.307082415E-1,-8.805288315E0,-2.182852507E0
1.045367768E0,-5.700899959E-1,-5.779264927E0,-3.449253798E0
1.055080841E0,-2.997010350E-1,-2.480160713E0,-5.072484970E0
1.064794643E0,-1.585244983E-1,1.120738268E0,-7.303792000E0
1.074509330E0,7.148557901E-2,4.280759811E0,-8.994022369E0
1.084223080E0,2.222333997E-1,5.166702271E0,-7.899903774E0
1.093936153E0,-4.983053207E-1,5.669494152E0,-4.945665359E0
1.103649955E0,-1.496710539E0,6.382854462E0,-2.407777786E0
1.113364643E0,-1.997109652E0,5.451447964E0,-1.328016520E0
1.123078393E0,-3.038585663E0,4.012763500E0,-7.055835724E-1
1.132791466E0,-3.917050600E0,1.738385677E0,1.106680483E-1
1.142505268E0,-2.822932482E0,4.142574072E-1,2.090728730E-1
1.152219955E0,-8.383852243E-1,-1.213759303E0,-9.810572863E-1
1.161933705E0,1.012463093E0,-2.453839540E0,-3.245863914E0
1.171646726E0,2.226222277E0,-3.069094181E0,-5.388337612E0
1.181360633E0,2.388934374E0,-3.006880760E0,-5.946164131E0
1.191075216E0,1.960319996E0,-2.621337175E0,-4.883451939E0
1.200789018E0,1.483849168E0,-2.427518606E0,-3.142673492E0
1.210502039E0,1.091426253E0,-2.235793591E0,-1.292124271E0
1.220215945E0,9.834501147E-1,-1.900798440E0,1.848455518E-1
1.229930528E0,8.829515576E-1,-1.352542996E0,1.525723577E0
1.239644330E0,7.728816867E-1,-7.851449251E-1,2.820838690E0
1.249357351E0,2.581257522E-1,-1.914258152E-1,3.337987661E0
1.259071258E0,-4.097708687E-2,1.271187067E-1,2.796910524E0
1.268785841E0,5.712864175E-2,1.271187067E-1,1.817647934E0
1.278499643E0,1.121635586E-1,1.031904742E-1,5.057829022E-1
1.288212664E0,-2.183450572E-2,4.336991161E-2,-2.673979402E-1
1.297926466E0,-4.049852192E-1,5.533402413E-2,-8.874381185E-1
1.307641153E0,-8.623134494E-1,-3.278166950E-1,-1.280160069E0
1.317354903E0,-9.987043738E-1,-6.149554253E-1,-6.960122585E-1
1.327067976E0,-6.370890141E-1,-8.018946648E-1,1.049252748E0
1.336781778E0,-2.398804724E-1,-1.314257860E0,3.333201885E0
1.346496466E0,1.743769497E-1,-1.843370795E0,2.868695259E0
1.356210216E0,-3.332005441E-1,-2.386840582E0,-1.962413669E0
1.365923237E0,-2.214856386E0,-3.796811342E0,-1.070578766E1
1.375637143E0,-4.905884743E0,-8.187641144E0,-1.870678902E1
1.385351726E0,-8.700602531E0,-1.529342651E1,-2.189103699E1
1.395065528E0,-1.302891922E1,-2.247548485E1,-9.595218897E-1
1.404778549E0,-1.273220921E1,-2.870998383E1,1.508345699E1
1.414492455E0,-4.462913513E0,-3.130500031E1,6.668198586E0
1.424207039E0,5.010570526E0,-3.260250854E1,-1.561137295E1
1.433920841E0,9.564111710E0,-3.126910782E1,-2.485006142E1
1.443633862E0,8.156234741E0,-2.970808983E1,-1.260897923E1
1.453347664E0,2.293221474E0,-3.033530807E1,-1.119840980E0
1.463062351E0,-4.465306282E0,-2.731167793E1,-2.166102648E0
1.472776101E0,-9.981360435E0,-2.417528534E1,-7.239185810E0
1.482489174E0,-1.358435345E1,-2.187937164E1,-7.820940971E0
1.492202976E0,-1.431715488E1,-2.075654030E1,-6.173781395E0
1.501917664E0,-1.311296749E1,-2.029711723E1,-7.246364117E0
1.511631414E0,-9.248857498E0,-2.091715813E1,-1.024606609E1
1.521344435E0,-5.286642551E0,-2.195594215E1,-1.082303619E1
1.531058341E0,-2.162214279E0,-2.272463608E1,-7.897511005E0
1.540772924E0,-1.226321608E-2,-2.305963135E1,-5.108377457E0
1.550486726E0,1.500598907E0,-2.261217308E1,-4.404588223E0
1.560199747E0,1.634896040E0,-2.132154465E1,-4.260719776E0
1.569913549E0,6.723831892E-1,-1.930349922E1,-3.279363394E0
1.579628237E0,5.234299600E-2,-1.739043617E1,-2.087139606E0
1.589341987E0,-5.365904570E-1,-1.537238979E1,-1.167697430E0
1.599055060E0,-1.314856052E0,-1.301665592E1,-1.105484009E0
1.608768862E0,-1.848754644E0,-1.048116112E1,-1.859522343E0
1.618483549E0,-1.817647934E0,-7.916952610E0,-2.606382132E0
1.628197299E0,-1.408176184E0,-5.554040432E0,-2.374278307E0
1.637910320E0,-1.113559842E0,-3.418446302E0,-2.019841433E0
1.647624122E0,-1.242772222E0,-1.175175071E0,-2.225923300E0
1.657338810E0,-1.802991867E0,9.074779749E-1,-2.788535595E0
1.667052560E0,-2.495115757E0,2.688635349E0,-3.336791277E0
1.676765633E0,-2.813361168E0,4.146761417E0,-3.236292601E0
1.686479435E0,-2.969193697E0,5.075775146E0,-2.833999395E0
1.696194122E0,-2.894717216E0,5.233701229E0,-2.927319288E0
1.705907872E0,-2.806182861E0,5.164309502E0,-3.015853882E0
1.715620893E0,-2.485544443E0,4.259224415E0,-2.855534792E0
1.725334799E0,-2.164607286E0,2.834896564E0,-2.599203587E0
1.735049383E0,-1.879861236E0,9.553344250E-1,-2.271386862E0
1.744763185E0,-1.036989570E0,-4.037888348E-2,-1.747059584E0
1.754476205E0,4.088735580E-1,-1.297508121E0,-1.495514154E0
1.764190008E0,2.053640127E0,-2.187937260E0,-1.339980721E0
1.773904695E0,3.154936552E0,-2.645265341E0,-1.234696507E0
1.783618445E0,3.676871061E0,-2.896811008E0,-1.524527073E0
1.793331466E0,3.662514210E0,-2.793620348E0,-1.823629975E0
1.803045372E0,3.035295486E0,-2.470589399E0,-1.701596022E0
1.812759955E0,1.917249203E0,-2.020439625E0,-1.122233868E0
1.822473758E0,6.005984545E-1,-1.474576950E0,-3.849453330E-1
1.832186778E0,-6.876373887E-1,-8.282157183E-1,7.477571070E-2
1.841900580E0,-1.379462242E0,-2.105683982E-1,3.888336942E-2
1.851615268E0,-1.743171334E0,3.137588799E-1,-4.016951025E-1
1.861329018E0,-1.922932148E0,6.251249313E-1,-1.062413216E0
1.871042039E0,-1.781456470E0,5.700899959E-1,-1.696810365E0
1.880755945E0,-1.008275628E0,1.797607988E-1,-1.859522343E0
1.890470528E0,9.272187948E-3,-6.293123364E-1,-1.567597985E0
1.900184330E0,1.254138112E0,-1.359721422E0,-1.019342422E0
1.909897351E0,1.819143414E0,-2.073081732E0,4.076771438E-1
1.919611153E0,1.495813251E0,-2.843869686E0,1.971087694E0
1.929325841E0,1.077069283E0,-3.396910906E0,1.008574724E0
1.939039591E0,6.293123364E-1,-3.801596880E0,-4.830510616E-1
1.948752612E0,-5.222335458E-1,-4.290031910E0,-2.824428082E0
1.958466518E0,-1.266999602E0,-5.506184101E0,-6.887141705E0
1.968181101E0,-2.121536493E0,-8.881858826E0,-1.286052418E1
1.977894903E0,-4.293023109E0,-1.333490181E1,-1.560180187E1
1.987607924E0,-8.001599312E0,-1.832662773E1,-9.707382202E0
1.997321726E0,-1.009860897E1,-2.365604210E1,-7.562216759E0
2.007036414E0,-8.128418922E0,-2.372543526E1,-1.119182968E1
2.016750164E0,-5.475675583E0,-2.280120659E1,-8.179863930E0
2.026463185E0,-3.708875179E0,-2.370629120E1,-5.527420521E0
2.036176987E0,-1.769492388E0,-2.251855469E1,-1.196411371E0
2.045891674E0,-1.820040703E0,-2.236062813E1,-6.744768620E-1
2.055605424E0,-4.247559071E0,-2.145344925E1,-3.698107481E0
2.065318497E0,-7.086942673E0,-2.063929176E1,-4.847260475E0
2.075032299E0,-9.689435959E0,-2.051486588E1,-3.681357622E0
2.084746935E0,-1.063968563E1,-2.070150566E1,-3.923331738E0
2.094460737E0,-9.131608963E0,-2.068475533E1,-4.866702080E0
2.104173758E0,-6.758826733E0,-2.096740723E1,-6.224030972E0
2.113887560E0,-5.679065228E0,-2.166641045E1,-7.468896866E0
2.123602247E0,-4.781457901E0,-2.227448654E1,-7.988438606E0
2.133315997E0,-3.608376503E0,-2.281077766E1,-8.462516785E0
2.143029070E0,-2.167000055E0,-2.246830559E1,-8.704191208E0
2.152742872E0,-1.298106313E0,-2.132393837E1,-8.826524734E0
2.162457508E0,-1.118345499E0,-1.984936142E1,-9.111269951E0
2.172171310E0,-1.994716763E0,-1.838644981E1,-8.247162819E0
2.181884330E0,-3.804588079E0,-1.711286926E1,-6.786643028E0
2.191598133E0,-5.614459038E0,-1.593260956E1,-5.704489231E0
2.201312820E0,-6.043073654E0,-1.481217003E1,-5.266303539E0
2.211026570E0,-4.767100811E0,-1.373240948E1,-4.825725079E0
2.220739591E0,-2.834896564E0,-1.281775284E1,-4.033401489E0
2.230453497E0,-4.743770957E-1,-1.171167088E1,-3.571287870E0
2.240168080E0,1.847857237E0,-1.044766140E1,-2.912962437E0
2.249881830E0,3.748655796E0,-9.006285667E0,-2.247458696E0
2.259594903E0,4.548456669E0,-7.368697166E0,-1.792523265E0
2.269308705E0,4.316053867E0,-5.472684383E0,-1.912164450E0
2.279023393E0,3.511766434E0,-3.543172121E0,-2.917748213E0
2.288737143E0,2.465504646E0,-1.548754454E0,-4.727619171E0
2.298450164E0,1.883749604E0,5.318048596E-1,-5.867201328E0
2.308163966E0,9.643075466E-1,1.678565025E0,-4.974379063E0
2.317878653E0,-9.867402315E-1,1.249950767E0,-2.034198284E0
2.327592403E0,-2.071287155E0,2.679064035E0,5.153541565E-1
2.337305424E0,-1.937289000E0,3.263211966E0,1.094716311E0
2.347019330E0,-2.305783749E0,3.620041609E0,2.545365095E-1
2.356733914E0,-3.112763166E0,3.749253988E0,-1.625025630E0
2.366447716E0,-4.235595226E0,3.138785124E0,-3.207578659E0
2.376160737E0,-4.017549038E0,2.861217737E0,-3.544966698E0
2.385874539E0,-2.990729094E0,1.932204247E0,-2.977568626E0
2.395589226E0,-1.310070395E0,7.758727670E-1,-2.123031855E0
2.405302976E0,4.450650215E-1,-2.105683982E-1,-1.440479279E0
2.415015997E0,2.091925144E0,-1.199103236E0,-9.906286001E-1
2.424729903E0,3.052045345E0,-1.893620014E0,-6.314060688E-1
2.434444487E0,3.181257725E0,-2.389233351E0,-5.069792867E-1
2.444158237E0,2.647359133E0,-2.678765059E0,-5.213362575E-1
2.453871310E0,1.469492197E0,-2.640479803E0,-8.156534433E-1
2.463585112E0,3.777668774E-1,-2.329412937E0,-1.093519926E0
2.473299747E0,-5.700899959E-1,-1.929512382E0,-1.203589797E0
2.483013549E0,-1.635494232E0,-1.424327731E0,-6.026921868E-1
2.492726570E0,-2.049751759E0,-9.478568435E-1,-2.243271172E-1
2.502440372E0,-1.676172256E0,-4.187439680E-1,-4.088735580E-1
2.512155060E0,-8.694919348E-1,-2.177468538E-1,-8.802596331E-1
2.521868810E0,1.743769497E-1,-2.153540403E-1,-1.399801254E0
2.531581830E0,9.786644578E-1,-3.924229145E-1,-1.339980721E0
2.541295737E0,1.354636669E0,-1.019641519E0,-9.379864931E-1
2.551010320E0,7.944171429E-1,-1.742573142E0,-1.519741535E0
2.560724122E0,-1.456032634E0,-2.341377020E0,-3.159423113E0
2.570437143E0,-4.865206718E0,-2.192722797E0,-6.429813385E0
2.580150945E0,-6.648756981E0,-3.947559118E0,-8.191828728E0
2.589865633E0,-5.997610092E0,-8.032107353E0,-1.109133148E1
2.599579383E0,-6.081358910E0,-1.215224934E1,-1.161326599E1
2.609292403E0,-6.471687794E0,-1.704347801E1,-4.653441906E0
2.619006205E0,-6.289534092E0,-2.208784676E1,5.273182988E-1
2.628720893E0,-2.650649309E0,-2.480758858E1,2.734697104E0
2.638434643E0,2.867797852E0,-2.631087875E1,-6.912266612E-1
2.648147716E0,7.126723289E0,-2.597588348E1,-1.332742405E1
2.657861518E0,6.576074600E0,-2.385464668E1,-1.893201256E1
2.667576153E0,2.841476917E0,-2.322982216E1,-9.487242699E0
2.677289955E0,-2.028216362E0,-2.266481590E1,-2.099103689E0
2.687002976E0,-6.411867142E0,-2.128565216E1,-4.529015064E0
2.696716778E0,-9.421140671E0,-2.008385849E1,-9.712167740E0
2.706431466E0,-1.134586811E1,-1.989003944E1,-9.413064957E0
2.716145216E0,-1.200209904E1,-2.017478561E1,-6.456134796E0
2.725858237E0,-1.086012459E1,-2.040958023E1,-5.661418438E0
2.735572143E0,-8.765208244E0,-2.037129593E1,-7.578966618E0
2.745286726E0,-6.754041195E0,-2.035454559E1,-8.716156006E0
2.755000528E0,-5.255535603E0,-2.050050735E1,-8.045866013E0
2.764713549E0,-4.505984306E0,-2.042633057E1,-7.782655716E0
2.774427351E0,-4.482056141E0,-2.006949997E1,-7.488039494E0
2.784142039E0,-4.855635166E0,-1.949731636E1,-6.870391846E0
2.793855789E0,-5.176572800E0,-1.894666862E1,-6.133103371E0
2.803568810E0,-5.281857014E0,-1.839841270E1,-5.098805904E0
2.813282612E0,-4.314558506E0,-1.726840210E1,-3.743870020E0
2.822997299E0,-3.196511984E0,-1.626281929E1,-3.034996510E0
2.832711049E0,-1.982752681E0,-1.523360634E1,-3.090031385E0
2.842424122E0,-1.135095239E0,-1.393579865E1,-3.547359467E0
2.852137924E0,-5.485545993E-1,-1.239870930E1,-3.611965895E0
2.861852560E0,-2.231307179E-1,-1.081884861E1,-3.068495989E0
2.871566362E0,3.227319419E-1,-9.387042999E0,-2.237887383E0
2.881279383E0,1.007677436E0,-7.943572998E0,-1.205982566E0
2.890993185E0,1.275673628E0,-6.480660915E0,-8.084749579E-1
2.900707872E0,9.044869542E-1,-4.177569389E0,-1.143769264E0
2.910421622E0,6.125625968E-1,-1.867298961E0,-2.259422779E0
2.920134643E0,1.983051747E-1,1.486541033E-1,-3.111566782E0
2.929848549E0,-1.031904742E-1,1.288235903E0,-3.320041418E0
2.939563133E0,-1.824527234E-1,3.026322365E0,-3.611965895E0
2.949276935E0,-7.618148923E-1,4.000799656E0,-3.870689631E0
2.958989955E0,-1.161416292E0,4.177868366E0,-3.841975927E0
2.968703758E0,-1.587637782E0,4.168296814E0,-3.712464333E0
2.978418445E0,-2.092822552E0,3.622434378E0,-3.566502094E0
2.988132195E0,-2.703291416E0,2.499602318E0,-2.297708035E0
2.997845216E0,-3.045764208E0,1.479661703E0,-1.597209126E-1
3.007559122E0,-2.054537296E0,7.208378315E-1,1.056431174E0
3.017273705E0,-2.925225794E-1,-4.474578202E-1,1.044467092E0
3.026987508E0,1.558026671E0,-1.443470240E0,1.080359459E0
3.036700528E0,2.601895571E0,-1.800299883E0,2.521436810E-1
3.046414330E0,3.375375509E0,-1.826620936E0,-1.055234790E0
3.056129018E0,3.794119358E0,-1.781157374E0,-1.962413669E0
3.065842768E0,3.406482220E0,-1.788335800E0,-2.154138565E0
3.075555789E0,2.295614243E0,-1.747358680E0,-2.350350142E0
3.085269695E0,1.041176915E0,-1.606182218E0,-2.570489645E0
3.094984278E0,5.234299600E-2,-1.527219057E0,-2.563311338E0
3.104698080E0,-7.498508096E-1,-1.242473125E0,-1.902593136E0
3.114411101E0,-1.192523003E0,-9.861420393E-1,-6.218347549E-1
3.124124903E0,-1.434497118E0,-1.005284667E0,6.613163352E-1
3.133839591E0,-1.544566989E0,-9.622138143E-1,1.252642632E0
3.143553341E0,-1.257428288E0,-1.053141117E0,1.726720691E0
3.153266362E0,-5.605186820E-1,-1.194317579E0,2.749054193E0
3.162980268E0,4.277170449E-2,-1.302293777E0,2.765803814E0
3.172694851E0,5.359922647E-1,-1.567897081E0,1.834397674E0
3.182408601E0,3.083750308E-1,-2.168794632E0,-2.405385017E0
3.192121674E0,-1.266999602E0,-3.061915636E0,-8.000402451E0
3.201835476E0,-2.040180445E0,-5.123033047E0,-9.630811691E0
3.211550164E0,-2.423331022E0,-8.965607643E0,-9.329017639E0
3.221263914E0,-3.256332397E0,-1.260239887E1,-1.171137142E1
3.230976935E0,-4.989633560E0,-1.546331692E1,-7.864011765E0
3.240690737E0,-6.713363171E0,-1.942792511E1,-5.606383324E0
3.250405424E0,-4.436592102E0,-2.221227264E1,-8.093722343E0
3.260119174E0,-2.901297510E-1,-2.416810608E1,-3.238685369E0
3.269832247E0,4.409673214E0,-2.599024200E1,-4.521836758E0
3.279546049E0,5.326423168E0,-2.544677162E1,-5.840879917E0
3.289260737E0,9.499505758E-1,-2.406521606E1,-4.969593525E0
3.298974487E0,-4.127918243E0,-2.247548485E1,-4.299005032E0
3.308687508E0,-7.752446175E0,-2.060100746E1,-5.031806946E0
3.318401414E0,-9.390034676E0,-1.927478409E1,-6.580860615E0
3.328115997E0,-9.349356651E0,-1.867867279E1,-6.130710602E0
3.337829747E0,-8.147561073E0,-1.881745720E1,-5.515456200E0
3.347542820E0,-6.844968319E0,-1.888924026E1,-6.259922981E0
3.357256622E0,-5.492425442E0,-1.927956963E1,-6.722036839E0
3.366971310E0,-4.568197727E0,-2.004078674E1,-7.320541859E0
3.376685060E0,-4.108775616E0,-2.092194366E1,-7.911868095E0
3.386398080E0,-3.474079370E0,-2.158266258E1,-7.708477974E0
3.396111987E0,-2.957229614E0,-2.153959084E1,-6.410670757E0
3.405826570E0,-2.844467878E0,-2.097697830E1,-6.056533337E0
3.415540372E0,-2.487937450E0,-2.017717743E1,-6.221638203E0
3.425253393E0,-1.985145450E0,-1.961456490E1,-5.994319916E0
3.434967195E0,-1.671386600E0,-1.900888252E1,-5.115555763E0
3.444681830E0,-1.444068432E0,-1.811606026E1,-4.450051785E0
3.454395633E0,-1.192523003E0,-1.734018707E1,-4.476373196E0
3.464108653E0,-8.527421951E-1,-1.636600876E1,-4.452444553E0
3.473822455E0,-4.935196638E-1,-1.468056488E1,-4.342374802E0
3.483537143E0,2.841476910E-2,-1.271007538E1,-3.489931822E0
3.493250893E0,8.518448472E-1,-1.072044373E1,-2.352742910E0
3.502963966E0,1.630110383E0,-8.690432549E0,-1.454836130E0
3.512677768E0,2.326720953E0,-6.504589081E0,-1.217946768E0
3.522392403E0,2.290828466E0,-4.017250061E0,-2.031805515E0
3.532106205E0,1.412064433E0,-1.374078393E0,-3.370290756E0
3.541819226E0,-2.470589429E-1,1.690529227E0,-4.316053867E0
3.551533028E0,-2.317747831E0,4.699802876E0,-4.849653244E0
3.561247716E0,-4.041477680E0,5.920740604E0,-4.308875561E0
3.570961466E0,-5.219643593E0,5.576174259E0,-2.460419893E0
3.580674487E0,-5.408676624E0,5.047060966E0,-4.375874400E-1
3.590388393E0,-4.611268520E0,3.727718592E0,7.573283911E-1
3.600102976E0,-3.421437263E0,2.568994284E0,4.316053987E-1
3.609816778E0,-2.028216362E0,1.580160260E0,-3.801597059E-1
3.619529799E0,-7.618148923E-1,5.365904570E-1,-1.477568001E-1
3.629243601E0,2.126621157E-1,-3.038884699E-1,-2.572284266E-2
3.638958289E0,1.103390336E0,-9.957132936E-1,-4.543372095E-1
3.648672039E0,2.223829508E0,-1.551147223E0,-1.064806104E0
3.658385060E0,3.145365477E0,-1.881655931E0,-1.366301775E0
3.668098966E0,3.471088409E0,-2.197508574E0,-1.170090318E0
3.677813549E0,3.337090254E0,-2.470589399E0,-9.017950296E-1
3.687527299E0,2.851048231E0,-2.628515720E0,-9.089735150E-1
3.697240372E0,2.032104731E0,-2.528017044E0,-8.084749579E-1
3.706954174E0,1.249352574E0,-2.223829508E0,-8.778668046E-1
3.716668810E0,5.527420044E-1,-1.783550143E0,-1.105484009E0
3.726382612E0,2.605185509E-1,-1.522433400E0,-1.507777333E0
3.736095633E0,2.437688112E-1,-1.307079315E0,-1.610668778E0
3.745809435E0,1.815554202E-1,-1.144068360E0,-1.196411371E0
3.755524122E0,-3.379862010E-2,-9.311071038E-1,-7.917252183E-1
3.765237872E0,-2.853440940E-1,-8.090731502E-1,-2.410768867E-1
3.774950945E0,-1.992024779E-1,-9.382855892E-1,6.780661345E-1
3.784664747E0,-5.054837838E-2,-1.067497969E0,1.013360381E0
3.794379383E0,-4.073780477E-1,-8.665009141E-1,-1.050449133E0
3.804093185E0,-1.070489049E0,-9.092725813E-2,-5.996712685E0
3.813806205E0,-3.476472139E0,4.788636267E-1,-8.045866013E0
3.823520008E0,-6.921837807E0,-5.431707501E-1,-7.847261906E0
3.833234695E0,-6.844968319E0,-4.666004181E0,-5.900700569E0
3.842948445E0,-5.810969830E0,-9.360722542E0,-6.161817551E0
3.852661466E0,-7.395616531E0,-1.250429249E1,-4.098007679E0
3.862375372E0,-9.725328445E0,-1.658614922E1,-5.864808083E0
3.872089955E0,-7.259225845E0,-2.108944130E1,-2.027019882E1
3.881803705E0,-1.628315806E0,-2.520240402E1,-1.678923988E1
3.891516778E0,2.242972136E0,-2.823590469E1,-5.742774487E0
3.901230580E0,2.451147795E0,-2.864029312E1,-3.327219963E0
3.910945216E0,3.047259569E0,-2.616013145E1,-5.663811207E0
3.920659018E0,1.862214208E0,-2.380200577E1,-5.723631859E0
3.930372039E0,-1.161416292E0,-2.214048958E1,-3.425325632E0
3.940085841E0,-5.367998600E0,-1.991157532E1,-3.925724745E0
3.949800528E0,-9.471389771E0,-1.755584145E1,-5.311767101E0
3.959514278E0,-1.062532902E1,-1.645454407E1,-3.774976730E0
3.969227299E0,-1.016082191E1,-1.620060539E1,-2.223530531E0
3.978941205E0,-9.878469467E0,-1.605224991E1,-3.183650494E0
3.988655789E0,-8.693424225E0,-1.613599968E1,-5.232803822E0
3.998369539E0,-6.888338089E0,-1.698604965E1,-6.111567974E0
4.008082612E0,-5.109274387E0,-1.814955902E1,-6.846463680E0
4.017796414E0,-3.017050266E0,-1.930110550E1,-7.090531826E0
4.027511049E0,-1.369890928E0,-2.015324974E1,-7.423433304E0
4.037224851E0,-4.217349887E-1,-2.056750679E1,-7.696514130E0
4.046937872E0,-3.379862010E-2,-2.075654030E1,-8.682656288E0
4.056651674E0,-2.733799815E-1,-2.070150566E1,-8.539086342E0
4.066366362E0,-1.084846020E0,-2.055075645E1,-6.556932449E0
4.076080112E0,-2.327319145E0,-2.015324974E1,-4.792225361E0
4.085793133E0,-3.419044495E0,-1.914527321E1,-4.380660057E0
4.095506935E0,-3.481257915E0,-1.758694649E1,-4.318446636E0
4.105221622E0,-2.571686029E0,-1.593260956E1,-4.332803726E0
4.114935372E0,-1.601994753E0,-1.430698586E1,-4.703691006E0
4.124648393E0,-6.634100676E-1,-1.276989651E1,-5.201697350E0
4.134362299E0,3.490529954E-1,-1.104616642E1,-4.741976261E0
4.144076883E0,1.409671664E0,-8.965607643E0,-4.038187504E0
4.153790633E0,2.381755829E0,-6.640980244E0,-3.868296862E0
4.163503705E0,2.733799934E0,-4.134498596E0,-3.966402531E0
4.173217508E0,2.321935177E0,-1.398006678E0,-4.418945312E0
4.182932143E0,1.266102314E0,1.063310504E0,-4.677370071E0
4.192645945E0,-8.144569993E-1,3.059821844E0,-4.349553585E0
4.202358966E0,-3.081656456E0,4.058227062E0,-3.406183004E0
4.212072768E0,-5.382355213E0,4.261617184E0,-1.775773525E0
4.221787455E0,-6.239284992E0,4.601696968E0,9.152546525E-2
4.231501205E0,-6.088537216E0,4.173082829E0,2.090728730E-1
4.241214226E0,-5.346463203E0,3.387937784E0,-1.237089276E0
4.250928028E0,-3.706482172E0,2.265105724E0,-1.253839016E0
4.260642716E0,-2.257927179E0,1.211665511E0,-2.811566554E-2
4.270356466E0,-1.144666553E0,3.041875660E-1,5.201398134E-1
4.280069487E0,1.695913076E-1,-4.211367965E-1,5.368895531E-1
4.289783289E0,1.335494161E0,-9.622138143E-1,-2.650051117E-1
4.299497976E0,2.137687922E0,-1.400399446E0,-1.141376376E0
4.309211726E0,2.522932291E0,-1.730608940E0,-1.598704576E0
4.318924747E0,2.685943365E0,-1.958226204E0,-1.385444283E0
4.328638653E0,2.750549555E0,-2.211865425E0,-9.305089116E-1
4.338353237E0,2.640180588E0,-2.365305185E0,-4.543372095E-1
4.348066987E0,2.036890268E0,-2.365305185E0,-4.184448719E-1
4.357780008E0,1.218245864E0,-2.171187401E0,-7.749754190E-1
4.367493914E0,6.317051649E-1,-1.793121457E0,-1.368694544E0
4.377208497E0,2.341975123E-1,-1.307079315E0,-1.837986946E0
4.386922247E0,1.166501082E-2,-8.808578253E-1,-2.012662888E0
4.396635320E0,-1.250249892E-1,-4.402793646E-1,-1.928914189E0
4.406349122E0,-1.609173268E-1,-2.129612118E-1,-1.756630898E0
4.416063758E0,-1.441675574E-1,-2.560320199E-1,-1.052842021E0
4.425777508E0,6.879365072E-3,-5.144568682E-1,4.845465720E-2
4.435490580E0,1.767697781E-1,-9.526425004E-1,8.458628058E-1
4.445204383E0,-5.030909777E-1,-1.316650629E0,1.144965649E0
4.454919018E0,-1.566102386E0,-1.455434322E0,-2.048555374E0
4.464632820E0,-3.198904753E0,-1.558325768E0,-4.773082733E0
4.474345841E0,-5.808577061E0,-1.594218135E0,-7.883154392E0
4.484059643E0,-6.565008163E0,-4.685146809E0,-8.021938324E0
4.493774278E0,-5.051846981E0,-1.102941704E1,-1.010010433E1
4.503488080E0,-3.917050600E0,-1.331336594E1,-7.483253479E0
4.513201101E0,-5.234000206E0,-1.784297943E1,4.196412563E-1
4.522914903E0,-3.668197155E0,-2.290170479E1,-2.482553422E-1
4.532629591E0,-1.003489971E0,-2.516890526E1,-2.596810818E0
4.542343341E0,1.230209947E0,-2.545873642E1,-3.449253798E0
4.552056362E0,2.585145712E0,-2.446511650E1,-7.444968700E0
4.561770164E0,1.589432478E0,-2.341646194E1,-9.626026154E0
4.571484851E0,-1.820040703E0,-2.309821701E1,-7.880761147E0
4.581198601E0,-4.434199333E0,-2.369672012E1,-6.633502483E0
4.590911622E0,-6.052644730E0,-2.398864555E1,-1.025085258E1
4.600625424E0,-6.524330139E0,-2.386182594E1,-1.460100365E1
4.610340112E0,-6.825825691E0,-2.403410912E1,-1.246301651E1
4.620053862E0,-6.648756981E0,-2.455125809E1,-7.825726509E0
4.629766883E0,-5.712564945E0,-2.413460732E1,-6.544669151E0
4.639480685E0,-5.082953453E0,-2.288974190E1,-8.505587578E0
4.649195372E0,-5.490032673E0,-2.145584297E1,-1.109611702E1
4.658909122E0,-5.875576019E0,-2.056032944E1,-1.131625652E1
4.668622143E0,-5.973681927E0,-2.002164459E1,-9.786345482E0
4.678335945E0,-5.683851242E0,-1.966002846E1,-8.318946838E0
4.688050633E0,-4.927420139E0,-1.949253082E1,-6.302993774E0
4.697764383E0,-3.646661758E0,-1.915753555E1,-4.263112545E0
4.707477403E0,-2.107179403E0,-1.823091507E1,-3.255435228E0
4.717191205E0,-8.599206209E-1,-1.657179260E1,-2.738286495E0
4.726905893E0,2.006980032E-1,-1.486959839E1,-2.505883455E0
4.736619643E0,1.072283626E0,-1.326790237E1,-2.132603168E0
4.746332664E0,1.857428551E0,-1.145803165E1,-1.282552958E0
4.756046466E0,2.125723839E0,-9.791728973E0,-3.176472187E-1
4.765761153E0,1.536491275E0,-8.118248940E0,-2.219343036E-1
4.775474903E0,5.431707501E-1,-6.200401783E0,-1.079162955E0
4.785187924E0,-5.964110494E-1,-4.251746655E0,-2.142174482E0
4.794901726E0,-1.362712502E0,-2.140080690E0,-2.640180588E0
4.804616414E0,-1.714457393E0,-1.076770201E-1,-2.240280151E0
4.814330164E0,-1.692921996E0,1.534696579E0,-1.124626637E0
4.824043185E0,-1.915753603E0,1.572981834E0,1.489532143E-1
4.833756987E0,-1.982752681E0,1.671386600E0,1.757827282E0
4.843471674E0,-9.556335211E-1,2.399103880E0,2.236690998E0
4.853185424E0,-4.145565331E-1,2.490031004E0,1.492223978E0
4.862898445E0,-5.772684813E-1,2.712563515E0,4.052843451E-1
4.872612247E0,-1.115952611E0,2.698206663E0,-4.112663865E-1
4.882326883E0,-1.546959877E0,2.403889418E0,-4.184448719E-1
4.892040685E0,-2.042573214E0,1.704886079E0,-3.008974493E-1
4.901753705E0,-2.471187592E0,8.691928387E-1,-4.591228366E-1
4.911467508E0,-2.502294302E0,2.826521695E-1,-1.012163997E0
4.921182143E0,-2.281855583E0,-2.105683982E-1,-1.957628012E0
4.930895945E0,-1.956431627E0,-5.072783828E-1,-2.752643347E0
4.940608966E0,-1.408176184E0,-7.564310431E-1,-2.960819006E0
4.950322768E0,-4.743770957E-1,-1.201795220E0,-2.673680305E0
4.960037403E0,6.963114142E-1,-1.548754454E0,-1.847558141E0
4.969751153E0,1.594218135E0,-1.797907114E0,-7.534400225E-1
4.979464174E0,1.919641972E0,-1.931905150E0,-2.267199457E-1
4.989178080E0,1.960319996E0,-1.960619092E0,-3.272185028E-1
4.998892664E0,1.666002750E0,-1.941476464E0,-7.199404836E-1
5.008606414E0,1.443171144E0,-1.876870275E0,-1.256231904E0
5.018319435E0,1.397707582E0,-1.965404749E0,-1.737488389E0
5.028033237E0,1.110568762E0,-2.204686880E0,-2.383849621E0
5.037747924E0,9.116654396E-1,-2.618944407E0,-3.375076294E0
5.047461674E0,1.158425212E0,-3.042773008E0,-4.205684662E0
5.057174695E0,1.519741535E0,-3.538386583E0,-4.263112545E0
5.066888497E0,2.101496458E0,-4.057928085E0,-4.797011375E0
5.076603185E0,2.601895571E0,-4.637290478E0,-3.935296059E0
5.086316935E0,1.919641972E0,-5.192724228E0,-2.201995134E0
5.096029955E0,1.169492081E-1,-5.120640278E0,-2.587239504E0
5.105743758E0,-2.348854542E0,-6.382555485E0,-2.790928602E0
5.115458393E0,-7.354938507E0,-9.430113792E0,-1.075603676E1
5.125172143E0,-1.266999626E1,-1.186511040E1,-1.955683899E1
5.134885216E0,-1.341207027E1,-1.697887039E1,-1.202961636E1
5.144599018E0,-7.869694710E0,-2.302373886E1,-7.832904816E0
5.154313653E0,-1.697707653E0,-2.590170670E1,2.691925503E-2
5.164027403E0,1.376172066E0,-2.608356094E1,2.377867460E0
5.173740424E0,3.485445261E0,-2.332792664E1,-7.557431221E0
5.183454226E0,2.760120869E0,-2.202802658E1,-1.019103146E1
5.193168914E0,-5.054838061E-1,-2.154916191E1,-5.709274769E0
5.202882664E0,-3.373580933E0,-2.112294006E1,-3.444468260E0
5.212595685E0,-6.789933205E0,-2.034258080E1,-5.256732464E0
5.222309487E0,-8.997312546E0,-1.955713844E1,-7.310970306E0
5.232024174E0,-8.997312546E0,-1.965524292E1,-6.221638203E0
5.241737924E0,-8.394021988E0,-2.012214279E1,-3.849154234E0
5.251450945E0,-7.347760201E0,-2.035693932E1,-3.667000771E0
5.261164747E0,-6.282355785E0,-2.010300064E1,-5.694917679E0
5.270879383E0,-5.430212021E0,-1.974407768E1,-7.626822948E0
5.280593133E0,-4.834099770E0,-1.946381760E1,-8.713762283E0
5.290306153E0,-3.842873096E0,-1.904716682E1,-8.579764366E0
5.300020060E0,-3.029014349E0,-1.872652817E1,-7.406683445E0
5.309734643E0,-2.511865616E0,-1.865235138E1,-6.743572235E0
5.319448393E0,-2.274677038E0,-1.877199364E1,-5.311767101E0
5.329161414E0,-2.401795626E0,-1.860688782E1,-3.013461113E0
5.338875216E0,-1.918146491E0,-1.811127472E1,-1.466800332E0
5.348589903E0,-7.235297561E-1,-1.728036690E1,-2.096710920E0
5.358303653E0,4.761717021E-1,-1.603310776E1,-3.846761465E0
5.368016674E0,1.349851131E0,-1.430459309E1,-4.737190723E0
5.377730476E0,1.737787485E0,-1.250429249E1,-4.552943230E0
5.387445112E0,1.828714728E0,-1.073480034E1,-3.712464333E0
5.397158862E0,2.118246317E0,-8.819644928E0,-2.635395050E0
5.406871883E0,2.012962103E0,-7.026523590E0,-2.201995134E0
5.416585685E0,1.491027594E0,-4.900500774E0,-2.206780672E0
5.426300372E0,1.029212832E0,-2.650051117E0,-2.285743713E0
5.436014122E0,3.370888829E-1,-1.651047617E-1,-2.501097918E0
5.445727143E0,-7.187440991E-1,2.205285072E0,-2.889034271E0
5.455440945E0,-2.564507723E0,4.110869408E0,-2.326421738E0
5.465155580E0,-4.704887390E0,4.513162613E0,-1.155733347E0
5.474869330E0,-6.632007122E0,4.680660248E0,-1.105484009E0
5.484582403E0,-7.424629688E0,4.790730000E0,-2.536990166E0
5.494296205E0,-6.572186470E0,4.290330887E0,-4.121936321E0
5.504010841E0,-4.800600529E0,3.208176851E0,-4.208077908E0
5.513724591E0,-3.105584621E0,1.721635938E0,-3.159423113E0
5.523437612E0,-1.563709617E0,3.257229924E-1,-2.151745796E0
5.533151414E0,4.328017831E-1,-1.096211910E0,-1.045663476E0
5.542866101E0,2.544467688E0,-2.348555326E0,4.914259613E-1
5.552579851E0,4.203591347E0,-3.272484064E0,1.724327803E0
5.562292872E0,5.039284706E0,-3.756133318E0,2.062014818E0
5.572006674E0,5.319244862E0,-3.756133318E0,1.724327803E0
5.581721310E0,5.046463013E0,-3.492922783E0,8.315058947E-1
5.591435060E0,4.277768612E0,-3.069094181E0,-5.356931686E-1
5.601148080E0,3.080759048E0,-2.571087837E0,-1.682453394E0
5.610861883E0,1.529312730E0,-1.852941990E0,-2.144567251E0
5.620576518E0,1.767697781E-1,-1.187139153E0,-2.216351986E0
5.630290320E0,-8.551349640E-1,-6.798607111E-1,-2.055733681E0
5.640003289E0,-1.367498159E0,-5.192425251E-1,-1.658525229E0
5.649717195E0,-1.345962763E0,-4.905286431E-1,-1.225125194E0
5.659431778E0,-1.144666553E0,-4.809573591E-1,-9.305089116E-1
5.669145528E0,-5.126622319E-1,-6.221339107E-1,-6.672984362E-1
5.678858549E0,-7.208377868E-2,-9.406784177E-1,2.808575630E-1
5.688572351E0,4.761717021E-1,-1.144068360E0,1.473081470E0
5.698286987E0,4.426721931E-1,-1.156032443E0,5.392823815E-1
5.708000737E0,-1.175773263E0,-1.311864972E0,-3.346362352E0
5.717713758E0,-3.735196114E0,-1.465005636E0,-7.421040535E0
5.727427560E0,-5.980860233E0,-3.253341436E0,-7.241578579E0
5.737142247E0,-7.287939548E0,-6.743871689E0,-1.069860935E1
5.746855997E0,-8.963812828E0,-1.118494987E1,-1.727767563E1
5.756569018E0,-1.051765156E1,-1.712004852E1,-1.491207027E1
5.766282820E0,-9.339784622E0,-2.596392059E1,-8.507980347E0
5.775997455E0,-2.272284269E0,-3.219812012E1,-6.786643028E0
5.785711205E0,4.127020836E0,-3.168336487E1,-6.092425346E0
5.795424226E0,4.349553585E0,-2.873391151E1,-1.181426239E1
5.805138028E0,2.443969250E0,-2.649303246E1,-9.295517921E0
5.814852716E0,-6.346961856E-1,-2.651217651E1,-2.314457655E0
5.824566466E0,-4.491627216E0,-2.525743866E1,4.722833633E-1
5.834279487E0,-8.994919777E0,-2.327767754E1,-3.849453330E-1
5.843993289E0,-1.168116188E1,-2.046940041E1,-4.967200756E0
5.853707924E0,-1.182712460E1,-1.907348824E1,-6.645466805E0
5.863421674E0,-1.120469093E1,-1.836491394E1,-4.888237476E0
5.873134695E0,-1.073779202E1,-1.793390656E1,-3.818047523E0
5.882848497E0,-1.041476059E1,-1.744547081E1,-4.907380104E0
5.892563133E0,-9.284749985E0,-1.742632866E1,-6.990033150E0
5.902276883E0,-7.462914944E0,-1.850848389E1,-8.357232094E0
5.911989903E0,-5.377569675E0,-1.882702827E1,-1.007856941E1
5.921703705E0,-3.134298563E0,-1.845105553E1,-1.062203884E1
5.931418393E0,-1.092024446E0,-1.849412537E1,-9.161520004E0
5.941132143E0,8.853443861E-1,-1.876002884E1,-6.949355125E0
5.950845164E0,2.518146753E0,-1.883659935E1,-4.174578190E0
5.960558966E0,3.267698526E0,-1.834337807E1,-1.406979680E0
5.970273601E0,2.994617462E0,-1.714158249E1,-5.476573110E-1
5.979987351E0,1.048355460E0,-1.471645737E1,-1.009771109E0
5.989700372E0,-2.087737769E-1,-1.216182041E1,-2.158924341E0
5.999414174E0,-8.455637097E-1,-9.513862610E0,-2.960819006E0
6.009128810E0,-1.022632599E0,-6.662515640E0,-3.207578659E0
6.018842560E0,-9.987043738E-1,-3.617349625E0,-3.942474365E0
6.028555580E0,-1.092024446E0,-1.914258152E-1,-5.402694225E0
6.038269383E0,-6.035895348E-1,2.870789051E0,-6.377171516E0
6.047984070E0,-1.896311939E-1,3.136392355E0,-5.697310925E0
6.057697820E0,1.292423368E0,3.272783279E0,-4.304089546E0
6.067410789E0,2.656930447E0,4.326223373E0,-1.703988791E0
6.077124591E0,2.841476917E0,3.383152008E0,1.559223056E0
6.086839278E0,1.749751568E0,2.111665964E0,2.703590393E0
6.096553028E0,-8.718847632E-1,-7.627122104E-2,9.918249846E-1
6.106266049E0,-2.511865616E0,-5.048855543E-1,-2.771785975E0
6.115979851E0,-2.590828657E0,-9.000003934E-1,-5.740381718E0
6.125694487E0,-2.272284269E0,-1.029212832E0,-5.754738331E0
6.135408237E0,-1.930110574E0,-9.861420393E-1,-4.730011940E0
6.145121258E0,-1.381855130E0,-4.689932466E-1,-3.786941051E0
6.154835060E0,-7.019943595E-1,1.725823283E-1,-2.805285454E0
6.164549695E0,1.405783277E-2,5.294120312E-1,-1.720738530E0
6.174263445E0,5.431707501E-1,3.616153300E-1,-4.007977992E-2
6.183976466E0,1.132104158E0,-3.565305769E-1,2.160120726E0
6.193690268E0,1.620539188E0,-9.693922997E-1,3.986741543E0
6.203404903E0,2.228615284E0,-1.476969719E0,4.515854359E0
6.213118653E0,2.604288340E0,-1.606182218E0,3.656532049E0
6.222831674E0,2.542074919E0,-1.486541033E0,1.506580949E0
6.232545476E0,1.553241014E0,-9.502496719E-1,-1.325623751E0
6.242260112E0,1.384846121E-1,-2.823530734E-1,-3.556930780E0
6.251973914E0,-9.412766099E-1,1.226321608E-2,-4.665405750E0
6.261686883E0,-1.333998680E0,6.490531564E-2,-4.433301926E0
6.271400685E0,-1.554138303E0,-1.387837082E-1,-3.034996510E0
6.281115372E0,-1.381855130E0,-3.828516304E-1,-1.306481123E0
6.290829122E0,-1.029811025E0,-7.420741320E-1,-1.525424421E-1
6.300542091E0,-7.378866673E-1,-7.277171612E-1,-1.522134304E0
6.310255893E0,-1.314856052E0,-9.047860503E-1,-2.800499916E0
6.319970580E0,-4.132703781E0,-1.431506157E0,-2.462812662E0
6.329684330E0,-6.220142365E0,-4.086641788E0,4.076771438E-1
6.339397351E0,-6.256034851E0,-6.926024914E0,-2.601596355E0
6.349111153E0,-5.959324837E0,-1.001426220E1,-9.894022942E0
6.358825789E0,-5.609673500E0,-1.604746437E1,-2.043051720E1
6.368539539E0,-6.612864494E0,-2.211177444E1,-2.447648239E1
6.378252560E0,-5.595316887E0,-2.500858498E1,-5.204090118E0
6.387966362E0,1.001994461E-1,-3.007209778E1,2.866302490E0
6.397680997E0,8.603992462E0,-3.062274551E1,-1.111765194E1
6.407394747E0,1.076351452E1,-2.728296471E1,-1.415324688E1
6.417107768E0,9.772287369E0,-2.582483673E1,-7.196115017E0
6.426821570E0,5.956034660E0,-2.370629120E1,-4.962415218E0
6.436536205E0,9.308080077E-1,-2.129043770E1,-5.378766060E0
6.446249955E0,-5.001597404E0,-1.925085640E1,-3.743870020E0
6.455962976E0,-9.768399239E0,-1.778555107E1,-2.106282234E0
6.465676778E0,-1.254796219E1,-1.680150414E1,-2.441277266E0
6.475391414E0,-1.292124271E1,-1.620778465E1,-4.651049137E0
6.485105164E0,-1.145623684E1,-1.624606895E1,-6.037390709E0
6.494818185E0,-9.222537041E0,-1.710329819E1,-7.708477974E0
6.504531987E0,-6.352046967E0,-1.819741631E1,-1.043031406E1
6.514246622E0,-4.142275333E0,-1.949492455E1,-1.028195858E1
6.523960372E0,-2.803789854E0,-2.088365936E1,-9.566205978E0
6.533673393E0,-1.417747378E0,-2.201366997E1,-8.534300804E0
6.543387195E0,-2.231307179E-1,-2.282274246E1,-6.341279030E0
6.553101830E0,5.670989752E-1,-2.310060883E1,-5.431707382E0
6.562815580E0,1.189531922E0,-2.282513428E1,-5.421836853E0
6.572528601E0,2.581257522E-1,-2.175494576E1,-4.471587181E0
6.582242403E0,-1.879861236E0,-1.995703888E1,-4.383052826E0
6.591957039E0,-4.448556423E0,-1.771137428E1,-6.635895252E0
6.601670789E0,-4.633102894E0,-1.518305779E1,-7.241578579E0
6.611383810E0,-3.471686602E0,-1.282014561E1,-5.582455158E0
6.621097612E0,-1.851147413E0,-1.074227810E1,-3.738785267E0
6.630812247E0,2.222333997E-1,-8.790931702E0,-2.175673962E0
6.640525997E0,2.202294111E0,-6.669693947E0,-8.347960114E-1
6.650239018E0,3.736691713E0,-4.570291042E0,-8.180462122E-1
6.659952820E0,3.918845177E0,-2.092224360E0,-1.684846282E0
6.669667455E0,2.848655462E0,5.413761139E-1,-2.175673962E0
6.679381205E0,8.685946465E-1,3.244069338E0,-2.654537678E0
6.689094226E0,-1.487139225E0,5.427519798E0,-2.891427040E0
6.698808028E0,-3.998406649E0,6.313462734E0,-2.065604210E0
6.708522664E0,-6.727719784E0,5.880062580E0,-1.019342422E0
6.718236414E0,-7.568199158E0,4.915156841E0,-9.379864931E-1
6.727949435E0,-6.572186470E0,3.368795156E0,-1.454836130E0
6.737663237E0,-4.505984306E0,2.015953064E0,-1.567597985E0
6.747377872E0,-2.617149830E0,7.758727670E-1,-1.806880236E0
6.757091622E0,-1.051346421E0,-1.459621787E-1,-2.053340912E0
6.766804591E0,2.988037169E-1,-9.598209858E-1,-1.833201289E0
6.776518393E0,1.098604679E0,-1.553540111E0,-1.589133382E0
6.786233080E0,1.591825247E0,-1.862513304E0,-1.371087432E0
6.795946830E0,2.439183474E0,-2.120938063E0,-1.014556766E0
6.805659799E0,3.384946823E0,-2.480160713E0,-3.897309899E-1
6.815373601E0,4.122235298E0,-2.913560629E0,-1.854437590E-2
6.825088237E0,4.400101662E0,-3.164807081E0,-4.965107143E-2
6.834801987E0,3.902095556E0,-3.064308405E0,-3.535395563E-1
6.844515008E0,2.870190859E0,-2.815155745E0,-1.007378340E0
6.854228810E0,1.847857237E0,-2.341377020E0,-1.632204175E0
6.863943445E0,1.333101273E0,-1.838585138E0,-2.111067772E0
6.873657195E0,9.690931439E-1,-1.460219979E0,-2.510669231E0
6.883370216E0,4.761717021E-1,-1.247258782E0,-2.841177702E0
6.893084018E0,2.078764737E-1,-1.117747307E0,-2.824428082E0
6.902798653E0,3.323032558E-1,-1.309472203E0,-2.479562521E0
6.912512403E0,5.479564071E-1,-1.347757339E0,-1.826022744E0
6.922225424E0,3.777668774E-1,-1.191924810E0,-1.261017561E0
6.931939226E0,-4.097708687E-2,-1.421934843E0,-2.554338276E-1
6.941653862E0,-5.700899959E-1,-1.656431437E0,3.287140131E-1
6.951367612E0,-6.825526357E-1,-2.008475542E0,-1.836491376E-1
6.961080633E0,-7.761718631E-1,-2.458625317E0,-5.452644825E-1
6.970794435E0,-1.853540182E0,-3.035594702E0,-1.548455358E0
6.980509070E0,-2.717648268E0,-3.545564890E0,-3.267399311E0
6.990222820E0,-3.081656456E0,-6.459125519E0,-3.315255880E0
6.999935789E0,-3.186940670E0,-9.724730492E0,-6.159424782E0
7.009649591E0,-3.210868835E0,-1.234846020E1,-8.922237396E0
7.019364278E0,-5.600102425E0,-1.625803375E1,-1.152443218E1
7.029077976E0,-7.244868755E0,-2.191047859E1,-2.196999931E1
7.038790997E0,-5.164309502E0,-2.586312294E1,-1.376052475E1
7.048504799E0,-2.715255499E0,-2.995006371E1,-2.805285454E0
7.058219435E0,7.848458290E-1,-3.168575668E1,-3.482753277E0
7.067933185E0,2.937189817E0,-3.048874855E1,-6.377171516E0
7.077646205E0,2.103889227E0,-2.899712181E1,-9.886843681E0
7.087360008E0,-9.867402315E-1,-2.624866676E1,-1.055982590E1
7.097074643E0,-5.406283855E0,-2.459672165E1,-8.000402451E0
7.106788393E0,-8.669495583E0,-2.244437790E1,-5.220839977E0
7.116501414E0,-9.626923561E0,-2.037129593E1,-5.029414177E0
7.126215216E0,-8.734101295E0,-1.898495483E1,-6.602396011E0
7.135929851E0,-7.412366390E0,-1.814955902E1,-7.124330521E0
7.145643601E0,-6.943373203E0,-1.779512215E1,-6.075675964E0
7.155356570E0,-7.350152969E0,-1.767787552E1,-5.505885124E0
7.165070372E0,-7.668697357E0,-1.770180321E1,-6.149853230E0
7.174785060E0,-6.981658459E0,-1.801047707E1,-7.653144360E0
7.184498810E0,-4.860421181E0,-1.818305969E1,-8.247162819E0
7.194211778E0,-2.432902336E0,-1.825963020E1,-6.377171516E0
7.203925580E0,-6.924230456E-1,-1.809452438E1,-3.626322746E0
7.213640216E0,2.362912335E-2,-1.775444412E1,-2.022234201E0
7.223353966E0,2.102692872E-1,-1.711047745E1,-1.806880236E0
7.233066987E0,1.480558962E-1,-1.610489273E1,-2.022234201E0
7.242780789E0,6.077769399E-1,-1.491506195E1,-2.802892685E0
7.252495424E0,1.321137190E0,-1.343540001E1,-3.652643681E0
7.262209174E0,1.402493119E0,-1.165663528E1,-4.203291893E0
7.271922195E0,7.537391186E-1,-9.399007797E0,-4.406980991E0
7.281635997E0,-2.662015148E-2,-7.031309128E0,-4.636692047E0
7.291350633E0,-9.122636169E-2,-4.752145767E0,-4.674977303E0
7.301064383E0,4.809573591E-1,-2.575873613E0,-4.560121536E0
7.310777351E0,1.096211910E0,-4.091726840E-1,-4.820939541E0
7.320491153E0,1.404886007E0,1.958525300E0,-5.745167255E0
7.330205789E0,9.164510965E-1,2.882753134E0,-5.149055004E0
7.339919539E0,4.995017126E-2,2.597707987E0,-3.063710213E0
7.349632560E0,-9.699904919E-1,3.792324781E0,-1.462014675E0
7.359346362E0,-1.745564103E0,3.818645954E0,-1.229910851E0
7.369060997E0,-2.784647465E0,3.210569859E0,-1.629811287E0
7.378774747E0,-3.421437263E0,2.039881229E0,-1.833201289E0
7.388487768E0,-3.308974504E0,1.403091431E0,-1.347159147E0
7.398201570E0,-2.250748873E0,7.447660565E-1,-1.021735311E0
7.407916205E0,-1.175773263E0,-4.755735025E-2,-7.869395614E-1
7.417629955E0,-1.322034448E-1,-7.133602500E-1,-4.280161560E-1
7.427342976E0,1.148854017E0,-1.295115232E0,-3.224328458E-1
7.437056726E0,2.228615284E0,-1.661217093E0,-3.224328458E-1
7.446771414E0,2.884547710E0,-1.840977907E0,-1.166501045E-1
7.456485112E0,3.258127213E0,-1.838585138E0,2.760719061E-1
7.466198133E0,3.142972469E0,-1.682752490E0,8.291130662E-1
7.475911935E0,2.649751902E0,-1.555932879E0,1.082752228E0
7.485626570E0,2.164009094E0,-1.512862086E0,7.932206988E-1
7.495340320E0,1.656431437E0,-1.395613790E0,1.947159469E-1
7.505053341E0,1.005284667E0,-1.182353497E0,-6.625127792E-1
7.514767143E0,1.648056656E-1,-9.406784177E-1,-2.043769598E0
7.524481778E0,-4.001995921E-1,-8.258228898E-1,-3.221935749E0
7.534195528E0,-5.988038778E-1,-9.287142754E-1,-3.801297903E0
7.543908549E0,-5.748756528E-1,-1.237687469E0,-3.621536970E0
7.553622351E0,-3.332005441E-1,-1.522433400E0,-2.735893488E0
7.563336987E0,-3.068794906E-1,-1.805085540E0,-1.466800332E0
7.573050737E0,-5.413761139E-1,-1.998904228E0,1.657029688E-1
7.582763705E0,-6.059823632E-1,-2.094617128E0,1.552044630E0
7.592477508E0,-5.198407173E-1,-2.408375978E0,2.052443504E0
7.602192143E0,-1.173380375E0,-3.322733402E0,1.331904888E0
7.611905893E0,-2.001895189E0,-3.394518137E0,-3.678964674E-1
7.621618914E0,-2.887538671E0,-4.067499161E0,-3.205185890E0
7.631332716E0,-6.270391941E0,-6.396912098E0,-9.745667458E0
7.641047351E0,-1.113529968E1,-1.399561977E1,-2.202503586E1
7.650761101E0,-1.170509052E1,-1.818305969E1,-2.241536522E1
7.660474122E0,-8.305487633E0,-2.574108887E1,-1.651376724E1
7.670187924E0,-3.107977629E0,-2.952145004E1,-8.886344910E0
7.679902560E0,2.142473459E0,-2.937548637E1,-2.462812662E0
7.689616310E0,4.957928658E0,-2.917419052E1,-8.704191208E0
7.699329278E0,4.584349155E0,-2.597349167E1,-1.444786358E1
7.709043080E0,3.432803154E0,-2.236302185E1,-7.902296543E0
7.718757716E0,6.963114142E-1,-2.261935234E1,-2.934497833E0
7.728471466E0,-4.572983265E0,-2.145584297E1,-4.452444553E0
7.738184487E0,-9.725328445E0,-1.921257210E1,-8.225327492E0
7.747898289E0,-1.131715393E1,-1.839362717E1,-8.431409836E0
7.757612924E0,-1.067079258E1,-1.884856224E1,-5.443671703E0
7.767326674E0,-1.000289631E1,-1.906152344E1,-5.278267860E0
7.777039695E0,-8.204988480E0,-1.909980965E1,-7.995616913E0
7.786753497E0,-5.916254044E0,-1.931546211E1,-8.857631683E0
7.796468133E0,-4.319344044E0,-1.968156433E1,-6.640681267E0
7.806181883E0,-3.414258718E0,-1.996182442E1,-4.002295017E0
7.815894851E0,-3.601198196E0,-1.966002846E1,-3.930510283E0
7.825608653E0,-3.962514400E0,-1.893231201E1,-6.291029930E0
7.835323289E0,-3.732803345E0,-1.785494423E1,-7.358827114E0
7.845037039E0,-3.366402388E0,-1.684935951E1,-6.245566368E0
7.854750060E0,-2.935694218E0,-1.593739510E1,-4.792225361E0
7.864463862E0,-2.679363251E0,-1.510888004E1,-3.820440531E0
7.874178497E0,-2.607578516E0,-1.425673676E1,-3.212364435E0
7.883892247E0,-2.334497690E0,-1.313390446E1,-3.173780203E0
7.893605268E0,-1.637887120E0,-1.166620636E1,-3.434896946E0
7.903319070E0,-4.624129832E-1,-1.012911701E1,-3.640679598E0
7.913033705E0,7.561319470E-1,-8.484351158E0,-3.305684566E0
7.922747455E0,1.673181176E0,-6.930810928E0,-2.771785975E0
7.932460424E0,2.412862539E0,-5.331508160E0,-2.633002281E0
7.942174226E0,2.755335331E0,-3.432803154E0,-3.147459030E0
7.951888862E0,2.910868645E0,-1.481755376E0,-4.157828331E0
7.961602612E0,2.688336134E0,4.166502357E-1,-4.698905468E0
7.971315633E0,1.625324726E0,1.125523925E0,-3.964009762E0
7.981029435E0,1.887338907E-1,2.099701881E0,-1.809273005E0
7.990744070E0,-8.168498278E-1,3.653541088E0,1.058823988E-1
8.000457820E0,-1.848754644E0,3.993621111E0,5.057829022E-1
8.010170789E0,-3.275475025E0,4.340580463E0,-9.281160831E-1
8.019884591E0,-5.080560684E0,3.926621914E0,-3.046960592E0
8.029599226E0,-5.559424400E0,2.372782707E0,-3.758227110E0
8.039312976E0,-3.943371773E0,1.297807217E0,-2.896212816E0
8.049025997E0,-1.963610053E0,-1.172483116E-1,-2.106282234E0
8.058739799E0,-4.432703853E-1,-9.765707254E-1,-1.840379715E0
8.068454435E0,4.905286431E-1,-1.266401410E0,-1.584347725E0
8.078168185E0,1.371386528E0,-1.366899967E0,-1.282552958E0
8.087881205E0,2.029711723E0,-1.316650629E0,-8.994022012E-1
8.097594955E0,2.403291225E0,-1.232901812E0,-2.267199457E-1
8.107309643E0,2.458326101E0,-1.228116274E0,5.919244885E-1
8.117023341E0,2.276471615E0,-1.390828133E0,1.070788145E0
8.126736362E0,2.099103689E0,-1.558325768E0,1.020538807E0
8.136450164E0,1.644467354E0,-1.534397483E0,2.904288471E-1
8.146164799E0,1.002891779E0,-1.465005636E0,-8.204390407E-1
8.155878549E0,4.208376706E-1,-1.474576950E0,-1.770987868E0
8.165591570E0,-5.772684515E-2,-1.661217093E0,-2.223530531E0
8.175305372E0,-1.944168471E-2,-1.936690807E0,-2.405385017E0
8.185020008E0,4.184448719E-1,-2.152044773E0,-2.295315027E0
8.194733705E0,6.005984545E-1,-2.214258194E0,-1.955235243E0
8.204446726E0,4.594219327E-1,-2.240579367E0,-1.076770186E0
8.214160528E0,5.431707501E-1,-2.254936218E0,-2.811566554E-2
8.223875164E0,3.011965454E-1,-2.923131943E0,1.504188180E0
8.233588914E0,-7.713862062E-1,-4.144069672E0,2.928515911E0
8.243301935E0,-1.841576099E0,-4.572684288E0,2.928515911E0
8.253015737E0,-2.873181820E0,-4.500600338E0,-2.824428082E0
8.262730372E0,-4.826921463E0,-4.100998878E0,-1.488335705E1
8.272444122E0,-1.001007462E1,-1.192971611E1,-2.427309227E1
8.282157091E0,-1.095105171E1,-1.777119446E1,-1.705962944E1
8.291870893E0,-6.950551510E0,-2.080200386E1,-4.507479668E0
8.301585528E0,-3.538984776E0,-2.549223518E1,5.066503048E0
8.311299278E0,-4.313062727E-1,-2.731406975E1,5.392225742E0
8.321012299E0,2.709871531E0,-2.726382065E1,-1.097856903E1
8.330726101E0,4.696811676E0,-2.464457703E1,-2.513032150E1
8.340440737E0,2.927618504E0,-2.373979187E1,-1.798624992E1
8.350154435E0,-3.643072546E-1,-2.467807770E1,-7.617251873E0
8.359867455E0,-3.625126362E0,-2.470439911E1,-5.883950710E0
8.369581258E0,-5.976074696E0,-2.347388840E1,-9.978070259E0
8.379295893E0,-6.895516872E0,-2.188176537E1,-1.239601803E1
8.389009643E0,-7.309474945E0,-2.116601181E1,-9.319445610E0
8.398722664E0,-7.556234837E0,-2.078046799E1,-7.150651455E0
8.408436414E0,-7.412366390E0,-1.983739662E1,-9.568598747E0
8.418151049E0,-6.840182781E0,-1.924128532E1,-1.226202011E1
8.427864799E0,-6.426224232E0,-1.897059631E1,-1.207507992E1
8.437577820E0,-5.930611134E0,-1.861406708E1,-9.709774971E0
8.447291622E0,-5.298606873E0,-1.826202202E1,-7.287042141E0
8.457006258E0,-4.412663937E0,-1.770419502E1,-5.491528034E0
8.466720008E0,-3.246761322E0,-1.691157341E1,-3.688536167E0
8.476432976E0,-2.327319145E0,-1.591107464E1,-2.137388945E0
8.486146778E0,-1.820040703E0,-1.514955807E1,-1.641775489E0
8.495861414E0,-1.441675663E0,-1.444816208E1,-1.512562990E0
8.505575164E0,-6.972087026E-1,-1.366780281E1,-1.100698471E0
8.515288185E0,-2.614158690E-1,-1.285125256E1,-8.060821295E-1
8.525001987E0,3.945166469E-1,-1.169731331E1,-1.016949654E0
8.534716622E0,1.182353497E0,-1.036391354E1,-1.668096542E0
8.544430372E0,1.759322882E0,-8.901000977E0,-2.197209358E0
8.554143341E0,1.957927108E0,-7.129415035E0,-2.417349100E0
8.563857143E0,1.519741535E0,-5.178367138E0,-2.793321371E0
8.573571778E0,9.212366939E-1,-2.894418001E0,-3.173780203E0
8.583285528E0,3.681955934E-1,-4.331009090E-1,-3.604787350E0
8.592998549E0,-3.379862010E-1,1.649851203E0,-3.470789194E0
8.602712299E0,-1.092024446E0,2.602493763E0,-2.304886341E0
8.612426935E0,-1.575673699E0,2.748754978E0,-4.926223755E-1
8.622140685E0,-1.963610053E0,3.114856958E0,1.286142230E0
8.631853705E0,-2.365604401E0,3.074178934E0,2.196012974E0
8.641567508E0,-2.681756020E0,2.813361168E0,2.200798512E0
8.651282143E0,-2.973979473E0,2.329711914E0,8.841479421E-1
8.660995893E0,-2.794218540E0,1.477268934E0,-1.280160069E0
8.670708862E0,-2.286641121E0,1.036690354E0,-2.843570709E0
8.680422664E0,-2.016252279E0,9.122636318E-1,-3.298506021E0
8.690137299E0,-1.982752681E0,8.907282352E-1,-3.410968781E0
8.699851049E0,-1.999502420E0,7.447660565E-1,-3.487539053E0
8.709564070E0,-1.930110574E0,4.959124923E-1,-3.135494947E0
8.719277872E0,-1.707278967E0,4.576273263E-2,-2.350350142E0
8.728992455E0,-1.022632599E0,-5.599204898E-1,-1.246660590E0
8.738706205E0,1.097707376E-1,-1.225723386E0,-1.573280841E-1
8.748419226E0,1.287637711E0,-1.776371717E0,6.565307379E-1
8.758133028E0,2.221436739E0,-2.195115566E0,1.018146038E0
8.767847664E0,2.932404041E0,-2.664407969E0,5.871388316E-1
8.777561414E0,3.437588930E0,-3.054737091E0,-2.626122832E-1
8.787274383E0,3.748655796E0,-3.186342478E0,-1.198804140E0
8.796988185E0,3.696013689E0,-2.985345364E0,-1.916949987E0
8.806702820E0,2.932404041E0,-2.465803623E0,-2.400599241E0
8.816416570E0,2.106282234E0,-2.010868311E0,-2.759821892E0
8.826129591E0,1.225424290E0,-1.893620014E0,-3.456432343E0
8.835843341E0,2.030908167E-1,-1.874477386E0,-4.167399883E0
8.845557976E0,-2.709871531E-1,-2.575873613E0,-4.758726120E0
8.855271726E0,-3.738785386E-1,-3.552743435E0,-4.969593525E0
8.864984747E0,-1.039382339E0,-4.510171413E0,-5.256732464E0
8.874698549E0,-1.918146491E0,-5.467898846E0,-5.369194984E0
8.884413185E0,-2.542972326E0,-6.835097790E0,-3.726821184E0
8.894126883E0,-3.445365429E0,-9.631410599E0,-5.378766060E0
8.903839903E0,-5.885147095E0,-1.376590824E1,-1.004746246E1
8.913553705E0,-6.773183823E0,-1.647847176E1,-3.611965895E0
8.923268341E0,-6.232106686E0,-2.008146477E1,1.130608693E-1
8.932982091E0,-4.814957142E0,-2.287059975E1,-3.317648649E0
8.942695060E0,-1.432104349E0,-2.381157684E1,-7.442575932E0
8.952408862E0,3.248555899E0,-2.446272278E1,-1.356431293E1
8.962123497E0,4.610670090E0,-2.437179565E1,-1.677009773E1
8.971837247E0,2.441576481E0,-2.280360031E1,-9.626026154E0
8.981550268E0,9.427721500E-1,-2.367757797E1,-4.641477585E0
8.991264070E0,-8.479565382E-1,-2.452254295E1,-6.216852188E0
9.000978653E0,-2.408974171E0,-2.262653160E1,-9.151947975E0
9.010692403E0,-5.576174259E0,-2.106311989E1,-9.187840462E0
9.020405424E0,-8.559425354E0,-1.989243126E1,-8.158329010E0
9.030119226E0,-9.777970314E0,-1.901127434E1,-7.239185810E0
9.039833862E0,-8.741280556E0,-1.796979904E1,-7.277471066E0
9.049547612E0,-6.885945320E0,-1.760369682E1,-7.837690353E0
9.059260580E0,-5.775077343E0,-1.758934021E1,-8.519944191E0
9.068974383E0,-5.013561726E0,-1.761326790E1,-9.061020851E0
9.078689018E0,-4.498805523E0,-1.765155411E1,-8.443373680E0
9.088402768E0,-3.893122435E0,-1.751276970E1,-7.076174736E0
9.098115789E0,-3.332902908E0,-1.735215187E1,-4.825725079E0
9.107829591E0,-2.547757864E0,-1.698844337E1,-2.560918331E0
9.117544226E0,-2.245963097E0,-1.663879204E1,-6.026921868E-1
9.127257924E0,-1.769492388E0,-1.614796448E1,3.454637825E-1
9.136970945E0,-1.084846020E0,-1.537478256E1,8.673982322E-2
9.146684747E0,-1.896311939E-1,-1.418973732E1,-9.137591720E-1
9.156399383E0,1.416850090E0,-1.295653629E1,-2.292922258E0
9.166113133E0,2.973082066E0,-1.163510036E1,-3.564109325E0
9.175826101E0,4.019343853E0,-1.019162941E1,-4.260719776E0
9.185539903E0,4.093521118E0,-8.920144081E0,-4.069293976E0
9.195254539E0,3.274876833E0,-7.433602810E0,-3.236292601E0
9.204968289E0,2.355434895E0,-5.769693375E0,-3.049353361E0
9.214681310E0,1.376172066E0,-3.981058598E0,-3.372683525E0
9.224395112E0,3.729812205E-1,-2.159223318E0,-3.475574970E0
9.234109747E0,-5.940182209E-1,-5.072783828E-1,-3.104388237E0
9.243823497E0,-1.444068432E0,1.115952611E0,-2.199602127E0
9.253536466E0,-2.535793781E0,2.612065077E0,-1.222732425E0
9.263250268E0,-3.936193228E0,3.337688446E0,-5.763711333E-1
9.272964903E0,-4.829314232E0,3.672683716E0,-5.667998791E-1
9.282678653E0,-4.948955536E0,3.900300980E0,-1.170090318E0
9.292391674E0,-4.460520744E0,3.639184237E0,-1.701596022E0
9.302105424E0,-3.515056372E0,2.887538671E0,-2.388635159E0
9.311820060E0,-2.169392824E0,1.843669891E0,-3.111566782E0
9.321533810E0,-5.413761139E-1,5.509474277E-1,-3.904189348E0
9.331246830E0,1.158425212E0,-9.263214469E-1,-4.119543076E0
9.340960633E0,2.985046148E0,-2.559123755E0,-3.037389278E0
9.350675268E0,4.431208611E0,-3.930809498E0,-1.280160069E0
9.360389018E0,5.103890896E0,-4.639683247E0,3.693920076E-1
9.370102039E0,5.089533806E0,-4.663611412E0,1.276570916E0
9.379815789E0,4.878666401E0,-4.335495472E0,1.233500123E0
9.389530424E0,4.538885593E0,-3.787240028E0,5.799604058E-1
9.399244174E0,3.854238987E0,-3.195913792E0,1.154536903E-1
9.408957195E0,2.654537678E0,-2.614158630E0,7.776673418E-3
9.418670997E0,1.361815214E0,-2.180758715E0,-7.118647546E-2
9.428385633E0,-1.417747438E-1,-1.840977907E0,1.106680483E-1
9.438099383E0,-1.702493310E0,-1.366899967E0,1.974078640E-2
9.447812351E0,-2.336890459E0,-9.933205247E-1,-7.462615371E-1
9.457526153E0,-2.277069807E0,-6.846463680E-1,-1.373480201E0
9.467240789E0,-1.298106313E0,-3.541377485E-1,-1.964806437E0
9.476954539E0,-4.815555736E-2,-2.033899277E-1,-2.819642305E0
9.486667560E0,2.006980032E-1,-5.096712112E-1,-2.788535595E0
9.496381362E0,-7.235297561E-1,-1.050748229E0,-3.801297903E0
9.506095997E0,-3.684946775E0,-1.591825247E0,-7.320541859E0
9.515809747E0,-7.328617573E0,-3.512065411E0,-7.887939930E0
9.525522768E0,-1.009382343E1,-6.976274490E0,-1.085653591E1
9.535236570E0,-1.013210869E1,-1.098156071E1,-1.210140133E1
9.544951205E0,-9.792327881E0,-1.574327755E1,-7.919046402E0
9.554664903E0,-5.858826160E0,-2.227688026E1,-9.535099030E0
9.564377924E0,-7.307082415E-1,-2.431915474E1,-8.364410400E0
9.574091726E0,2.628216505E0,-2.371586418E1,-4.770689964E0
9.583806362E0,5.580361366E0,-2.531726074E1,-4.732405186E0
9.593520112E0,5.166104317E0,-2.461586380E1,-6.693323135E0
9.603233133E0,2.508575439E0,-2.306441689E1,-8.551051140E0
9.612946935E0,5.503492355E-1,-2.275095749E1,-8.546265602E0
9.622661570E0,-1.487139225E0,-2.234148598E1,-7.344470024E0
9.632375320E0,-4.022335052E0,-2.158026886E1,-6.609574318E0
9.642088341E0,-6.409474373E0,-2.049572182E1,-6.676573277E0
9.651802091E0,-8.111668587E0,-1.921735764E1,-6.448956013E0
9.661516778E0,-8.264809608E0,-1.841755676E1,-6.487241268E0
9.671230476E0,-8.092526436E0,-1.769462395E1,-6.508776665E0
9.680943497E0,-7.867301941E0,-1.713440514E1,-6.123532295E0
9.690657299E0,-8.128418922E0,-1.702912140E1,-7.068996429E0
9.700371935E0,-8.068597794E0,-1.705304909E1,-7.854440212E0
9.710085685E0,-7.199405193E0,-1.733061600E1,-7.291827679E0
9.719798705E0,-5.607280731E0,-1.752952003E1,-6.578467846E0
9.729512508E0,-3.730410576E0,-1.749123383E1,-5.429314613E0
9.739227143E0,-2.473580360E0,-1.764676857E1,-4.574478626E0
9.748940893E0,-1.302891970E0,-1.775922966E1,-4.706083775E0
9.758653862E0,-4.767699242E-1,-1.784537125E1,-4.967200756E0
9.768367664E0,3.559323773E-2,-1.758934021E1,-4.931308270E0
9.778082299E0,1.546062589E0,-1.575763416E1,-4.708476543E0
9.787796049E0,1.816750646E0,-1.507777405E1,-4.529015064E0
9.797509070E0,1.225424290E0,-1.361276817E1,-3.650250912E0
9.807222872E0,9.260223508E-1,-1.183131123E1,-2.664108992E0
9.816937508E0,7.776673436E-1,-1.032562828E1,-2.139781713E0
9.826651258E0,6.412764788E-1,-8.532505989E0,-1.572383523E0
9.836364278E0,8.566305041E-1,-6.729514599E0,-1.237089276E0
9.846078080E0,1.220638633E0,-5.029713154E0,-1.881057739E0
9.855792716E0,1.869392633E0,-3.023630619E0,-3.475574970E0
9.865506466E0,2.446362019E0,-1.022034407E0,-5.094020367E0
9.875219435E0,2.534896374E0,1.470090389E0,-6.190531254E0
9.884933237E0,1.984248161E0,2.868396044E0,-6.049354553E0
9.894647924E0,9.427721500E-1,2.758326292E0,-4.160221100E0
9.904361622E0,-2.518445849E-1,3.773182154E0,-2.178066730E0
9.914074643E0,-1.501496196E0,4.376472473E0,-1.536491275E0
9.923788445E0,-3.146262646E0,3.682255030E0,-1.931306958E0
9.933503080E0,-4.496412754E0,2.066202402E0,-1.658525229E0
9.943216830E0,-3.876372576E0,1.374377489E0,-6.050850153E-1
9.952929851E0,-2.789433002E0,2.970091105E-1,-2.554338276E-1
9.962643653E0,-1.503889084E0,-5.096712112E-1,-8.108677864E-1
9.972357560E0,-2.877369225E-1,-9.741778970E-1,-1.423729420E0
9.982072091E0,6.747759581E-1,-1.218544960E0,-1.708774447E0
9.991785060E0,1.321137190E0,-1.402792215E0,-1.761416554E0
1.000149881E1,2.017747641E0,-1.572682738E0,-1.548455358E0
1.001121345E1,2.647359133E0,-1.613360643E0,-1.112662554E0
1.002092725E1,2.958725214E0,-1.508076429E0,-6.026921868E-1
1.003064022E1,2.697907448E0,-1.386042476E0,-2.697907388E-1
1.004035402E1,2.039283037E0,-1.160818100E0,-1.836491376E-1
1.005006865E1,1.055533886E0,-1.010070205E0,-3.343969584E-1
1.005978240E1,-1.752742529E-1,-9.334999323E-1,-5.500500798E-1
1.006949542E1,-1.513460279E0,-1.041176915E0,-8.419744968E-1
1.007920923E1,-2.562114954E0,-1.156032443E0,-9.882357717E-1
1.008892386E1,-2.995514870E0,-1.323829174E0,-6.529414654E-1
1.009863761E1,-2.925823927E0,-1.680359721E0,4.746761918E-1
1.010835063E1,-2.519043922E0,-1.795514345E0,2.004587173E0
1.011806444E1,-1.879861236E0,-2.018046856E0,3.077169895E0
1.012777907E1,-1.039382339E0,-2.836691141E0,2.449951172E0
1.013749277E1,-5.988038778E-1,-3.002095222E0,-4.543372095E-1
1.014720579E1,-2.028216362E0,-2.618944407E0,-7.169794083E0
1.015691959E1,-2.598007202E0,-5.362614632E0,-1.882642937E1
1.016663423E1,-1.360319614E0,-1.234128189E1,-2.794577599E1
1.017634798E1,-3.112763166E0,-1.848694801E1,-2.067488480E1
1.018606100E1,-5.662315845E0,-2.421386909E1,-3.774976730E0
1.019577480E1,-5.516353607E0,-2.562623405E1,4.757828712E0
1.020548944E1,-3.651447296E0,-2.460150719E1,1.686042666E0
1.021520318E1,1.526919961E0,-2.385464668E1,-7.662715435E0
1.022491621E1,4.797310352E0,-2.226012993E1,-1.784985924E1
1.023462996E1,3.851846218E0,-2.043590164E1,-1.747867203E1
1.024434464E1,1.483849168E0,-1.928914070E1,-9.446564674E0
1.025405834E1,-1.192523003E0,-1.840080643E1,-4.576871395E0
1.026377136E1,-5.296213627E0,-1.748884201E1,-6.018248081E0
1.027348516E1,-9.141180992E0,-1.657418442E1,-1.139282703E1
1.028319980E1,-1.091037369E1,-1.584407520E1,-1.343031502E1
1.029291355E1,-1.095105171E1,-1.578156281E1,-8.824131966E0
1.030262657E1,-9.650852203E0,-1.617189217E1,-3.925724745E0
1.031234037E1,-6.737291336E0,-1.653111458E1,-3.288934708E0
1.032205501E1,-4.237987995E0,-1.661725616E1,-5.096413136E0
1.033176876E1,-2.791825771E0,-1.676082611E1,-7.296613693E0
1.034148178E1,-2.056930065E0,-1.703151321E1,-8.481658936E0
1.035119553E1,-2.171785593E0,-1.740718651E1,-7.368398190E0
1.036091016E1,-2.514258385E0,-1.790519333E1,-5.907878876E0
1.037062397E1,-2.657827854E0,-1.786451530E1,-5.019842625E0
1.038033694E1,-3.103191853E0,-1.728276062E1,-4.596014023E0
1.039005074E1,-3.543770313E0,-1.650718689E1,-4.914558411E0
1.039976537E1,-3.601198196E0,-1.589671707E1,-5.352445126E0
1.040947912E1,-3.268296719E0,-1.552313805E1,-6.233602047E0
1.041919214E1,-2.473580360E0,-1.516630840E1,-6.413064003E0
1.042890594E1,-1.237986565E0,-1.469252968E1,-5.572884083E0
1.043862058E1,-8.165507019E-2,-1.403629780E1,-4.397409916E0
1.044833433E1,1.139282703E0,-1.303340626E1,-3.786941051E0
1.045804730E1,1.594218135E0,-1.143410301E1,-3.918546200E0
1.046776110E1,1.208674550E0,-9.722337723E0,-4.296612263E0
1.047747574E1,1.244566917E0,-8.285746574E0,-3.808476448E0
1.048718949E1,1.287637711E0,-6.595516682E0,-2.664108992E0
1.049690251E1,1.057926655E0,-4.838287354E0,-1.950449586E0
1.050661631E1,8.135597110E-1,-3.131307602E0,-1.912164450E0
1.051633094E1,1.407278776E0,-1.378864050E0,-2.230708838E0
1.052604470E1,2.039283037E0,-1.268195957E-1,-2.280958176E0
1.053575772E1,2.135295153E0,2.730808854E-1,-1.249053478E0
1.054547147E1,1.814357758E0,1.898704767E0,3.167499006E-1
1.055518615E1,6.293123364E-1,3.122035265E0,1.039681435E0
1.056489985E1,-1.168594718E0,3.979264021E0,1.495514158E-2
1.057461287E1,-3.007478952E0,4.802694321E0,-2.431705952E0
1.058432667E1,-4.077668667E0,4.005585194E0,-3.865904093E0
1.059404131E1,-3.313760281E0,2.446960211E0,-2.891427040E0
1.060375506E1,-1.989931107E0,1.479661703E0,-1.648953915E0
1.061346808E1,-1.008275628E0,5.892325640E-1,-1.191625714E0
1.062318188E1,-4.408775866E-1,9.601201117E-2,-1.272981644E0
1.063289652E1,2.093719784E-3,-2.321037948E-1,-1.560419440E0
1.064261022E1,4.833501875E-1,-5.359922647E-1,-1.849951029E0
1.065232324E1,1.160818100E0,-9.406784177E-1,-1.916949987E0
1.066203704E1,1.809572101E0,-1.376471281E0,-1.883450508E0
1.067175167E1,1.924427629E0,-1.737787485E0,-1.780559182E0
1.068146542E1,1.697109461E0,-1.946262121E0,-1.512562990E0
1.069117844E1,1.450349569E0,-2.331805706E0,-9.499505758E-1
1.070089225E1,1.124925733E0,-2.810370207E0,-4.184448719E-1
1.071060688E1,5.670989752E-1,-3.112164974E0,-1.884347796E-1
1.072032063E1,8.823533356E-2,-3.298804998E0,-8.204390407E-1
1.073003360E1,-9.361918271E-2,-3.447459221E0,-2.271386862E0
1.073974740E1,-2.398804724E-1,-3.468994617E0,-3.631108284E0
1.074946204E1,-1.441675574E-1,-3.512065411E0,-5.230411053E0
1.075917579E1,-3.188436031E-1,-3.557528973E0,-6.475276947E0
1.076888881E1,-1.417747378E0,-3.952344894E0,-7.811369419E0
1.077860261E1,-3.390330553E0,-5.604289532E0,-9.695418358E0
1.078831725E1,-4.065704823E0,-8.874680519E0,-1.252044487E1
1.079803100E1,-4.395914078E0,-1.281536007E1,-1.190279675E1
1.080774402E1,-4.774279594E0,-1.783819389E1,-6.216852188E0
1.081745777E1,-4.029513359E0,-2.307398796E1,-9.786644578E-1
1.082717246E1,-3.649054527E0,-2.567169762E1,2.976073027E-1
1.083688615E1,-1.997109652E0,-2.474507713E1,-2.115853310E0
1.084659917E1,-1.752742529E-1,-2.419442749E1,-5.003093243E0
1.085631298E1,3.897309899E-1,-2.387139702E1,-7.229614735E0
1.086602761E1,3.681955934E-1,-2.306202507E1,-7.456932545E0
1.087574136E1,-1.896311939E-1,-2.262413788E1,-8.256733894E0
1.088545438E1,-1.714457393E0,-2.203759766E1,-8.850452423E0
1.089516819E1,-3.833301783E0,-2.092194366E1,-8.220541954E0
1.090488282E1,-6.205785751E0,-2.006232262E1,-7.289434910E0
1.091459657E1,-7.781160355E0,-1.973450470E1,-7.167401314E0
1.092430959E1,-8.801100731E0,-1.944946098E1,-7.832904816E0
1.093402339E1,-9.442676544E0,-1.867627907E1,-8.230113029E0
1.094373803E1,-9.085846901E0,-1.780948067E1,-8.718548775E0
1.095345178E1,-7.812266827E0,-1.763719749E1,-8.900702477E0
1.096316475E1,-5.164309502E0,-1.712004852E1,-7.794619560E0
1.097287855E1,-3.021835804E0,-1.711526299E1,-5.651846886E0
1.098259318E1,-1.491924882E0,-1.690439415E1,-3.726821184E0
1.099230694E1,-4.576273263E-1,-1.637558174E1,-2.381456852E0
1.100201996E1,1.884347759E-2,-1.572892094E1,-1.325623751E0
1.101173376E1,1.863410622E-1,-1.508973789E1,-6.577271223E-1
1.102144839E1,2.150549293E-1,-1.448405457E1,-3.825525343E-1
1.103116214E1,3.442673683E-1,-1.375394440E1,-6.074778438E-1
1.104087516E1,1.148854017E0,-1.249232864E1,-1.469193101E0
1.105058897E1,1.526919961E0,-1.113230801E1,-2.709572554E0
1.106030360E1,1.967498422E0,-1.016500950E1,-3.741178274E0
1.107001735E1,2.635395050E0,-8.628219604E0,-3.707678795E0
1.107973037E1,2.951546669E0,-6.861418724E0,-3.125923634E0
1.108944417E1,2.824727058E0,-5.128118038E0,-2.728715181E0
1.109915881E1,2.616252422E0,-3.140878916E0,-2.767000198E0
1.110887256E1,2.247757673E0,-1.096211910E0,-3.094816923E0
1.111858558E1,1.601396561E0,1.300199986E0,-3.322434187E0
1.112829938E1,5.790630579E-1,1.829312921E0,-2.496312141E0
1.113801402E1,-3.164508045E-1,2.149951220E0,-7.797610760E-1
1.114772777E1,-1.482353687E0,3.634398460E0,1.106680483E-1
1.115744079E1,-3.007478952E0,4.137190342E0,-7.438687682E-1
1.116715459E1,-4.379164696E0,3.023929596E0,-2.577668190E0
1.117686923E1,-4.472484589E0,2.356033087E0,-3.250649452E0
1.118658298E1,-3.411865950E0,1.680957913E0,-2.836392164E0
1.119629600E1,-2.255534410E0,5.389832854E-1,-1.893021822E0
1.120600980E1,-1.343569875E0,-2.201396823E-1,-8.635098934E-1
1.121572444E1,-4.313062727E-1,-6.221339107E-1,-2.769692242E-1
1.122543819E1,3.849453330E-1,-8.090731502E-1,-4.965107143E-2
1.123515121E1,8.231309652E-1,-8.066803217E-1,1.465603858E-1
1.124486501E1,1.156032443E0,-7.899305820E-1,7.716853172E-2
1.125457964E1,1.227817178E0,-9.406784177E-1,-2.602194548E-1
1.126429339E1,1.156032443E0,-1.079462171E0,-5.667998791E-1
1.127400641E1,9.786644578E-1,-1.211366415E0,-7.941179872E-1
1.128372022E1,9.475577474E-1,-1.651645780E0,-8.587242365E-1
1.129343485E1,1.474277854E0,-2.252543449E0,-6.146563292E-1
1.130314860E1,2.171187401E0,-2.714657307E0,-3.825525343E-1
1.131286162E1,2.877369165E0,-3.052344322E0,-3.726821244E-1
1.132257542E1,3.248555899E0,-3.179163933E0,-5.955137610E-1
1.133229006E1,2.937189817E0,-3.030808926E0,-7.223333120E-1
1.134200381E1,1.852642894E0,-2.585444927E0,-1.318445325E0
1.135171683E1,2.653042078E-1,-2.037189484E0,-2.778964281E0
1.136143063E1,-1.286142230E0,-1.646860242E0,-3.959224224E0
1.137114527E1,-3.854837179E0,-1.663609982E0,-5.177769184E0
1.138085902E1,-6.203392506E0,-3.090629578E0,-3.899403572E0
1.139057204E1,-7.771588802E0,-6.779763699E0,-3.267399311E0
1.140028584E1,-7.005586624E0,-1.120648575E1,-9.173483849E0
1.141000053E1,-6.725327015E0,-1.543221092E1,-1.005703354E1
1.141971428E1,-4.759922504E0,-2.177169418E1,-1.310219955E1
1.142942730E1,3.562314808E-1,-2.570519638E1,-1.388764381E1
1.143914110E1,3.116651535E0,-2.768047142E1,-2.702394009E0
1.144885574E1,4.861916542E0,-2.859482956E1,1.288534999E0
1.145856949E1,3.303590775E0,-2.594238472E1,-6.310172558E0
1.146828251E1,7.322037220E-1,-2.268395805E1,-1.422981739E1
1.147799631E1,-1.322034448E-1,-2.144148636E1,-1.118465137E1
1.148771094E1,-2.133500576E0,-2.077807617E1,-6.051747799E0
1.149742470E1,-4.953741074E0,-1.982064819E1,-4.332803726E0
1.150713772E1,-7.331010342E0,-1.904477501E1,-4.679762840E0
1.151685162E1,-8.975776672E0,-1.822852325E1,-6.032605171E0
1.152656620E1,-1.013210869E1,-1.780230141E1,-6.990033150E0
1.153627996E1,-1.049850941E1,-1.785255051E1,-7.473682404E0
1.154599298E1,-1.001725292E1,-1.810648918E1,-7.437789917E0
1.155570678E1,-8.906385422E0,-1.844387627E1,-7.825726509E0
1.156542141E1,-7.249654293E0,-1.888924026E1,-8.498408318E0
1.157513516E1,-4.802993298E0,-1.949253082E1,-8.503194809E0
1.158484818E1,-2.035394669E0,-1.995943069E1,-7.066603661E0
1.159456209E1,1.743769497E-1,-2.015324974E1,-5.718846321E0
1.160427667E1,1.606182218E0,-1.972971916E1,-5.003093243E0
1.161399042E1,1.945963025E0,-1.876002884E1,-4.852046013E0
1.162370344E1,1.656431437E0,-1.730190277E1,-5.034199715E0
1.163341725E1,1.268495083E0,-1.555424404E1,-4.936093807E0
1.164313194E1,3.921238184E-1,-1.395015621E1,-4.588835716E0
1.165284568E1,-3.499503136E-1,-1.216899872E1,-4.318446636E0
1.166255870E1,-7.211369276E-1,-1.047637558E1,-3.655036688E0
1.167227251E1,-7.283154130E-1,-8.554041862E0,-2.633002281E0
1.168198714E1,-2.949153781E-1,-6.523731709E0,-1.770987868E0
1.169170089E1,2.461616248E-1,-4.558028221E0,-1.869093537E0
1.170141391E1,9.236295223E-1,-2.664407969E0,-2.536990166E0
1.171112782E1,1.567897081E0,-7.325028181E-1,-3.492324591E0
1.172084240E1,1.823929071E0,1.161416292E0,-4.517050743E0
1.173055615E1,1.536491275E0,2.930609465E0,-5.412265778E0
1.174026917E1,7.537391186E-1,3.984049797E0,-5.216054440E0
1.174998298E1,-2.997010350E-1,4.137190342E0,-3.827618837E0
1.175969766E1,-1.077667475E0,3.294617653E0,-1.782951951E0
1.176941141E1,-1.396211982E0,3.150749207E0,-2.051845491E-1
1.177912444E1,-1.841576099E0,1.989632010E0,5.895316601E-1
1.178883824E1,-1.515853167E0,1.029511929E0,3.574278951E-1
1.179855292E1,-9.628120065E-1,1.749751568E-1,-6.337988973E-1
1.180826667E1,-3.810569942E-1,-5.335994363E-1,-1.363908887E0
1.181797970E1,5.712864175E-2,-1.005284667E0,-1.665703654E0
1.182769350E1,3.083750308E-1,-1.240080357E0,-1.723131418E0
1.183740819E1,4.809573591E-1,-1.323829174E0,-1.701596022E0
1.184712194E1,8.518448472E-1,-1.347757339E0,-1.692024708E0
1.185683496E1,1.225424290E0,-1.316650629E0,-1.696810365E0
1.186654876E1,1.601396561E0,-1.350150228E0,-1.543669701E0
1.187626345E1,1.699502230E0,-1.469791293E0,-1.213161111E0
1.188597720E1,1.471885085E0,-1.546361685E0,-6.170491576E-1
1.189569022E1,8.685946465E-1,-1.697109461E0,7.477571070E-2
1.190540402E1,6.173482537E-1,-1.802692771E0,4.722833633E-1
1.191511871E1,6.101697683E-1,-1.896012783E0,5.991029739E-1
1.192483246E1,6.652047038E-1,-1.843370795E0,7.115656137E-1
1.193454548E1,9.355936646E-1,-1.977368832E0,6.852445602E-1
1.194425928E1,1.380957723E0,-2.185544491E0,1.489532143E-1
1.195397397E1,1.620539188E0,-2.223829508E0,-7.606185079E-1
1.196368772E1,1.522134304E0,-2.271686077E0,-1.672882080E0
1.197340074E1,9.212366939E-1,-2.049153566E0,-3.671786308E0
1.198311464E1,-6.251249462E-2,-1.737787485E0,-5.125126839E0
1.199282923E1,-1.832004786E0,-1.979761600E0,-5.826523304E0
1.200254298E1,-3.397509098E0,-3.660420418E0,-5.977271080E0
1.201225605E1,-5.078167915E0,-7.390532017E0,-7.265506744E0
1.202196985E1,-6.193821430E0,-1.190100288E1,-5.898307800E0
1.203168449E1,-7.098906517E0,-1.553749466E1,-3.810869217E0
1.204139829E1,-6.943373203E0,-1.934896278E1,-5.340480804E0
1.205111131E1,-3.629911900E0,-2.348585320E1,-1.559223080E1
1.206082511E1,-3.284149170E-1,-2.381636238E1,-1.529761410E1
1.207053980E1,2.831905603E0,-2.517129707E1,-9.666704178E0
1.208025355E1,4.608277321E0,-2.581765938E1,-6.918248653E0
1.208996657E1,4.184448719E0,-2.424019051E1,-6.353243351E0
1.209968048E1,1.591825247E0,-2.276531410E1,-4.423730850E0
1.210939506E1,-1.930110574E0,-2.214048958E1,-4.469194412E0
1.211910886E1,-5.236393452E0,-2.110619164E1,-6.434599400E0
1.212882188E1,-8.111668587E0,-2.011975098E1,-7.129116058E0
1.213853568E1,-1.000289631E1,-1.950688934E1,-5.599205017E0
1.214825037E1,-1.080030441E1,-1.920299911E1,-5.553741455E0
1.215796412E1,-1.023290634E1,-1.889641953E1,-7.595716476E0
1.216767714E1,-8.939884186E0,-1.899691772E1,-8.934201241E0
1.217739105E1,-7.462914944E0,-1.916232109E1,-8.948558807E0
1.218710563E1,-5.686244011E0,-1.983979034E1,-8.129614830E0
1.219681944E1,-4.431806564E0,-2.043590164E1,-8.653942108E0
1.220653246E1,-3.294617653E0,-2.077329063E1,-9.827023506E0
1.221624626E1,-2.140678883E0,-2.105354881E1,-1.002831936E1
1.222596094E1,-1.350748420E0,-2.078764725E1,-9.547062874E0
1.223567470E1,-7.259225845E-1,-2.008864403E1,-8.362017632E0
1.224538772E1,4.037888348E-2,-1.888445473E1,-6.379564285E0
1.225510162E1,1.158425212E0,-1.727558136E1,-3.911367655E0
1.226481620E1,1.304387450E0,-1.544178200E1,-2.412563324E0
1.227453001E1,6.556333899E-1,-1.332532978E1,-2.309672117E0
1.228424303E1,-1.465603895E-2,-1.103420258E1,-2.996711254E0
1.229395683E1,-4.336991012E-1,-8.788538933E0,-3.530609846E0
1.230367152E1,-9.840483218E-2,-7.036095142E0,-3.683750391E0
1.231338532E1,9.571290612E-1,-5.762515068E0,-3.535395384E0
1.232309834E1,2.207079887E0,-3.961916208E0,-3.116352320E0
1.233281214E1,3.267698526E0,-1.697109461E0,-2.460419893E0
1.234252683E1,3.437588930E0,1.079761237E-1,-1.742274046E0
1.235224058E1,2.867797852E0,1.628315806E0,-1.356730461E0
1.236195365E1,1.922034740E0,2.851646423E0,-1.418943882E0
1.237166746E1,5.479564071E-1,3.627219915E0,-1.198804140E0
1.238138214E1,-1.192523003E0,4.125226021E0,-5.333003402E-1
1.239109589E1,-2.758326292E0,4.031906128E0,-3.529413417E-2
1.240080891E1,-3.498306751E0,3.562613726E0,4.052843451E-1
1.241052282E1,-3.728017569E0,2.336890459E0,2.880360186E-1
1.242023740E1,-3.064906597E0,1.273878932E0,-8.682954907E-1
1.242995120E1,-1.977967024E0,1.989033818E-1,-2.455634356E0
1.243966423E1,-6.777670383E-1,-5.575276613E-1,-2.769393206E0
1.244937813E1,3.873381615E-1,-9.430712461E-1,-2.307279348E0
1.245909272E1,1.007677436E0,-1.148854017E0,-1.718345761E0
1.246880652E1,1.160818100E0,-1.189531922E0,-1.418943882E0
1.247851954E1,9.379864931E-1,-1.081854939E0,-1.244267821E0
1.248823344E1,4.905286431E-1,-9.119645357E-1,-1.155733347E0
1.249794803E1,1.504487246E-1,-8.545367718E-1,-1.088734269E0
1.250766183E1,3.323032558E-1,-9.143573642E-1,-8.060821295E-1
1.251737485E1,5.407779217E-1,-1.151246786E0,-1.668993831E-1
1.252708865E1,8.063812256E-1,-1.594218135E0,3.765704632E-1
1.253680334E1,1.225424290E0,-2.116152525E0,5.823532343E-1
1.254651714E1,1.522134304E0,-2.346162558E0,2.808575630E-1
1.255623016E1,1.599003673E0,-2.350948334E0,-5.237290859E-1
1.256594397E1,1.582253933E0,-2.334198475E0,-1.735095501E0
1.257565865E1,1.910070658E0,-1.924726725E0,-2.728715181E0
1.258537246E1,1.098604679E0,-1.668395638E0,-3.367897987E0
1.259508548E1,4.516452923E-2,-1.886441588E0,-3.681357622E0
1.260479928E1,-2.829512656E-1,-2.451446772E0,-4.059722900E0
1.261451397E1,-6.442674994E-1,-3.162414312E0,-4.188935280E0
1.262422777E1,-1.374676585E0,-4.148855209E0,-3.930510283E0
1.263394079E1,-2.004287958E0,-5.365007401E0,-3.940081596E0
1.264365459E1,-2.186142683E0,-7.100701332E0,-3.090031385E0
1.265336928E1,-3.208476067E0,-9.779765129E0,-1.160519004E0
1.266308308E1,-4.999204636E0,-1.326550961E1,-8.730811477E-1
1.267279610E1,-5.332106113E0,-1.543221092E1,-1.177268744E0
1.268250990E1,-5.808577061E0,-1.709133339E1,-4.986343384E0
1.269222459E1,-5.286642551E0,-1.756301880E1,-1.609263039E1
1.270193839E1,-3.797409534E0,-1.728276062E1,-1.852493286E1
1.271165141E1,-2.028216362E0,-2.005753708E1,-1.261615753E1
1.272136532E1,-4.839483798E-1,-2.232234383E1,-5.857629776E0
1.273107990E1,-7.809575200E-1,-2.263610268E1,-3.477967739E0
1.274079371E1,-2.351247311E0,-2.225295067E1,-4.964807987E0
1.275050673E1,-4.187738895E0,-2.202084732E1,-8.103293419E0
1.276022063E1,-5.892325878E0,-2.201366997E1,-9.503992081E0
1.276993522E1,-6.979265213E0,-2.176451683E1,-7.950153351E0
1.277964902E1,-7.352545738E0,-2.256910324E1,-5.405087471E0
1.278936204E1,-7.034300327E0,-2.268635178E1,-5.510670662E0
1.279907594E1,-6.316154480E0,-2.181715775E1,-8.517551422E0
1.280879058E1,-4.869992256E0,-2.117079735E1,-9.465706825E0
1.281850433E1,-3.929014683E0,-2.093630028E1,-8.400302887E0
1.282821740E1,-3.567698479E0,-2.060579300E1,-7.540681362E0
1.283793120E1,-3.558127165E0,-1.995703888E1,-7.289434910E0
1.284764589E1,-3.603590965E0,-1.921017838E1,-8.395517349E0
1.285735970E1,-3.435794115E0,-1.818305969E1,-9.408279419E0
1.286707272E1,-3.091227770E0,-1.736411667E1,-8.735298157E0
1.287678652E1,-2.803789854E0,-1.671536255E1,-6.552146435E0
1.288650120E1,-2.401795626E0,-1.581296825E1,-4.562514782E0
1.289621501E1,-1.808076620E0,-1.475474262E1,-3.384647608E0
1.290592803E1,-1.151844978E0,-1.356969738E1,-2.788535595E0
1.291564194E1,-4.719842672E-1,-1.203500080E1,-2.446063042E0
1.292535652E1,3.275175989E-1,-1.047398281E1,-2.099103689E0
1.293507032E1,1.000499010E0,-9.003892899E0,-1.567597985E0
1.294478334E1,1.232602715E0,-7.462316513E0,-1.423729420E0
1.295449725E1,8.446664214E-1,-5.772086620E0,-1.603490233E0
1.296421188E1,4.184448719E-1,-4.278067589E0,-1.924128532E0
1.297392563E1,8.105687052E-2,-2.863012314E0,-2.472383976E0
1.298363870E1,-1.031904742E-1,-1.630110383E0,-2.719143867E0
1.299335251E1,9.302098304E-2,-3.948157430E-1,-2.755036116E0
1.300306720E1,3.586242795E-1,4.812564552E-1,-2.582453728E0
1.301278095E1,2.892324328E-1,9.744769931E-1,-2.237887383E0
1.302249402E1,-3.499503136E-1,2.104487419E0,-2.156531334E0
1.303220792E1,-1.271785259E0,2.832503796E0,-2.359921217E0
1.304192251E1,-2.210070848E0,3.148356438E0,-2.633002281E0
1.305163631E1,-3.232404232E0,2.856431961E0,-2.240280151E0
1.306134933E1,-3.481257915E0,1.505982757E0,-1.239482164E0
1.307106324E1,-2.574079037E0,6.777670383E-1,2.976073027E-1
1.308077787E1,-1.666600943E0,8.883354068E-2,1.389332652E0
1.309049162E1,-9.939187169E-1,-3.254238665E-1,1.757827282E0
1.310020470E1,-3.834498227E-1,-5.599204898E-1,1.293320656E0
1.310991850E1,1.289133132E-1,-5.599204898E-1,-6.879365444E-2
1.311963319E1,4.450650215E-1,-4.522434771E-1,-1.759023786E0
1.312934699E1,6.723831892E-1,-4.522434771E-1,-2.970390320E0
1.313906001E1,8.087740541E-1,-5.383850932E-1,-3.308077335E0
1.314877391E1,8.374879360E-1,-8.138588071E-1,-2.896212816E0
1.315848850E1,7.872386575E-1,-1.196710467E0,-1.885843396E0
1.316820230E1,8.638089895E-1,-1.424327731E0,-7.725825906E-1
1.317791532E1,1.033998489E0,-1.596610904E0,-3.290131316E-2
1.318762923E1,1.242174029E0,-1.723430514E0,3.717848063E-1
1.319734386E1,1.462313771E0,-1.948654890E0,5.943173170E-1
1.320705761E1,1.345065475E0,-1.881655931E0,5.273182988E-1
1.321677068E1,7.704889178E-1,-1.701895118E0,1.082752272E-1
1.322648449E1,-1.848455518E-1,-1.608574986E0,-4.304089844E-1
1.323619917E1,-1.274178028E0,-1.740180254E0,-1.282552958E0
1.324591298E1,-2.348854542E0,-2.211865425E0,-2.649751902E0
1.325562600E1,-3.246761322E0,-2.963809967E0,-5.649454117E0
1.326533990E1,-3.883551121E0,-4.084249020E0,-1.172572803E1
1.327505454E1,-5.408676624E0,-5.779264927E0,-1.689930916E1
1.328476829E1,-7.860123158E0,-9.535398483E0,-1.137368393E1
1.329448136E1,-9.023633003E0,-1.432612801E1,-5.453242779E0
1.330419516E1,-8.011170387E0,-1.833141518E1,-4.385445595E0
1.331390985E1,-5.442175865E0,-2.132872391E1,-3.681357622E0
1.332362365E1,-2.540579557E0,-2.254278183E1,-1.854736686E0
1.333333667E1,6.077769399E-1,-2.390011024E1,-4.141078472E0
1.334305058E1,3.303590775E0,-2.434308243E1,-1.314287758E1
1.335276522E1,3.652942896E0,-2.211655998E1,-1.630559158E1
1.336247897E1,3.109472990E0,-2.182912254E1,-9.496813774E0
1.337219204E1,8.709874153E-1,-2.409153748E1,-3.427718401E0
1.338190584E1,-1.518245935E0,-2.423779869E1,-4.009473324E0
1.339162053E1,-4.214059830E0,-2.255713844E1,-1.179272747E1
1.340133433E1,-6.476473808E0,-2.009821510E1,-1.337767315E1
1.341104735E1,-7.927122116E0,-1.982064819E1,-7.287042141E0
1.342076126E1,-8.801100731E0,-1.889163399E1,-4.031008720E0
1.343047589E1,-8.820243835E0,-1.781665802E1,-5.984449387E0
1.344018964E1,-8.726922989E0,-1.686850166E1,-9.757631302E0
1.344990272E1,-8.743673325E0,-1.665793419E1,-1.077278709E1
1.345961652E1,-8.161917686E0,-1.719183159E1,-8.771190643E0
1.346933121E1,-6.811468601E0,-1.768505287E1,-6.628716946E0
1.347904501E1,-4.819743156E0,-1.752952003E1,-5.256732464E0
1.348875803E1,-2.880360365E0,-1.757737541E1,-5.465207100E0
1.349847194E1,-1.266999602E0,-1.798176384E1,-6.616752625E0
1.350818657E1,-4.456632137E-1,-1.801526260E1,-7.224828720E0
1.351790032E1,-2.303091735E-1,-1.736650848E1,-6.973283291E0
1.352761339E1,-4.552344978E-1,-1.623410606E1,-6.135496140E0
1.353732720E1,-6.514459848E-1,-1.504666710E1,-5.304588795E0
1.354704188E1,-2.566302419E-1,-1.358883953E1,-4.895416260E0
1.355675568E1,3.035893738E-1,-1.219771290E1,-3.818047523E0
1.356646870E1,8.733802438E-1,-1.121366405E1,-2.987139940E0
1.357618261E1,1.766501307E0,-9.935298920E0,-2.419741869E0
1.358589725E1,4.093521118E0,-6.808477879E0,-1.485942841E0
1.359561100E1,5.216353416E0,-3.279662609E0,-1.055234790E0
1.360532407E1,4.955535889E0,-1.084247708E0,-1.799701691E0
1.361503787E1,3.705585003E0,4.645066857E-1,-2.932105064E0
1.362475256E1,2.319542408E0,1.927418590E0,-3.892225027E0
1.363446636E1,9.954141974E-1,3.153141975E0,-4.359124660E0
1.364417938E1,-4.648058116E-1,4.718945503E0,-3.267399311E0
1.365389329E1,-1.795813441E0,5.020740032E0,-1.485942841E0
1.366360787E1,-2.940479994E0,4.907978535E0,6.852445602E-1
1.367332167E1,-4.218845367E0,4.733302116E0,1.030110121E0
1.368303475E1,-5.535496235E0,2.576172590E0,-1.645065546E-1
1.369274855E1,-5.047060966E0,1.024726272E0,-9.281160831E-1
1.370246324E1,-4.175774574E0,2.706880569E-1,-1.430907965E0
1.371217704E1,-2.794218540E0,-4.378865361E-1,-1.993520379E0
1.372189006E1,-1.214058399E0,-7.995018363E-1,-2.407777786E0
1.373160397E1,2.270190418E-1,-9.239286184E-1,-2.893819809E0
1.374131855E1,1.385743380E0,-1.002891779E0,-3.001496792E0
1.375103235E1,2.266900301E0,-1.194317579E0,-2.750250578E0
1.376074537E1,2.800798893E0,-1.302293777E0,-1.835594058E0
1.377045928E1,2.937189817E0,-1.460219979E0,-7.151548862E-1
1.378017391E1,2.580360174E0,-1.634896040E0,3.765704632E-1
1.378988772E1,1.747358680E0,-1.393221021E0,1.233500123E0
1.379960074E1,7.441678643E-1,-1.156032443E0,1.104287624E0
1.380931464E1,-2.255235314E-1,-9.167501926E-1,-8.315058798E-2
1.381902923E1,-7.426723242E-1,-6.990033388E-1,-1.483550072E0
1.382874303E1,-8.838488460E-1,-4.546363056E-1,-1.988734722E0
1.383845605E1,-4.241278172E-1,-7.133602500E-1,-1.668096542E0
1.384816996E1,8.757730722E-1,-1.771586061E0,-1.146162033E0
1.385788459E1,1.869392633E0,-2.250150681E0,6.469594240E-1
1.386759834E1,2.032104731E0,-2.456232548E0,3.421736479E0
1.387731141E1,1.467099428E0,-2.382055044E0,5.739185333E0
1.388702522E1,2.557329237E-1,-2.288435698E0,5.662614822E0
1.389673990E1,-2.080858469E0,-2.432304144E0,1.822433591E0
1.390645370E1,-5.944967747E0,-2.571087837E0,-1.046859932E1
1.391616673E1,-4.846064091E0,-6.356234074E0,-2.567857552E1
1.392588063E1,-3.912265062E0,-1.211396408E1,-2.077777672E1
1.393559527E1,-6.313761711E0,-1.730429459E1,-6.846463680E0
1.394530902E1,-7.534699440E0,-2.318196487E1,-4.648656368E0
1.395502209E1,-5.825326920E0,-2.452972221E1,-7.282256603E0
1.396473589E1,-2.464009047E0,-2.475704002E1,-6.453741550E0
1.397445058E1,9.308080077E-1,-2.678017235E1,-9.139984131E0
1.398416438E1,3.396910906E0,-2.581765938E1,-1.302562904E1
1.399387740E1,3.109472990E0,-2.298066902E1,-1.000439167E1
1.400359131E1,9.044869542E-1,-2.280599213E1,-5.678168297E0
1.401330594E1,-4.043870449E0,-2.271027946E1,-5.747560024E0
1.402301970E1,-9.663115501E0,-2.071586227E1,-8.656334877E0
1.403273277E1,-1.203559875E1,-1.879113579E1,-1.029153061E1
1.404244657E1,-1.175533962E1,-1.885334778E1,-9.362815857E0
1.405216126E1,-1.039801121E1,-1.920299911E1,-7.902296543E0
1.406187506E1,-8.494520187E0,-1.951885223E1,-8.271090508E0
1.407158808E1,-5.921039581E0,-1.971027756E1,-9.700203896E0
1.408130199E1,-3.766302824E0,-1.962174416E1,-9.846165657E0
1.409101657E1,-2.641077995E0,-1.952124596E1,-8.534300804E0
1.410073037E1,-2.392224550E0,-1.911177444E1,-7.538288593E0
1.411044339E1,-2.609971285E0,-1.861645889E1,-7.310970306E0
1.412015730E1,-2.703291416E0,-1.804188347E1,-7.476075172E0
1.412987194E1,-2.449652195E0,-1.749362755E1,-6.920641422E0
1.413958568E1,-2.140678883E0,-1.710569000E1,-5.611168861E0
1.414929876E1,-1.846361756E0,-1.671296883E1,-4.239184380E0
1.415901256E1,-1.611566067E0,-1.601157188E1,-3.133102179E0
1.416872725E1,-1.333998680E0,-1.488156223E1,-2.577668190E0
1.417844105E1,-8.383852243E-1,-1.329900932E1,-2.659323215E0
1.418815407E1,-2.662015148E-2,-1.133360481E1,-2.848356247E0
1.419786798E1,9.236295223E-1,-9.265008926E0,-3.159423113E0
1.420758261E1,1.567897081E0,-7.127022266E0,-3.710071564E0
1.421729636E1,1.816750646E0,-4.974678040E0,-4.243969917E0
1.422700944E1,1.965105653E0,-3.095415115E0,-4.323232174E0
1.423672324E1,1.981855392E0,-1.644467354E0,-3.964009762E0
1.424643792E1,1.682752490E0,-8.401798606E-1,-2.989532709E0
1.425615167E1,1.883749604E0,6.323033571E-1,-1.641775489E0
1.426586475E1,1.993819475E0,2.166700840E0,-1.692921966E-1
1.427557865E1,1.431207061E0,2.813361168E0,1.437189102E0
1.428529324E1,3.490529954E-1,3.043072224E0,2.605484724E0
1.429500704E1,-8.958129883E-1,3.212962627E0,2.832803011E0
1.430472006E1,-2.152642965E0,3.399901867E0,1.288534999E0
1.431443397E1,-2.973979473E0,2.379961252E0,-2.209173441E0
1.432414860E1,-2.569293261E0,1.187737346E0,-4.861617565E0
1.433386235E1,-1.403390527E0,8.620143533E-1,-4.876273632E0
1.434357542E1,-2.853440940E-1,7.926224917E-2,-4.050151348E0
1.435328923E1,7.920243144E-1,-6.607181430E-1,-3.255435228E0
1.436300391E1,1.618146300E0,-9.933205247E-1,-2.328814745E0
1.437271766E1,1.740180254E0,-9.263214469E-1,-1.263410330E0
1.438243074E1,1.167996526E0,-7.947162390E-1,-2.123630047E-1
1.439214464E1,4.570291340E-1,-6.774678826E-1,7.597211599E-1
1.440185923E1,-6.011966988E-2,-7.348956466E-1,1.863111496E0
1.441157303E1,-3.212364316E-1,-8.138588071E-1,2.772982359E0
1.442128605E1,-6.514459848E-1,-7.731808424E-1,2.705983400E0
1.443099996E1,-8.694919348E-1,-6.317051649E-1,1.336690545E0
1.444071459E1,-9.245268703E-1,-5.934200287E-1,-8.300103545E-1
1.445042834E1,-8.168498278E-1,-5.623133183E-1,-3.161816120E0
1.446014141E1,-6.972087026E-1,-8.258228898E-1,-4.512265205E0
1.446985522E1,-6.394818425E-1,-1.326221943E0,-4.148257256E0
1.447956990E1,-5.533402562E-1,-1.946262121E0,-2.075175524E0
1.448928365E1,-7.929216027E-1,-2.278864384E0,5.560321808E-1
1.449899673E1,-1.283749342E0,-2.549552441E0,2.282154560E0
1.450871053E1,-1.625923038E0,-2.901596546E0,2.696412086E0
1.451842522E1,-1.563709617E0,-3.308376312E0,2.811267614E0
1.452813902E1,-1.743171334E0,-3.679563046E0,-2.811566554E-2
1.453785204E1,-2.909074068E0,-2.882154942E0,-8.653942108E0
1.454756594E1,-2.162214279E0,-5.858228207E0,-1.932443619E1
1.455728053E1,-3.909872293E0,-1.099831009E1,-1.899901199E1
1.456699433E1,-5.559424400E0,-1.602353668E1,-1.135932732E1
1.457670735E1,-5.478068352E0,-2.281556320E1,-7.533503056E0
1.458642126E1,-4.034298897E0,-2.491526604E1,-5.062913418E0
1.459613589E1,-4.881956577E0,-2.544198608E1,-1.447657704E0
1.460584964E1,-3.531806231E0,-2.629891586E1,-1.948056698E0
1.461556272E1,5.473581702E-2,-2.580090904E1,-7.382755280E0
1.462527652E1,2.762513638E0,-2.330160522E1,-1.242233849E1
1.463499120E1,2.089532375E0,-2.155634117E1,-1.156032467E1
1.464470501E1,-3.619144112E-2,-2.081636047E1,-8.692227364E0
1.465441803E1,-2.339283228E0,-2.015324974E1,-8.907880783E0
1.466413183E1,-4.494019985E0,-1.927956963E1,-1.022453117E1
1.467384652E1,-6.399903297E0,-1.835773468E1,-1.006421185E1
1.468356032E1,-7.759624958E0,-1.836730576E1,-7.696514130E0
1.469327334E1,-8.513663292E0,-1.879831314E1,-7.004390240E0
1.470298725E1,-8.523234367E0,-1.877917099E1,-8.033902168E0
1.471270188E1,-7.541877747E0,-1.878395653E1,-9.436993599E0
1.472241563E1,-6.028716564E0,-1.921735764E1,-9.853344917E0
1.473212865E1,-4.424628258E0,-1.966481400E1,-9.123234749E0
1.474184256E1,-3.364009619E0,-2.013410759E1,-8.232805252E0
1.475155720E1,-1.870290041E0,-2.028276062E1,-7.727620602E0
1.476127095E1,5.234299600E-2,-1.984218216E1,-6.942176819E0
1.477098402E1,1.945963025E0,-1.897777557E1,-6.054140568E0
1.478069782E1,3.246163130E0,-1.762762451E1,-5.266303539E0
1.479041251E1,3.712763548E0,-1.590868092E1,-4.356731892E0
1.480012626E1,3.169293642E0,-1.405543995E1,-3.377469063E0
1.480983933E1,2.041675806E0,-1.201825047E1,-2.608774900E0
1.481955313E1,5.431707501E-1,-1.008365345E1,-2.414956331E0
1.482926782E1,-1.523031592E0,-8.192426682E0,-3.195614576E0
1.483898162E1,-3.141477108E0,-6.195616245E0,-4.368695736E0
1.484869464E1,-3.756731510E0,-4.153641224E0,-4.835296154E0
1.485840855E1,-3.488436222E0,-2.539981127E0,-4.325624943E0
1.486812313E1,-2.617149830E0,-1.240080357E0,-3.432504177E0
1.487783694E1,-1.307677627E0,2.662015148E-2,-2.603989124E0
1.488754996E1,-6.251249462E-2,1.307378531E0,-1.943271041E0
1.489726386E1,1.002891779E0,2.111665964E0,-1.198804140E0
1.490697845E1,1.476670623E0,2.480459690E0,5.084748194E-2
1.491669225E1,1.010070205E0,2.954537868E0,1.549651742E0
1.492640527E1,-5.533402413E-2,3.344866991E0,2.397010088E0
1.493611917E1,-1.432104349E0,3.488436222E0,1.863111496E0
1.494583381E1,-2.598007202E0,2.949752092E0,3.909274042E-1
1.495554756E1,-2.705684185E0,2.128415823E0,-1.119840980E0
1.496526058E1,-2.277069807E0,1.237986565E0,-2.134995937E0
1.497497449E1,-1.609173179E0,1.510469317E-1,-2.450848579E0
1.498468912E1,-1.123131156E0,-7.540382147E-1,-2.407777786E0
1.499440287E1,-6.562315822E-1,-1.292722464E0,-2.077568293E0
1.500411594E1,4.277170449E-2,-1.689931035E0,-1.598704576E0
1.501382975E1,8.350951076E-1,-1.941476464E0,-1.268195987E0
1.502354444E1,1.642074585E0,-2.108973980E0,-9.834501147E-1
1.503325819E1,2.443969250E0,-2.298007011E0,-5.691927075E-1
1.504297126E1,2.855833769E0,-2.432304144E0,-1.854437590E-2
1.505268506E1,3.066402197E0,-2.657229662E0,4.890331328E-1
1.506239975E1,2.953939438E0,-2.791227579E0,4.818546474E-1
