"Time (s)","Gyroscope x (rad/s)","Gyroscope y (rad/s)","Gyroscope z (rad/s)"
5.946084100E-2,-1.362494826E0,-3.924693540E-2,-1.763821393E-1
6.917459100E-2,-1.220778227E0,8.170082420E-2,-3.193204105E-1
7.888766400E-2,-1.094943762E0,8.047912270E-2,-4.158342779E-1
8.860146600E-2,-9.959864616E-1,-5.635065958E-2,-4.622586668E-1
9.831615300E-2,-9.275715351E-1,-3.483356535E-1,-4.512633979E-1
1.080299550E-1,-9.006943107E-1,-7.441646457E-1,-4.036173224E-1
1.177429760E-1,-8.787037730E-1,-1.105786204E0,-3.461976945E-1
1.274568830E-1,-8.591566682E-1,-1.331799746E0,-2.631224692E-1
1.371715180E-1,-9.006943107E-1,-1.429535270E0,-1.299577504E-1
1.468852680E-1,-1.121821046E0,-1.419761777E0,3.374931216E-2
1.565983410E-1,-1.598281860E0,-1.246281147E0,1.681357026E-1
1.663122470E-1,-2.161483049E0,-7.026270628E-1,2.646495700E-1
1.760268300E-1,-2.343515396E0,1.404948682E-1,3.038965166E-1
1.857406330E-1,-2.093068123E0,9.345963001E-1,3.038965166E-1
1.954536530E-1,-1.545748949E0,1.925390601E0,3.820849657E-1
2.051675600E-1,-6.135960817E-1,2.328549862E0,6.129852533E-1
2.148821950E-1,3.503209054E-1,1.534448266E0,8.573241234E-1
2.245959970E-1,4.724903405E-1,7.073611021E-1,8.377770185E-1
2.343090180E-1,-3.167243004E-1,5.815265775E-1,5.958815217E-1
2.440229240E-1,-1.113269091E0,3.530697227E-1,3.038965166E-1
2.537375080E-1,-1.243990421E0,-2.212794125E-1,-1.511846948E-2
2.634513100E-1,-9.006943107E-1,-4.973823726E-1,-3.107685447E-1
2.731643300E-1,-6.245913506E-1,-4.839437306E-1,-5.416688323E-1
2.828782370E-1,-4.682144225E-1,-4.143071473E-1,-6.027535200E-1
2.925928720E-1,-2.116585821E-1,-3.788780272E-1,-5.599942207E-1
3.023066220E-1,2.367033064E-1,-3.617742956E-1,-4.671454430E-1
3.120196950E-1,7.632536292E-1,-3.104631305E-1,-3.327590525E-1
3.217336010E-1,1.272853017E0,-2.053973973E-1,-1.837123185E-1
3.314481850E-1,1.745648742E0,-1.357607991E-1,-6.032116711E-2
3.411619870E-1,2.143921137E0,-4.413371533E-2,-4.123218823E-3
3.508750080E-1,2.485995531E0,1.073564067E-1,-1.023169141E-2
3.605889140E-1,2.771872044E0,2.773246467E-1,-5.299099907E-2
3.703035490E-1,2.839065313E0,4.275930822E-1,-9.452861547E-2
3.800172990E-1,2.628933907E0,4.373666346E-1,-1.238492802E-1
3.897303720E-1,2.323510170E0,2.932066917E-1,-1.910424829E-1
3.994441740E-1,2.068176031E0,5.848862603E-2,-3.254288733E-1
4.091588620E-1,1.905690789E0,-2.530434728E-1,-4.647020400E-1
4.188726640E-1,1.836054206E0,-5.706840754E-1,-5.465555787E-1
4.285856850E-1,1.790851474E0,-8.162446618E-1,-5.538857579E-1
4.382995910E-1,1.691894174E0,-1.004385591E0,-4.610369802E-1
4.480141740E-1,1.468324065E0,-1.170536041E0,-3.315373361E-1
4.577279760E-1,1.072342396E0,-1.286597013E0,-2.105895877E-1
4.674418830E-1,6.032116413E-1,-1.248724461E0,-9.330692142E-2
4.771548510E-1,2.403683960E-1,-1.016602516E0,3.374931216E-2
4.868695390E-1,4.611896724E-2,-7.099572420E-1,1.644706279E-1
4.965832890E-1,9.468132630E-3,-3.959817290E-1,2.365505993E-1
5.062963620E-1,5.589252338E-2,-9.422318637E-2,1.925695986E-1
5.160101640E-1,1.084253863E-1,2.089097649E-1,5.451811850E-2
5.257248510E-1,1.438545287E-1,4.960079789E-1,-1.311794519E-1
5.354386530E-1,1.707318127E-1,6.853706241E-1,-2.423536479E-1
5.451516740E-1,1.646233350E-1,8.246437907E-1,-2.496838123E-1
5.548655800E-1,1.096470803E-1,9.541434050E-1,-2.044811249E-1
5.645801640E-1,1.801999472E-2,1.015228152E0,-1.030804738E-1
5.742939660E-1,-9.559759498E-2,1.017671585E0,4.107947648E-2
5.840069870E-1,-2.373141646E-1,9.822424054E-1,1.852394342E-1
5.937208930E-1,-3.997995257E-1,9.284878373E-1,2.990097404E-1
6.034355280E-1,-5.586197972E-1,8.295305967E-1,3.686463237E-1
6.131492780E-1,-6.710157394E-1,6.890357137E-1,3.662029207E-1
6.228623510E-1,-7.186617851E-1,5.680879354E-1,2.709107697E-1
6.325761530E-1,-7.430956960E-1,4.618005157E-1,1.192679256E-1
6.422908410E-1,-7.968502641E-1,3.042019308E-1,-2.244863659E-2
6.520045910E-1,-9.263498783E-1,1.305686086E-1,-1.177408099E-1
6.617176640E-1,-1.120599270E0,-2.825168520E-2,-1.324011385E-1
6.714314660E-1,-1.323400617E0,-1.956238300E-1,-7.131642103E-2
6.811461530E-1,-1.500546336E0,-3.287885487E-1,-1.878355257E-2
6.908599550E-1,-1.648371339E0,-3.862081766E-1,1.985253533E-3
7.005729760E-1,-1.744885206E0,-4.130854607E-1,6.872031838E-3
7.102868830E-1,-1.770540833E0,-3.984251320E-1,-4.581354442E-4
7.200014660E-1,-1.715564489E0,-3.385621011E-1,-1.511846948E-2
7.297152680E-1,-1.689908981E0,-3.043546379E-1,-2.489202656E-2
7.394282890E-1,-1.750993609E0,-1.382041872E-1,-4.932591692E-2
7.491421950E-1,-1.880493283E0,1.563768983E-1,-7.742489129E-2
7.588567780E-1,-1.978228807E0,3.946073353E-1,-1.421747059E-1
7.685705800E-1,-1.832847238E0,7.061394453E-1,-1.776038408E-1
7.782836010E-1,-1.473669052E0,1.290109396E0,-6.887302548E-2
7.879975080E-1,-1.200009465E0,8.649597168E-1,1.375933439E-1
7.977121430E-1,-1.583621502E0,-3.373403847E-1,3.197785318E-1
8.074258930E-1,-2.310529709E0,-5.095993280E-1,3.906368315E-1
8.171389140E-1,-2.369171143E0,-2.786990702E-1,5.726693273E-1
8.268528200E-1,-1.945243120E0,9.636115283E-2,7.375980616E-1
8.365674550E-1,-1.529866934E0,2.724378705E-1,6.252021790E-1
8.462812050E-1,-1.380820274E0,-1.455343664E-1,3.026748300E-1
8.559942780E-1,-1.515206575E0,-8.333483934E-1,-4.566083103E-2
8.657080800E-1,-1.507876515E0,-1.366007209E0,-3.242071867E-1
8.754227680E-1,-1.185349107E0,-1.700751424E0,-4.598152637E-1
8.851365180E-1,-7.589777112E-1,-1.782605052E0,-3.694098890E-1
8.948495910E-1,-2.483094037E-1,-1.556591511E0,-1.580567211E-1
9.045633930E-1,3.967452943E-1,-1.075243831E0,6.429167092E-2
9.142780800E-1,1.122431874E0,-4.106420577E-1,2.609844804E-1
9.239918300E-1,1.796959877E0,2.418955117E-1,4.627167881E-1
9.337049030E-1,2.314958334E0,8.087617755E-1,6.618530154E-1
9.434187050E-1,2.672914982E0,1.287665963E0,7.901309133E-1
9.531333930E-1,2.894041538E0,1.616301894E0,8.328902125E-1
9.628471430E-1,3.001550674E0,1.723810911E0,7.974610925E-1
9.725602160E-1,2.997885704E0,1.657839417E0,6.728482842E-1
9.822740180E-1,2.924583912E0,1.412278891E0,4.773771465E-1
9.919887050E-1,2.834178686E0,1.062874198E0,2.304421216E-1
1.001702455E0,2.751103401E0,6.621584296E-1,-3.710897267E-2
1.011415528E0,2.638707399E0,1.783674061E-1,-2.802261710E-1
1.021129330E0,2.471335411E0,-3.507790267E-1,-4.280512035E-1
1.030844018E0,2.279529333E0,-7.637118101E-1,-4.341596961E-1
1.040557768E0,2.084058046E0,-9.518527389E-1,-3.620797098E-1
1.050270841E0,1.860488057E0,-9.518527389E-1,-3.046600819E-1
1.059984643E0,1.575833201E0,-8.761076927E-1,-2.447970361E-1
1.069699330E0,1.178629756E0,-7.478297353E-1,-1.824906170E-1
1.079413080E0,6.875085831E-1,-5.499152541E-1,-1.751604527E-1
1.089126153E0,2.562504113E-1,-2.994678617E-1,-2.313583940E-1
1.098839955E0,2.535016090E-2,-2.580829710E-2,-2.179197669E-1
1.108554643E0,-5.192201585E-3,2.724378705E-1,-1.201841980E-1
1.118268393E0,4.245388508E-2,4.972296655E-1,-6.566607859E-3
1.127981466E0,9.009996802E-2,5.302154422E-1,1.473668963E-1
1.137695268E0,1.304158866E-1,3.701734245E-1,3.210002482E-1
1.147409955E0,1.609582454E-1,2.150182426E-1,4.504998624E-1
1.157123705E0,1.365243644E-1,2.125748396E-1,4.859289825E-1
1.166836726E0,-7.635590620E-3,3.384093940E-1,4.419479966E-1
1.176550633E0,-3.118375242E-1,4.422534108E-1,3.552076817E-1
1.186265216E0,-7.125533223E-1,4.202629030E-1,2.646495700E-1
1.195979018E0,-1.102273822E0,2.895416021E-1,1.791309565E-1
1.205692039E0,-1.419914484E0,1.000262350E-1,9.239064902E-2
1.215405945E0,-1.617828965E0,-8.078455180E-2,1.053711493E-2
1.225120528E0,-1.680135369E0,-2.090624720E-1,-7.498150319E-2
1.234834330E0,-1.620272398E0,-2.884726226E-1,-1.605001241E-1
1.244547351E0,-1.424801230E0,-2.444916219E-1,-2.325800955E-1
1.254261258E0,-1.152363300E0,-5.757235363E-2,-2.545706034E-1
1.263975841E0,-9.031376839E-1,2.125748396E-1,-2.411319613E-1
1.273689643E0,-7.308787704E-1,4.703523815E-1,-2.374668717E-1
1.283402664E0,-6.673506498E-1,6.340594292E-1,-2.496838123E-1
1.293116466E0,-6.868977547E-1,6.462764144E-1,-2.557922900E-1
1.302831153E0,-7.785248160E-1,5.289937258E-1,-2.289150059E-1
1.312544903E0,-9.202414155E-1,3.640649617E-1,-1.727170646E-1
1.322257976E0,-1.028972149E0,2.211267054E-1,-1.091889441E-1
1.331971778E0,-9.874345660E-1,1.429382563E-1,-6.520794332E-2
1.341686466E0,-7.418739796E-1,1.722589284E-1,-5.054761097E-2
1.351400216E0,-4.902049303E-1,3.946073353E-1,-8.353336155E-2
1.361113237E0,-4.999784827E-1,6.853706241E-1,-1.128540337E-1
1.370827143E0,-7.870767117E-1,7.293516397E-1,-9.697200358E-2
1.380541726E0,-1.207339644E0,9.541434050E-1,2.275406010E-2
1.390255528E0,-1.426022887E0,2.113531590E0,4.419479966E-1
1.399968549E0,-5.195255876E-1,2.731709003E0,1.167634487E0
1.409682455E0,8.842014074E-1,2.070772171E0,1.628213406E0
1.419397039E0,1.283848286E0,8.197570443E-1,1.556133389E0
1.429110841E0,1.866138428E-1,-3.471139669E-1,8.964183331E-1
1.438823862E0,-1.028972149E0,-7.441646457E-1,7.162184268E-2
1.448537664E0,-1.195122719E0,-7.576032877E-1,-6.540647149E-1
1.458252351E0,-6.343649030E-1,-6.452074051E-1,-1.198940516E0
1.467966101E0,-3.054236295E-4,-3.141281903E-1,-1.466491580E0
1.477679174E0,4.395045936E-1,1.256818175E-1,-1.427397370E0
1.487392976E0,7.803573608E-1,5.021164417E-1,-1.131747246E0
1.497107664E0,1.126096964E0,7.855495811E-1,-6.565080881E-1
1.506821414E0,1.304617047E0,8.625163436E-1,-1.067455560E-1
1.516534435E0,1.228871942E0,7.171346545E-1,2.892361879E-1
1.526248341E0,1.097997904E0,4.715740979E-1,4.737120569E-1
1.535962924E0,1.152974248E0,2.247917950E-1,4.847072959E-1
1.545676726E0,1.375475287E0,3.649812192E-2,3.625378609E-1
1.555389747E0,1.579498291E0,-7.589777559E-2,1.595838517E-1
1.565103549E0,1.665016890E0,-1.907370538E-1,-3.588727489E-2
1.574818237E0,1.667460322E0,-3.849864900E-1,-1.690519750E-1
1.584531987E0,1.630809426E0,-6.513158679E-1,-2.667875290E-1
1.594245060E0,1.579498291E0,-9.689564705E-1,-3.352024257E-1
1.603958862E0,1.490314603E0,-1.307365894E0,-3.498627543E-1
1.613673549E0,1.341267824E0,-1.595685720E0,-3.278722763E-1
1.623387299E0,1.166412830E0,-1.793600321E0,-3.180987239E-1
1.633100320E0,1.052795291E0,-1.875453830E0,-3.571929336E-1
1.642814122E0,1.018587828E0,-1.804595470E0,-4.329380095E-1
1.652528810E0,1.012479305E0,-1.598129153E0,-4.989095032E-1
1.662242560E0,9.965972900E-1,-1.270714998E0,-5.135698318E-1
1.671955633E0,9.489512444E-1,-8.687775135E-1,-4.427115619E-1
1.681669435E0,8.866447806E-1,-4.815003574E-1,-3.034383655E-1
1.691384122E0,8.072346449E-1,-1.760767251E-1,-1.299577504E-1
1.701097872E0,6.630746722E-1,2.428117767E-2,3.619270027E-2
1.710810893E0,4.578300118E-1,7.314895838E-2,1.876828223E-1
1.720524799E0,2.342599183E-1,3.283303976E-2,3.173351586E-1
1.730239383E0,3.634541109E-2,9.620844387E-3,4.187358022E-1
1.739953185E0,-1.017060652E-1,5.482354015E-2,5.103628635E-1
1.749666205E0,-1.688992679E-1,1.783674061E-1,5.861079693E-1
1.759380008E0,-2.128802687E-1,3.115321100E-1,5.799994469E-1
1.769094695E0,-2.702999115E-1,3.665083647E-1,4.724903405E-1
1.778808445E0,-3.533751369E-1,3.103103936E-1,3.038965166E-1
1.788521466E0,-4.694361091E-1,2.052446753E-1,1.009425074E-1
1.798235372E0,-5.989357233E-1,1.085781008E-1,-9.452861547E-2
1.807949955E0,-7.015580535E-1,4.627167806E-2,-2.484621257E-1
1.817663758E0,-7.406523228E-1,3.038965166E-2,-3.400892019E-1
1.827376778E0,-7.284353375E-1,4.749337584E-2,-3.486410677E-1
1.837090580E0,-7.137750387E-1,6.704048812E-2,-2.790044844E-1
1.846805268E0,-7.516475320E-1,4.382828996E-2,-1.678302884E-1
1.856519018E0,-8.787037730E-1,-4.657710344E-2,-3.710897267E-2
1.866232039E0,-1.090056896E0,-1.882936656E-1,9.727742523E-2
1.875945945E0,-1.356386304E0,-3.568875194E-1,2.121167034E-1
1.885660528E0,-1.600725293E0,-5.462501645E-1,2.709107697E-1
1.895374330E0,-1.777870893E0,-7.576032877E-1,2.536543310E-1
1.905087351E0,-1.857281089E0,-8.724426031E-1,1.571404636E-1
1.914801153E0,-1.768097401E0,-7.979192138E-1,3.741439432E-2
1.924515841E0,-1.546970725E0,-6.671979427E-1,-3.955236077E-2
1.934229591E0,-1.397923946E0,-4.839437306E-1,-9.452861547E-2
1.943942612E0,-1.440683246E0,-2.090624720E-1,-1.617218107E-1
1.953656518E0,-1.674026966E0,-2.151709497E-1,-2.215848416E-1
1.963371101E0,-2.078407764E0,-6.989619732E-1,-2.899997234E-1
1.973084903E0,-2.519439459E0,-8.089144826E-1,-2.655658424E-1
1.982797924E0,-2.689254999E0,1.061347127E-1,-6.520794332E-2
1.992511726E0,-2.493783951E0,5.644228458E-1,3.173351586E-1
2.002226414E0,-2.315416574E0,2.932066917E-1,6.594096422E-1
2.011940164E0,-2.233562946E0,4.031592011E-1,8.035695553E-1
2.021653185E0,-2.049087048E0,5.766398311E-1,8.328902125E-1
2.031366987E0,-1.827960372E0,4.911212027E-1,7.412631512E-1
2.041081674E0,-1.404032469E0,4.654656053E-1,5.347967744E-1
2.050795424E0,-1.004538298E0,3.665083647E-1,2.782409191E-1
2.060508497E0,-7.834116220E-1,1.490467340E-1,9.239064902E-2
2.070222299E0,-5.806103349E-1,-7.345438004E-2,2.275406010E-2
2.079936935E0,-2.519744933E-1,-2.347180545E-1,1.033858955E-1
2.089650737E0,1.353026628E-1,-2.762556672E-1,2.843494117E-1
2.099363758E0,5.360184908E-1,-1.589729935E-1,3.808632791E-1
2.109077560E0,8.878664970E-1,8.399149403E-3,3.576510847E-1
2.118792247E0,1.179851532E0,1.930277348E-1,2.953446507E-1
2.128505997E0,1.437781692E0,4.459185004E-1,2.316638231E-1
2.138219070E0,1.647913218E0,6.780404449E-1,1.571404636E-1
2.147932872E0,1.806733489E0,8.393041492E-1,5.818320066E-2
2.157647508E0,1.916685939E0,8.735115528E-1,-6.276455522E-2
2.167361310E0,1.953336835E0,8.002098799E-1,-1.837123185E-1
2.177074330E0,1.970440507E0,6.157340407E-1,-2.423536479E-1
2.186788133E0,2.009534836E0,3.848337829E-1,-1.776038408E-1
2.196502820E0,2.052294016E0,2.113531530E-1,2.275406010E-2
2.206216570E0,2.053515673E0,9.636115283E-2,2.892361879E-1
2.215929591E0,2.005869627E0,2.428117767E-2,5.250232220E-1
2.225643497E0,1.924016118E0,-4.902049154E-2,6.740699410E-1
2.235358080E0,1.787186384E0,-1.479777545E-1,6.997255087E-1
2.245071830E0,1.623479247E0,-2.835858464E-1,5.909947157E-1
2.254784903E0,1.482984424E0,-3.996468186E-1,3.515425920E-1
2.264498705E0,1.388913989E0,-4.546230733E-1,5.207473040E-2
2.274213393E0,1.325385809E0,-4.411844313E-1,-2.118112892E-1
2.283927143E0,1.248419046E0,-3.471139669E-1,-3.950654566E-1
2.293640164E0,1.107771516E0,-2.017323077E-1,-4.928010404E-1
2.303353966E0,8.964183331E-1,-1.027750522E-1,-5.563291311E-1
2.313068653E0,6.911736727E-1,-1.125486046E-1,-6.394043565E-1
2.322782403E0,5.983248949E-1,-2.176143378E-1,-6.528429985E-1
2.332495424E0,6.313106418E-1,-2.506000996E-1,-5.648810267E-1
2.342209330E0,7.094991207E-1,-1.186570823E-1,-4.818057716E-1
2.351923914E0,7.168292403E-1,-1.603474095E-2,-3.742966652E-1
2.361637716E0,5.592306852E-1,-5.390727147E-2,-2.203631550E-1
2.371350737E0,2.623589039E-1,-2.029540092E-1,-4.581354442E-4
2.381064539E0,-4.306473210E-2,-3.153499067E-1,2.426590770E-1
2.390779226E0,-2.568612695E-1,-3.006895781E-1,4.346178174E-1
2.400492976E0,-3.509317636E-1,-1.589729935E-1,5.250232220E-1
2.410205997E0,-3.436015844E-1,8.414421231E-2,5.091412067E-1
2.419919903E0,-2.715215981E-1,3.860554695E-1,4.028537571E-1
2.429634487E0,-1.725643575E-1,6.902574301E-1,2.536543310E-1
2.439348237E0,-9.681928903E-2,9.223793745E-1,9.727742523E-2
2.449061310E0,-9.437590092E-2,9.797990322E-1,-3.955236077E-2
2.458775112E0,-1.945548505E-1,8.319739699E-1,-1.165191159E-1
2.468489747E0,-4.034646153E-1,4.935645759E-1,-1.458397806E-1
2.478203549E0,-6.881194115E-1,8.170082420E-2,-1.385096163E-1
2.487916570E0,-9.642223716E-1,-3.263451457E-1,-7.009471953E-2
2.497630372E0,-1.202452779E0,-6.500942111E-1,3.130592033E-2
2.507345060E0,-1.395480514E0,-7.844805717E-1,1.192679256E-1
2.517058810E0,-1.534753680E0,-7.075138092E-1,1.559187621E-1
2.526771830E0,-1.610498786E0,-4.521796703E-1,1.241547018E-1
2.536485737E0,-1.584843159E0,-8.811471611E-2,4.352286831E-2
2.546200320E0,-1.456565261E0,3.029802442E-1,-7.375980914E-2
2.555914122E0,-1.375933409E0,5.974085927E-1,-1.861557066E-1
2.565627143E0,-1.498102903E0,7.660024762E-1,-2.154763639E-1
2.575340945E0,-1.803526521E0,6.120689511E-1,-8.842013776E-2
2.585055633E0,-2.057638884E0,2.919849753E-1,1.082726792E-1
2.594769383E0,-2.203020573E0,4.947862923E-1,3.124483824E-1
2.604482403E0,-2.044200420E0,1.387844920E0,5.873296261E-1
2.614196205E0,-1.413805962E0,2.032899618E0,9.037485123E-1
2.623910893E0,-6.942279339E-1,2.046338320E0,1.121210098E0
2.633624643E0,-1.432436854E-1,1.551552057E0,1.061347127E0
2.643337716E0,7.910472155E-2,8.112051487E-1,6.398624778E-1
2.653051518E0,-3.155026138E-1,3.616215885E-1,-6.566607859E-3
2.662766153E0,-9.214630723E-1,1.649287641E-1,-5.734328628E-1
2.672479955E0,-1.070509791E0,-2.383831441E-1,-9.961391687E-1
2.682192976E0,-7.882983685E-1,-5.792359114E-1,-1.234369636E0
2.691906778E0,-5.317425132E-1,-5.865660906E-1,-1.227039456E0
2.701621466E0,-4.315635860E-1,-3.703261614E-1,-1.038898468E0
2.711335216E0,-2.702999115E-1,-2.909159958E-1,-7.383615971E-1
2.721048237E0,2.779355086E-2,-3.312319219E-1,-3.901786804E-1
2.730762143E0,3.564293683E-1,-3.972034156E-1,-8.597674966E-2
2.740476726E0,5.861079693E-1,-4.350759685E-1,1.107160673E-1
2.750190528E0,7.498149872E-1,-4.143071473E-1,1.876828223E-1
2.759903549E0,9.452861547E-1,-4.094203711E-1,1.620272398E-1
2.769617351E0,1.161526084E0,-3.495573401E-1,8.628217876E-2
2.779332039E0,1.402352571E0,-1.834068894E-1,2.519745007E-2
2.789045789E0,1.661351800E0,1.084253844E-2,2.641914412E-2
2.798758810E0,1.894695520E0,1.844758689E-1,8.628217876E-2
2.808472612E0,2.068176031E0,2.822114229E-1,1.693574041E-1
2.818187299E0,2.180572033E0,2.712161839E-1,2.133384049E-1
2.827901049E0,2.212336063E0,1.612636745E-1,2.047865391E-1
2.837614122E0,2.139034271E0,-2.092151903E-2,1.559187621E-1
2.847327924E0,1.977770686E0,-2.017323077E-1,1.046075895E-1
2.857042560E0,1.789629698E0,-3.373403847E-1,7.040014863E-2
2.866756362E0,1.618592501E0,-4.534013867E-1,4.963133857E-2
2.876469383E0,1.473210931E0,-5.938962698E-1,1.985253533E-3
2.886183185E0,1.374253631E0,-7.649334669E-1,-1.067455560E-1
2.895897872E0,1.302173615E0,-9.152019024E-1,-2.533488870E-1
2.905611622E0,1.241088867E0,-9.726215601E-1,-3.645231128E-1
2.915324643E0,1.162747741E0,-8.785510659E-1,-4.414898455E-1
2.925038549E0,1.073564053E0,-7.099572420E-1,-4.976878166E-1
2.934753133E0,1.005149126E0,-4.876088202E-1,-5.465555787E-1
2.944466935E0,9.452861547E-1,-1.736333370E-1,-5.758762360E-1
2.954179955E0,8.732061386E-1,1.954711229E-1,-5.648810267E-1
2.963893758E0,7.718055248E-1,5.033381581E-1,-5.306735635E-1
2.973608445E0,6.093201637E-1,6.572716236E-1,-4.561502039E-1
2.983322195E0,3.710896969E-1,6.474980712E-1,-3.364241421E-1
2.993035216E0,1.194206402E-1,4.324798584E-1,-1.666085869E-1
3.002749122E0,-6.627693027E-2,7.559234649E-2,4.352286831E-2
3.012463705E0,-2.006633282E-1,-2.041756958E-1,2.341072112E-1
3.022177508E0,-3.289412558E-1,-3.410054743E-1,3.490992188E-1
3.031890528E0,-4.352286756E-1,-4.240806997E-1,3.869717419E-1
3.041604330E0,-5.402944088E-1,-4.289674759E-1,3.723114133E-1
3.051319018E0,-6.820109487E-1,-3.923166394E-1,2.843494117E-1
3.061032768E0,-8.396095634E-1,-3.715478480E-1,1.290414780E-1
3.070745789E0,-9.483403563E-1,-3.471139669E-1,-3.588727489E-2
3.080459695E0,-9.825478196E-1,-2.347180545E-1,-1.482831687E-1
3.090174278E0,-9.678874612E-1,-2.702999115E-2,-1.983726472E-1
3.099888080E0,-9.630007148E-1,1.661504507E-1,-2.179197669E-1
3.109601101E0,-1.017976999E0,1.869192570E-1,-2.142546773E-1
3.119314903E0,-1.098608851E0,-9.926267900E-3,-2.130329758E-1
3.129029591E0,-1.147476554E0,-3.067980409E-1,-2.093679011E-1
3.138743341E0,-1.179240584E0,-5.609105229E-1,-1.714953631E-1
3.148456362E0,-1.204896212E0,-6.904101372E-1,-1.372879148E-1
3.158170268E0,-1.158471823E0,-7.453863621E-1,-1.372879148E-1
3.167884851E0,-1.058292866E0,-6.952968836E-1,-1.568350345E-1
3.177598601E0,-1.008203387E0,-5.731274486E-1,-2.020377368E-1
3.187311674E0,-1.173132181E0,-3.813214004E-1,-2.496838123E-1
3.197025476E0,-1.584843159E0,-1.601946950E-1,-2.460187376E-1
3.206740164E0,-1.917144179E0,-1.333174109E-1,-2.484621257E-1
3.216453914E0,-1.961125135E0,-1.725643501E-2,-2.655658424E-1
3.226166935E0,-1.854837656E0,8.038749695E-1,-1.727170646E-1
3.235880737E0,-1.529866934E0,1.437934399E0,1.143811494E-1
3.245595424E0,-1.329509020E0,1.260788798E0,4.480564594E-1
3.255309174E0,-1.400367379E0,1.025001645E0,5.763344169E-1
3.265022247E0,-1.416249394E0,5.228852630E-1,4.627167881E-1
3.274736049E0,-1.451678514E0,8.414421231E-2,9.849911928E-2
3.284450737E0,-1.424801230E0,-2.139492482E-1,-2.863346636E-1
3.294164487E0,-1.311183691E0,-4.839437306E-1,-4.732539058E-1
3.303877508E0,-1.146254897E0,-7.380561829E-1,-4.622586668E-1
3.313591414E0,-9.581139088E-1,-9.078717232E-1,-3.388675153E-1
3.323305997E0,-7.296570539E-1,-8.895463347E-1,-1.531699449E-1
3.333019747E0,-4.132381678E-1,-7.014053464E-1,5.329642445E-2
3.342732820E0,-3.695625812E-2,-4.277457893E-1,2.145601064E-1
3.352446622E0,3.271087110E-1,-1.516428292E-1,3.161134422E-1
3.362161310E0,6.826218367E-1,6.948387623E-2,3.442124426E-1
3.371875060E0,1.023474574E0,2.296785712E-1,3.283303976E-1
3.381588080E0,1.326607585E0,2.870981991E-1,2.953446507E-1
3.391301987E0,1.625922680E0,2.785463631E-1,2.487675399E-1
3.401016570E0,1.930124640E0,2.553341687E-1,2.084516287E-1
3.410730372E0,2.170798540E0,2.015796006E-1,1.876828223E-1
3.420443393E0,2.336948872E0,1.097997949E-1,1.669140160E-1
3.430157195E0,2.467670202E0,4.871506989E-2,1.204896197E-1
3.439871830E0,2.581287861E0,3.527642787E-2,7.284353673E-2
3.449585633E0,2.633820772E0,2.916795574E-2,4.596625641E-2
3.459298653E0,2.564184189E0,1.695101149E-2,2.764083818E-2
3.469012455E0,2.371156454E0,-2.336490713E-2,8.093725890E-3
3.478727143E0,2.073062897E0,-1.003316641E-1,4.428642802E-3
3.488440893E0,1.754200578E0,-2.506000996E-1,-4.581354442E-4
3.498153966E0,1.500088215E0,-4.424061179E-1,-5.176930502E-2
3.507867768E0,1.336381078E0,-5.829010010E-1,-1.592784226E-1
3.517582403E0,1.253305912E0,-6.195518374E-1,-3.168770075E-1
3.527296205E0,1.181073189E0,-5.804576278E-1,-4.842491746E-1
3.537009226E0,1.044243336E0,-5.486935377E-1,-6.186355352E-1
3.546723028E0,8.426637650E-1,-5.193728805E-1,-6.626165509E-1
3.556437716E0,5.958815217E-1,-4.130854607E-1,-5.709894896E-1
3.566151466E0,3.564293683E-1,-2.481566966E-1,-3.694098890E-1
3.575864487E0,2.159345001E-1,-8.444963396E-2,-1.104106456E-1
3.585578393E0,2.024958730E-1,2.916795574E-2,1.400367320E-1
3.595292976E0,2.525853515E-1,4.504998401E-2,3.258870244E-1
3.605006778E0,2.709107697E-1,3.038965166E-2,4.602734149E-1
3.614719799E0,2.391466945E-1,5.360184610E-2,5.396835804E-1
3.624433601E0,2.061609477E-1,4.749337584E-2,5.628957748E-1
3.634148289E0,1.780619770E-1,4.871506989E-2,5.457920432E-1
3.643862039E0,1.340809762E-1,1.122431830E-1,4.908157587E-1
3.653575060E0,6.566607952E-2,2.394521236E-1,3.833066523E-1
3.663288966E0,-1.527118147E-3,4.007157981E-1,2.304421216E-1
3.673003549E0,-4.184303805E-2,5.375455618E-1,5.940489471E-2
3.682717299E0,-8.460234851E-2,6.010736823E-1,-1.140757278E-1
3.692430372E0,-1.652341783E-1,5.888567567E-1,-2.741177082E-1
3.702144174E0,-2.739650011E-1,4.996730685E-1,-3.926220834E-1
3.711858810E0,-4.010212123E-1,3.713951409E-1,-4.561502039E-1
3.721572612E0,-5.549547076E-1,2.443388999E-1,-4.549284875E-1
3.731285633E0,-7.626428008E-1,9.880454093E-2,-4.158342779E-1
3.740999435E0,-1.000873208E0,-8.200624585E-2,-3.742966652E-1
3.750714122E0,-1.213448048E0,-2.750339806E-1,-3.315373361E-1
3.760427872E0,-1.377155185E0,-4.387410581E-1,-2.753393948E-1
3.770140945E0,-1.485885978E0,-6.427640319E-1,-2.008160353E-1
3.779854747E0,-1.498102903E0,-8.125795722E-1,-1.275143623E-1
3.789569383E0,-1.461452127E0,-8.394568563E-1,-4.932591692E-2
3.799283185E0,-1.560409307E0,-8.028060198E-1,5.329642445E-2
3.808996205E0,-1.975785494E0,-8.125795722E-1,1.754658818E-1
3.818710008E0,-2.508444309E0,-8.247964978E-1,3.429907262E-1
3.828424695E0,-2.873730898E0,-1.183974743E0,5.372401476E-1
3.838138445E0,-2.774773598E0,-1.577360392E0,6.068767309E-1
3.847851466E0,-2.415595531E0,-7.649334669E-1,6.960604787E-1
3.857565372E0,-1.918365836E0,5.448757410E-1,1.068677306E0
3.867279955E0,-1.616607308E0,1.497797489E0,1.585454106E0
3.876993705E0,-2.209129095E0,1.701820493E0,1.809024215E0
3.886706778E0,-2.786990643E0,8.722898960E-1,1.541473031E0
3.896420580E0,-2.689254999E0,2.467822880E-1,1.055238605E0
3.906135216E0,-2.343515396E0,4.618005157E-1,6.398624778E-1
3.915849018E0,-2.039313555E0,9.358180165E-1,2.929012477E-1
3.925562039E0,-1.832847238E0,8.441908956E-1,-5.054761097E-2
3.935275841E0,-1.669140100E0,3.481829464E-1,-4.097257853E-1
3.944990528E0,-1.571404576E0,-3.069507517E-2,-6.003101468E-1
3.954704278E0,-1.386928678E0,-2.970244884E-1,-5.050179958E-1
3.964417299E0,-1.000873208E0,-3.397837877E-1,-2.875563502E-1
3.974131205E0,-4.828747511E-1,-1.540862173E-1,-6.398624927E-2
3.983845789E0,7.666133344E-2,8.414421231E-2,1.693574041E-1
3.993559539E0,6.032116413E-1,3.054236174E-1,3.625378609E-1
4.003272612E0,1.093111157E0,5.008947253E-1,4.651601911E-1
4.012986414E0,1.526965380E0,5.998520255E-1,4.724903405E-1
4.022701049E0,1.936233044E0,6.560499668E-1,3.759764731E-1
4.032414851E0,2.308849812E0,7.207997441E-1,2.243336588E-1
4.042127872E0,2.599613190E0,7.024743557E-1,5.207473040E-2
4.051841674E0,2.758433580E0,5.961869359E-1,-1.360662282E-1
4.061556362E0,2.808522940E0,3.933856487E-1,-3.083251417E-1
4.071270112E0,2.872051001E0,1.624853760E-1,-4.304946065E-1
4.080983133E0,2.962456465E0,-3.680354729E-2,-4.402681589E-1
4.090696935E0,2.969786644E0,-1.540862173E-1,-3.388675153E-1
4.100411622E0,2.859834194E0,-2.567085624E-1,-2.008160353E-1
4.110125372E0,2.664363146E0,-3.959817290E-1,-1.067455560E-1
4.119838393E0,2.407807112E0,-5.352548957E-1,-6.154286116E-2
4.129552299E0,2.124374151E0,-6.525375843E-1,-7.131642103E-2
4.139266883E0,1.886143565E0,-7.576032877E-1,-1.385096163E-1
4.148980633E0,1.734653473E0,-7.808154821E-1,-2.631224692E-1
4.158693705E0,1.640583038E0,-7.124006152E-1,-4.475983381E-1
4.168407508E0,1.519635320E0,-6.806365848E-1,-6.723901033E-1
4.178122143E0,1.311947227E0,-6.781931520E-1,-8.825215697E-1
4.187835945E0,1.069898963E0,-5.719057322E-1,-1.008356094E0
4.197548966E0,8.365553021E-1,-3.727695346E-1,-9.741486907E-1
4.207262768E0,6.178719997E-1,-2.151709497E-1,-7.994463444E-1
4.216977455E0,4.358395338E-1,-1.870719790E-1,-5.086830258E-1
4.226691205E0,3.161134422E-1,-2.835858464E-1,-1.947075576E-1
4.236404226E0,1.829487532E-1,-4.265241027E-1,8.139539510E-2
4.246118028E0,-1.007897966E-2,-5.328115225E-1,3.124483824E-1
4.255832716E0,-1.444653720E-1,-5.621321797E-1,4.627167881E-1
4.265546466E0,-1.615691036E-1,-4.961606860E-1,5.445703268E-1
4.275259487E0,-1.139230132E-1,-3.251234591E-1,5.922164321E-1
4.284973289E0,-4.795150831E-2,-9.055810422E-2,5.885513425E-1
4.294687976E0,-2.229592577E-2,1.795890927E-1,5.225798488E-1
4.304401726E0,-4.917320609E-2,4.361449480E-1,4.052971601E-1
4.314114747E0,-1.090362370E-1,6.242858768E-1,2.573194206E-1
4.323828653E0,-1.701209545E-1,7.012526393E-1,9.239064902E-2
4.333543237E0,-2.141019702E-1,7.098045349E-1,-7.986827940E-2
4.343256987E0,-2.446443290E-1,6.719319820E-1,-2.362451702E-1
4.352970008E0,-2.825168669E-1,5.974085927E-1,-3.388675153E-1
4.362683914E0,-3.509317636E-1,4.862344265E-1,-3.914003670E-1
4.372398497E0,-4.731011987E-1,3.530697227E-1,-4.036173224E-1
4.382112247E0,-6.478035450E-1,1.979145110E-1,-3.852919042E-1
4.391825320E0,-8.713735938E-1,-2.947338112E-2,-3.559712470E-1
4.401539122E0,-1.126707792E0,-3.116848171E-1,-3.107685447E-1
4.411253758E0,-1.363716483E0,-5.291464329E-1,-2.570139766E-1
4.420967508E0,-1.494437814E0,-6.012263894E-1,-1.910424829E-1
4.430680580E0,-1.487107635E0,-4.876088202E-1,-1.385096163E-1
4.440394383E0,-1.410140872E0,-2.933593988E-1,-1.152974218E-1
4.450109018E0,-1.346612811E0,-2.176143378E-1,-8.353336155E-2
4.459822820E0,-1.434574842E0,-2.420482337E-1,-3.833066672E-2
4.469535841E0,-1.661809921E0,-1.589729935E-1,5.940489471E-2
4.479249643E0,-2.017323017E0,-9.422318637E-2,3.136700690E-1
4.488964278E0,-2.255553484E0,-3.495573401E-1,5.641174316E-1
4.498678080E0,-2.334963560E0,-2.212794125E-1,6.337540150E-1
4.508391101E0,-2.072299242E0,3.628432751E-1,6.985038519E-1
4.518104903E0,-1.318513751E0,3.652866483E-1,8.280034661E-1
4.527819591E0,-5.073086619E-1,6.951441765E-1,7.779139876E-1
4.537533341E0,7.666133344E-2,1.183822036E0,6.203153729E-1
4.547246362E0,3.063398898E-1,1.084864736E0,3.344388604E-1
4.556960164E0,7.910472155E-2,7.085828185E-1,-6.765133142E-2
4.566674851E0,-3.326063454E-1,2.418955117E-1,-3.962871730E-1
4.576388601E0,-5.989357233E-1,-1.345391124E-1,-5.135698318E-1
4.586101622E0,-6.258130074E-1,-2.261662036E-1,-5.037962794E-1
4.595815424E0,-6.087092757E-1,-6.856760383E-2,-4.304946065E-1
4.605530112E0,-6.294780970E-1,1.380514801E-1,-3.107685447E-1
4.615243862E0,-4.669927359E-1,1.966928244E-1,-1.824906170E-1
4.624956883E0,-1.041494608E-1,1.649287641E-1,-7.742489129E-2
4.634670685E0,2.379250079E-1,1.269035190E-1,-1.389677543E-2
4.644385372E0,4.004103839E-1,6.459710002E-2,1.908897609E-2
4.654099122E0,3.747547865E-1,1.068982761E-3,7.895200700E-2
4.663812143E0,3.124483824E-1,-7.834116369E-2,1.669140160E-1
4.673525945E0,3.539859951E-1,-1.003316641E-1,2.597627938E-1
4.683240633E0,5.128062963E-1,8.292251825E-2,3.503209054E-1
4.692954383E0,7.547017932E-1,3.042019308E-1,4.126273096E-1
4.702667403E0,1.011257648E0,3.933856487E-1,4.150707126E-1
4.712381205E0,1.206881523E0,3.665083647E-1,3.454341292E-1
4.722095893E0,1.337602735E0,2.980934680E-1,2.402156889E-1
4.731809643E0,1.421899676E0,2.333436459E-1,1.094943732E-1
4.741522664E0,1.485427856E0,1.710372269E-1,-5.054761097E-2
4.751236466E0,1.569724798E0,1.256818175E-1,-2.374668717E-1
4.760951153E0,1.669903636E0,6.215370819E-2,-4.243861437E-1
4.770664903E0,1.729766726E0,-4.657710344E-2,-5.709894896E-1
4.780377924E0,1.693115830E0,-1.760767251E-1,-6.552863717E-1
4.790091726E0,1.548955917E0,-2.884726226E-1,-6.687250137E-1
4.799806414E0,1.351041436E0,-3.507790267E-1,-6.210789680E-1
4.809520164E0,1.178629756E0,-3.556658030E-1,-5.294518471E-1
4.819233185E0,1.076007485E0,-3.275668323E-1,-4.133908749E-1
4.828946987E0,1.034469843E0,-3.141281903E-1,-2.826695740E-1
4.838661674E0,1.041800022E0,-3.691044450E-1,-1.605001241E-1
4.848375424E0,1.045465112E0,-4.167505503E-1,-9.575030953E-2
4.858088445E0,1.000262380E0,-4.375193417E-1,-7.009471953E-2
4.867802247E0,8.768712282E-1,-4.778352678E-1,-3.222219273E-2
4.877516883E0,7.021689415E-1,-5.352548957E-1,3.619270027E-2
4.887230685E0,5.506787896E-1,-6.244385839E-1,1.229330078E-1
4.896943705E0,4.614951015E-1,-7.038487792E-1,2.145601064E-1
4.906657508E0,4.260659516E-1,-7.185090780E-1,3.100049794E-1
4.916372143E0,4.150707126E-1,-6.342121959E-1,4.065188468E-1
4.926085945E0,3.637595475E-1,-4.900522232E-1,4.895940721E-1
4.935798966E0,2.403683960E-1,-3.532224298E-1,5.580089688E-1
4.945512768E0,7.666133344E-2,-2.518217862E-1,6.080984473E-1
4.955227403E0,-8.948912472E-2,-1.748550236E-1,6.068767309E-1
4.964941153E0,-2.189887464E-1,-1.211004704E-1,5.421269536E-1
4.974654174E0,-2.971771955E-1,-5.757235363E-2,4.358395338E-1
4.984368080E0,-3.668137789E-1,3.161134571E-2,3.234436214E-1
4.994082664E0,-4.804313779E-1,8.536590636E-2,2.182251811E-1
5.003796414E0,-6.502469182E-1,6.948387623E-2,1.327065676E-1
5.013509435E0,-8.677085042E-1,1.695101149E-2,5.940489471E-2
5.023223237E0,-1.113269091E0,-6.490252167E-2,-1.878355257E-2
5.032937924E0,-1.362494826E0,-1.516428292E-1,-7.498150319E-2
5.042651674E0,-1.623937488E0,-2.053973973E-1,-1.079672500E-1
5.052364695E0,-1.892710209E0,-2.530434728E-1,-1.531699449E-1
5.062078497E0,-2.119945526E0,-3.080197275E-1,-2.313583940E-1
5.071793185E0,-2.289761066E0,-2.481566966E-1,-3.694098890E-1
5.081506935E0,-2.299534559E0,-2.092151903E-2,-5.783196688E-1
5.091219955E0,-2.172478199E0,4.056025743E-1,-7.750124335E-1
5.100933758E0,-2.019766569E0,7.220214605E-1,-8.776348233E-1
5.110648393E0,-1.860946178E0,7.244648337E-1,-8.556442857E-1
5.120362143E0,-2.234784603E0,8.038749695E-1,-5.160132051E-1
5.130075216E0,-3.050876617E0,6.059604883E-1,1.754658818E-1
5.139789018E0,-3.248791218E0,1.328592747E-2,8.634325862E-1
5.149503653E0,-2.882282734E0,2.247917950E-1,1.223832488E0
5.159217403E0,-2.088181257E0,5.106683373E-1,1.183516622E0
5.168930424E0,-1.371046662E0,2.834331393E-1,8.927532434E-1
5.178644226E0,-1.219556570E0,3.176405728E-1,4.920374751E-1
5.188358914E0,-1.258650780E0,1.024696305E-1,7.895200700E-2
5.198072664E0,-1.147476554E0,-3.874298632E-1,-2.655658424E-1
5.207785685E0,-9.275715351E-1,-6.000047326E-1,-4.952444136E-1
5.217499487E0,-6.905628443E-1,-6.048914790E-1,-5.245651007E-1
5.227214174E0,-3.851391971E-1,-5.010474920E-1,-3.938437700E-1
5.236927924E0,4.734066129E-2,-2.664821148E-1,-2.386885732E-1
5.246640945E0,5.494571328E-1,-6.368082762E-2,-1.177408099E-1
5.256354747E0,1.006370902E0,3.161134571E-2,-4.688252881E-2
5.266069383E0,1.346154690E0,1.293469071E-1,-5.344913341E-3
5.275783133E0,1.589271903E0,2.822114229E-1,4.107947648E-2
5.285496153E0,1.777412772E0,4.898995161E-1,1.070509851E-1
5.295210060E0,1.959445238E0,7.122479081E-1,1.632489264E-1
5.304924643E0,2.169576645E0,8.429692388E-1,1.950129867E-1
5.314638393E0,2.372378111E0,8.759549856E-1,1.937913001E-1
5.324351414E0,2.573957682E0,7.953231335E-1,1.840177327E-1
5.334065216E0,2.796306133E0,6.389462352E-1,2.072299272E-1
5.343779903E0,2.986890316E0,4.532486796E-1,2.463241518E-1
5.353493653E0,3.011324167E0,2.541124523E-1,2.634278834E-1
5.363206674E0,2.828070164E0,8.414421231E-2,2.426590770E-1
5.372920476E0,2.514094591E0,-8.689302206E-2,1.913478971E-1
5.382635112E0,2.141477823E0,-3.190149665E-1,1.143811494E-1
5.392348862E0,1.782299638E0,-5.816792846E-1,2.031067200E-2
5.402061883E0,1.495201349E0,-8.211314082E-1,-1.116323397E-1
5.411775685E0,1.286291599E0,-9.799517393E-1,-2.631224692E-1
5.421490372E0,1.140757203E0,-1.047144890E0,-3.901786804E-1
5.431204122E0,1.022252917E0,-1.075243831E0,-5.074613690E-1
5.440917143E0,8.903098702E-1,-1.038593054E0,-6.149705052E-1
5.450630945E0,7.388197780E-1,-8.871029615E-1,-6.687250137E-1
5.460345580E0,6.190937161E-1,-6.867450476E-1,-6.113054156E-1
5.470059330E0,5.445703268E-1,-5.438067913E-1,-4.317162931E-1
5.479772403E0,4.541649222E-1,-4.424061179E-1,-1.397313178E-1
5.489486205E0,2.733541429E-1,-3.397837877E-1,2.023431510E-1
5.499200841E0,1.435491070E-2,-2.102841735E-1,5.103628635E-1
5.508914591E0,-2.348707765E-1,-1.052184403E-1,7.314895988E-1
5.518627612E0,-4.205683470E-1,-2.580829710E-2,8.732061386E-1
5.528341414E0,-5.500679612E-1,1.085781008E-1,9.452861547E-1
5.538056101E0,-6.087092757E-1,3.396310806E-1,9.159654379E-1
5.547769851E0,-5.720584393E-1,5.705313683E-1,7.656970620E-1
5.557482872E0,-4.682144225E-1,7.330167294E-1,5.286883116E-1
5.567196674E0,-3.533751369E-1,8.344173431E-1,2.463241518E-1
5.576911310E0,-2.788517773E-1,8.759549856E-1,-4.810422286E-2
5.586625060E0,-2.812951505E-1,8.698465228E-1,-3.132119179E-1
5.596338080E0,-3.900259733E-1,7.977665067E-1,-5.233433843E-1
5.606051883E0,-5.818319917E-1,6.401679516E-1,-6.601731777E-1
5.615766518E0,-8.054021001E-1,4.324798584E-1,-7.102626562E-1
5.625480320E0,-1.027750492E0,2.443388999E-1,-6.797202826E-1
5.635193289E0,-1.236660242E0,9.636115283E-2,-5.844281316E-1
5.644907195E0,-1.424801230E0,-4.413371533E-2,-4.598152637E-1
5.654621778E0,-1.592173338E0,-2.322746664E-1,-3.315373361E-1
5.664335528E0,-1.738776684E0,-4.521796703E-1,-2.264716178E-1
5.674048549E0,-1.852394342E0,-6.684195995E-1,-1.727170646E-1
5.683762351E0,-1.865832925E0,-8.296833038E-1,-1.641651988E-1
5.693476987E0,-1.748550296E0,-8.944330812E-1,-2.142546773E-1
5.703190737E0,-1.637376070E0,-7.673768401E-1,-2.899997234E-1
5.712903758E0,-1.791309595E0,-5.315898061E-1,-2.924431264E-1
5.722617560E0,-2.116280317E0,-5.144860744E-1,-1.959292591E-1
5.732332247E0,-2.261662006E0,-8.040276766E-1,-2.855710872E-2
5.742045997E0,-2.435142517E0,-7.588250041E-1,2.377723008E-1
5.751759018E0,-2.719797373E0,1.588202864E-1,6.887302995E-1
5.761472820E0,-2.695363522E0,8.356390595E-1,1.287360549E0
5.771187455E0,-2.177365065E0,8.710681796E-1,1.706401825E0
5.780901205E0,-1.483442545E0,1.142284393E0,1.605001211E0
5.790614226E0,-1.054627776E0,1.035996914E0,1.065012217E0
5.800328028E0,-1.225664973E0,5.913001299E-1,4.908157587E-1
5.810042716E0,-1.412584305E0,-6.368082762E-2,2.031067200E-2
5.819756466E0,-1.252542257E0,-6.586460471E-1,-3.388675153E-1
5.829469487E0,-8.909206986E-1,-8.919897079E-1,-4.989095032E-1
5.839183289E0,-5.341859460E-1,-9.970554113E-1,-4.402681589E-1
5.848897924E0,-3.533751369E-1,-1.139993668E0,-2.765611112E-1
5.858611674E0,-1.725643575E-1,-1.314695954E0,-1.446180940E-1
5.868324695E0,2.757975459E-1,-1.132663488E0,-3.955236077E-2
5.878038497E0,9.929322004E-1,-4.924955964E-1,1.021642014E-1
5.887753133E0,1.773747683E0,3.652866483E-1,2.819060087E-1
5.897466883E0,2.398033619E0,1.115407109E0,4.492781460E-1
5.907179903E0,2.813409805E0,1.599198103E0,5.690042377E-1
5.916893705E0,3.001550674E0,1.860640764E0,6.533011198E-1
5.926608393E0,2.983225346E0,1.941272616E0,6.948387623E-1
5.936322143E0,2.851282358E0,1.773900390E0,6.533011198E-1
5.946035164E0,2.663141251E0,1.375627995E0,5.079194903E-1
5.955748966E0,2.500655890E0,8.319739699E-1,2.782409191E-1
5.965463601E0,2.435906172E0,2.699944973E-1,1.908897609E-2
5.975177351E0,2.399255276E0,-1.540862173E-1,-1.983726472E-1
5.984890372E0,2.319845200E0,-4.094203711E-1,-2.741177082E-1
5.994604174E0,2.184237003E0,-5.034908652E-1,-2.460187376E-1
6.004318810E0,1.998539567E0,-5.328115225E-1,-1.849340051E-1
6.014032560E0,1.765195847E0,-6.097782850E-1,-1.214058921E-1
6.023745580E0,1.474432588E0,-6.904101372E-1,-6.398624927E-2
6.033459383E0,1.122431874E0,-7.246175408E-1,-2.122694254E-2
6.043174070E0,7.498149872E-1,-7.295043468E-1,-2.489202656E-2
6.052887820E0,4.150707126E-1,-6.830799580E-1,-4.810422286E-2
6.062600789E0,1.829487532E-1,-4.143071473E-1,-1.287360638E-1
6.072314591E0,1.658450365E-1,4.993676394E-2,-2.716743052E-1
6.082029278E0,3.625378609E-1,3.994941115E-1,-4.366030693E-1
6.091743028E0,5.787777901E-1,4.214846194E-1,-5.563291311E-1
6.101456049E0,6.300889254E-1,1.771457046E-1,-5.661026835E-1
6.111169851E0,4.847072959E-1,2.428117767E-2,-4.488200247E-1
6.120884487E0,2.562504113E-1,6.337540597E-2,-2.826695740E-1
6.130598237E0,4.245388508E-2,8.536590636E-2,-1.055238619E-1
6.140311258E0,-2.031067163E-1,-1.969982497E-2,4.718795046E-2
6.150025060E0,-4.999784827E-1,-2.115058601E-1,1.412584335E-1
6.159739695E0,-8.029587269E-1,-3.947600424E-1,1.779092699E-1
6.169453445E0,-1.059514523E0,-5.047125220E-1,1.742441803E-1
6.179166466E0,-1.191457629E0,-5.425850749E-1,1.437018216E-1
6.188880268E0,-1.146254897E0,-5.205945969E-1,9.361234307E-2
6.198594903E0,-9.520054460E-1,-4.448495209E-1,2.764083818E-2
6.208308653E0,-6.978929639E-1,-3.251234591E-1,-7.620319724E-2
6.218021674E0,-4.853181541E-1,-2.200577259E-1,-2.044811249E-1
6.227735476E0,-4.046863019E-1,-1.516428292E-1,-3.376458287E-1
6.237450112E0,-4.926483035E-1,-1.369825006E-1,-4.243861437E-1
6.247163914E0,-7.076665759E-1,-2.102841735E-1,-4.366030693E-1
6.256876883E0,-9.495620728E-1,-3.483356535E-1,-4.060607255E-1
6.266590685E0,-1.137703061E0,-4.668400288E-1,-3.657447994E-1
6.276305372E0,-1.211004734E0,-4.680617154E-1,-3.168770075E-1
6.286019122E0,-1.152363300E0,-2.652604282E-1,-2.875563502E-1
6.295732091E0,-1.037524104E0,7.559234649E-2,-3.009949923E-1
6.305445893E0,-1.021642089E0,4.214846194E-1,-3.706315756E-1
6.315160580E0,-1.226886749E0,6.242858768E-1,-4.671454430E-1
6.324874330E0,-1.533532023E0,4.654656053E-1,-4.219427407E-1
6.334587351E0,-1.495659471E0,8.047912270E-2,-2.362451702E-1
6.344301153E0,-1.245212078E0,5.644228458E-1,2.519745007E-2
6.354015789E0,-1.037524104E0,1.979145169E0,3.943018913E-1
6.363729539E0,-1.396702290E0,2.636416674E0,7.449282408E-1
6.373442560E0,-2.206685781E0,2.504473686E0,1.030804753E0
6.383156362E0,-2.080851078E0,1.676164865E0,1.203063726E0
6.392870997E0,-1.397923946E0,9.797990322E-1,1.080894232E0
6.402584747E0,-1.413805962E0,1.033553600E0,5.922164321E-1
6.412297768E0,-1.733889937E0,6.536065936E-1,-1.018587798E-1
6.422011570E0,-1.765653968E0,7.177455351E-3,-8.214368224E-1
6.431726205E0,-1.582399845E0,-3.862081766E-1,-1.339435339E0
6.441439955E0,-1.316070437E0,-5.474718809E-1,-1.586217642E0
6.451152976E0,-8.982508779E-1,-5.914528370E-1,-1.548345089E0
6.460866778E0,-3.912476599E-1,-6.891884208E-1,-1.264912009E0
6.470581414E0,1.414111406E-1,-7.331694365E-1,-8.006680608E-1
6.480295164E0,6.227588058E-1,-6.219952106E-1,-2.777827978E-1
6.490008185E0,1.028361320E0,-4.729484916E-1,1.803526580E-1
6.499721987E0,1.355928183E0,-4.057552814E-1,4.969242513E-1
6.509436622E0,1.575833201E0,-3.263451457E-1,6.276455522E-1
6.519150372E0,1.822615504E0,-1.919587553E-1,6.215370893E-1
6.528863393E0,2.146364450E0,2.061609551E-2,5.653391480E-1
6.538577195E0,2.471335411E0,2.382304370E-1,4.627167881E-1
6.548291830E0,2.775537252E0,2.675510943E-1,3.063398898E-1
6.558005580E0,3.013767719E0,1.747023165E-1,1.143811494E-1
6.567718601E0,3.135937214E0,7.803573459E-2,-1.177408099E-1
6.577432403E0,3.173809528E0,-1.015533581E-1,-3.144336343E-1
6.587147039E0,3.089512825E0,-2.994678617E-1,-3.278722763E-1
6.596860789E0,2.724225998E0,-4.460712075E-1,-1.116323397E-1
6.606573810E0,2.184237003E0,-6.500942111E-1,1.620272398E-1
6.616287612E0,1.688229084E0,-9.188669920E-1,3.564293683E-1
6.626002247E0,1.330272675E0,-1.157097459E0,4.370612204E-1
6.635715997E0,1.151752472E0,-1.269493341E0,3.918585181E-1
6.645429018E0,1.196955204E0,-1.116781473E0,2.279987335E-1
6.655142820E0,1.330272675E0,-7.087355256E-1,-3.466558084E-2
6.664857455E0,1.343711257E0,-3.361186981E-1,-3.119902313E-1
6.674571205E0,1.211768270E0,-1.675248593E-1,-5.318952799E-1
6.684284226E0,9.587247968E-1,-1.430909634E-1,-6.223006248E-1
6.693998028E0,6.239804626E-1,-2.200577259E-1,-5.575508475E-1
6.703712664E0,3.051182032E-1,-4.375193417E-1,-3.596363366E-1
6.713426414E0,8.399149776E-2,-7.087355256E-1,-3.344388679E-2
6.723139435E0,-1.496575773E-2,-7.844805717E-1,3.234436214E-1
6.732853237E0,-2.473931387E-2,-6.720846891E-1,6.288672686E-1
6.742567872E0,2.168507688E-2,-5.267030597E-1,8.243383765E-1
6.752281622E0,5.467082933E-2,-3.666610718E-1,9.135220647E-1
6.761994591E0,4.245388508E-2,-1.895153672E-1,9.208522439E-1
6.771708393E0,-1.252236869E-2,-3.924693540E-2,8.670976758E-1
6.781423080E0,-1.090362370E-1,6.826218218E-2,7.864658237E-1
6.791136830E0,-2.360924631E-1,1.404948682E-1,7.021689415E-1
6.800849799E0,-3.607053161E-1,2.015796006E-1,5.824428797E-1
6.810563601E0,-4.535540938E-1,2.443388999E-1,4.126273096E-1
6.820278237E0,-5.073086619E-1,2.932066917E-1,1.925695986E-1
6.829991987E0,-5.341859460E-1,3.713951409E-1,-4.077405483E-2
6.839705008E0,-5.647283196E-1,4.618005157E-1,-2.350234836E-1
6.849418810E0,-6.392516494E-1,5.363239050E-1,-3.657447994E-1
6.859133445E0,-7.760814428E-1,5.351021886E-1,-4.341596961E-1
6.868847195E0,-9.654440880E-1,4.117110670E-1,-4.671454430E-1
6.878560216E0,-1.189014196E0,2.211267054E-1,-4.720322192E-1
6.888274018E0,-1.413805962E0,5.848862603E-2,-4.329380095E-1
6.897988653E0,-1.608055353E0,-4.535540938E-2,-3.706315756E-1
6.907702403E0,-1.768097401E0,-1.540862173E-1,-3.339807391E-1
6.917415424E0,-1.886601806E0,-2.823641598E-1,-3.290939629E-1
6.927129226E0,-1.956238389E0,-3.727695346E-1,-3.400892019E-1
6.936843862E0,-1.950129867E0,-4.778352678E-1,-3.535278440E-1
6.946557612E0,-1.893931985E0,-6.085565686E-1,-3.437542915E-1
6.956270633E0,-1.825517058E0,-7.172874212E-1,-3.290939629E-1
6.965984435E0,-1.769319057E0,-6.403206587E-1,-3.205420971E-1
6.975699070E0,-1.840177417E0,-4.289674759E-1,-2.655658424E-1
6.985412820E0,-1.957460046E0,-4.582881629E-1,-2.081461996E-1
6.995125789E0,-1.959903479E0,-6.183301210E-1,-1.751604527E-1
7.004839591E0,-2.046643734E0,-2.677038014E-1,-1.299577504E-1
7.014554278E0,-2.217680931E0,2.247917950E-1,-7.864658535E-2
7.024267976E0,-2.372836113E0,2.919849753E-1,9.849911928E-2
7.033980997E0,-2.590297699E0,1.029888511E0,3.918585181E-1
7.043694799E0,-2.210350752E0,1.667613029E0,5.641174316E-1
7.053409435E0,-1.273311138E0,1.766570330E0,4.724903405E-1
7.063123185E0,-4.816530645E-1,1.834985137E0,1.363716573E-1
7.072836205E0,-1.102579311E-1,1.655396104E0,-3.022166789E-1
7.082550008E0,-1.591257155E-1,1.230246425E0,-6.565080881E-1
7.092264643E0,-3.961344361E-1,7.036960125E-1,-8.079982400E-1
7.101978393E0,-5.732801557E-1,-8.704573847E-3,-7.237012982E-1
7.111691414E0,-5.952706337E-1,-7.404996157E-1,-4.805840850E-1
7.121405216E0,-4.682144225E-1,-1.193748236E0,-2.154763639E-1
7.131119851E0,-2.202104330E-1,-1.315917730E0,-2.733541466E-2
7.140833601E0,1.768402755E-1,-1.121668339E0,8.017370105E-2
7.150546570E0,7.351546884E-1,-7.356128097E-1,1.693574041E-1
7.160260372E0,1.370588541E0,-2.664821148E-1,3.222219348E-1
7.169975060E0,1.937454820E0,2.064663768E-1,5.628957748E-1
7.179688810E0,2.300297976E0,5.338805318E-1,8.108997345E-1
7.189401778E0,2.433462858E0,6.145123243E-1,9.623898268E-1
7.199115580E0,2.477443695E0,4.789042473E-1,9.782719016E-1
7.208830216E0,2.543415308E0,1.966928244E-1,8.964183331E-1
7.218543966E0,2.624047041E0,-1.443126649E-1,7.656970620E-1
7.228256987E0,2.701013803E0,-3.923166394E-1,6.203153729E-1
7.237970789E0,2.779202223E0,-4.534013867E-1,4.810422063E-1
7.247685424E0,2.832956791E0,-3.092414141E-1,3.246653080E-1
7.257399174E0,2.809744596E0,-8.933641016E-2,1.449235082E-1
7.267112195E0,2.680245161E0,4.504998401E-2,-6.566607859E-3
7.276825997E0,2.476222038E0,6.948387623E-2,-8.231166750E-2
7.286540633E0,2.208671093E0,7.177455351E-3,-9.819369763E-2
7.296254383E0,1.893473744E0,-1.467560530E-1,-1.128540337E-1
7.305967351E0,1.563616276E0,-3.165715933E-1,-1.763821393E-1
7.315681153E0,1.221541762E0,-3.642176688E-1,-2.790044844E-1
7.325395789E0,8.622109294E-1,-1.675248593E-1,-3.755183518E-1
7.335109539E0,5.824428797E-1,1.747023165E-1,-4.439332485E-1
7.344822560E0,4.443913698E-1,4.825693369E-1,-4.659237564E-1
7.354536362E0,4.004103839E-1,6.975875497E-1,-4.085040987E-1
7.364250997E0,3.490992188E-1,8.319739699E-1,-3.132119179E-1
7.373964747E0,2.367033064E-1,8.698465228E-1,-1.702736765E-1
7.383677768E0,9.987352788E-2,8.331956863E-1,1.786728203E-2
7.393391570E0,5.803049076E-3,7.134696245E-1,2.194468826E-1
7.403106205E0,-7.238540053E-2,5.326588154E-1,3.710896969E-1
7.412819955E0,-1.615691036E-1,3.151971996E-1,4.566083252E-1
7.422532976E0,-2.409792393E-1,1.012479365E-1,4.785988331E-1
7.432246726E0,-3.081724346E-1,-3.680354729E-2,4.321744442E-1
7.441961414E0,-3.545968235E-1,-4.902049154E-2,3.405473530E-1
7.451675112E0,-3.704788685E-1,4.260659590E-2,2.231119573E-1
7.461388133E0,-3.704788685E-1,1.685938388E-1,9.483403713E-2
7.471101935E0,-3.533751369E-1,2.699944973E-1,-2.367033064E-2
7.480816570E0,-3.350497186E-1,3.151971996E-1,-1.226275861E-1
7.490530320E0,-3.484883606E-1,3.042019308E-1,-2.020377368E-1
7.500243341E0,-4.083513916E-1,2.284568697E-1,-2.667875290E-1
7.509957143E0,-5.207473040E-1,9.880454093E-2,-3.058817685E-1
7.519671778E0,-7.088882327E-1,-3.436015919E-2,-3.034383655E-1
7.529385528E0,-9.642223716E-1,-1.614163816E-1,-2.765611112E-1
7.539098549E0,-1.256207347E0,-2.835858464E-1,-2.423536479E-1
7.548812351E0,-1.538418770E0,-3.910949528E-1,-2.179197669E-1
7.558526987E0,-1.749771953E0,-4.790569544E-1,-2.044811249E-1
7.568240737E0,-1.840177417E0,-5.376983285E-1,-1.898207814E-1
7.577953705E0,-1.797418118E0,-5.376983285E-1,-1.446180940E-1
7.587667508E0,-1.649592996E0,-4.350759685E-1,-8.719844371E-2
7.597382143E0,-1.473669052E0,-1.968455315E-1,-5.909947306E-2
7.607095893E0,-1.450456858E0,8.780929446E-2,-2.489202656E-2
7.616808914E0,-1.653258085E0,7.803573459E-2,6.872031838E-3
7.626522716E0,-2.009992838E0,-3.544441164E-1,-4.581354442E-4
7.636237351E0,-2.624505281E0,-1.074022174E0,1.437018216E-1
7.645951101E0,-3.370960712E0,-1.048366666E0,6.313106418E-1
7.655664122E0,-3.370960712E0,1.171299592E-1,1.326454878E0
7.665377924E0,-2.769886971E0,1.650509238E0,1.783368587E0
7.675092560E0,-2.052752256E0,2.156290770E0,1.760156393E0
7.684806310E0,-1.388150454E0,1.649287581E0,1.308129430E0
7.694519278E0,-1.268424392E0,1.090973258E0,6.716265678E-1
7.704233080E0,-1.577513099E0,6.181774139E-1,1.229330078E-1
7.713947716E0,-1.592173338E0,6.948387623E-2,-3.303156495E-1
7.723661466E0,-1.209782958E0,-1.162136942E-1,-7.518002391E-1
7.733374487E0,-8.554915786E-1,-2.530434728E-1,-9.093988538E-1
7.743088289E0,-7.015580535E-1,-4.741701782E-1,-7.175928354E-1
7.752802924E0,-5.219689608E-1,-5.926745534E-1,-4.243861437E-1
7.762516674E0,-1.310267299E-1,-5.792359114E-1,-1.690519750E-1
7.772229695E0,3.210002482E-1,-4.815003574E-1,7.895200700E-2
7.781943497E0,6.496360302E-1,-3.910949528E-1,2.365505993E-1
7.791658133E0,9.098569751E-1,-3.434488773E-1,2.536543310E-1
7.801371883E0,1.265522838E0,-3.019112647E-1,1.669140160E-1
7.811084851E0,1.761530757E0,-2.884726226E-1,3.008422814E-2
7.820798653E0,2.245321751E0,-2.579302490E-1,-6.765133142E-2
7.830513289E0,2.537306786E0,-1.052184403E-1,-8.842013776E-2
7.840227039E0,2.677801609E0,1.220167428E-1,-7.742489129E-2
7.849940060E0,2.776758909E0,2.944283783E-1,-6.032116711E-2
7.859653862E0,2.856168985E0,4.019374847E-1,-4.932591692E-2
7.869368497E0,2.887933016E0,4.605788291E-1,-3.588727489E-2
7.879082247E0,2.865942717E0,4.434750974E-1,-1.145338640E-2
7.888795268E0,2.773093939E0,3.713951409E-1,2.153236605E-2
7.898509070E0,2.603278399E0,2.638860047E-1,3.985778242E-2
7.908223705E0,2.369934559E0,1.012479365E-1,2.153236605E-2
7.917937455E0,2.145142794E0,-9.910997003E-2,-4.199574888E-2
7.927650424E0,1.991209388E0,-2.554868758E-1,-1.409530044E-1
7.937364226E0,1.902025700E0,-3.067980409E-1,-2.655658424E-1
7.947078862E0,1.811620235E0,-2.689255178E-1,-3.889569938E-1
7.956792612E0,1.643026471E0,-1.772984117E-1,-5.147915483E-1
7.966505633E0,1.387692213E0,-3.802524135E-2,-6.357392669E-1
7.976219435E0,1.104106426E0,1.000262350E-1,-7.237012982E-1
7.985934070E0,9.049702287E-1,1.869192570E-1,-7.237012982E-1
7.995647820E0,7.925743461E-1,2.003578991E-1,-6.687250137E-1
8.005360789E0,6.557445526E-1,4.993676394E-2,-5.807630420E-1
8.015074591E0,3.857500553E-1,-2.005106062E-1,-4.207210541E-1
8.024789226E0,-3.054236295E-4,-4.094203711E-1,-1.446180940E-1
8.034502976E0,-3.790307343E-1,-5.645755529E-1,1.644706279E-1
8.044215997E0,-6.306998134E-1,-6.671979427E-1,3.771981895E-1
8.053929799E0,-7.577560544E-1,-6.952968836E-1,4.602734149E-1
8.063644435E0,-8.176190853E-1,-6.342121959E-1,4.590517282E-1
8.073358185E0,-8.359444737E-1,-5.010474920E-1,4.236225784E-1
8.083071205E0,-8.359444737E-1,-3.190149665E-1,3.490992188E-1
8.092784955E0,-8.298360109E-1,-1.247655526E-1,2.389939874E-1
8.102499643E0,-8.200624585E-1,-1.527118147E-4,1.082726792E-1
8.112213341E0,-7.968502641E-1,3.771981969E-2,-2.855710872E-2
8.121926362E0,-7.504258752E-1,4.260659590E-2,-1.592784226E-1
8.131640164E0,-6.942279339E-1,7.437065244E-2,-2.741177082E-1
8.141354799E0,-6.783458591E-1,1.392731816E-1,-3.437542915E-1
8.151068549E0,-7.357655168E-1,1.930277348E-1,-3.620797098E-1
8.160781570E0,-8.701519370E-1,2.003578991E-1,-3.352024257E-1
8.170495372E0,-1.057071209E0,1.232384369E-1,-2.875563502E-1
8.180210008E0,-1.279419541E0,-5.024218559E-2,-2.582356930E-1
8.189923705E0,-1.521315098E0,-3.104631305E-1,-2.667875290E-1
8.199636726E0,-1.741220117E0,-5.560237169E-1,-2.924431264E-1
8.209350528E0,-1.868276358E0,-6.952968836E-1,-3.205420971E-1
8.219065164E0,-1.851172566E0,-7.319477201E-1,-3.706315756E-1
8.228778914E0,-1.697239161E0,-7.087355256E-1,-4.451549351E-1
8.238491935E0,-1.477334142E0,-7.014053464E-1,-4.793623984E-1
8.248205737E0,-1.267202616E0,-7.771504521E-1,-4.781406820E-1
8.257920372E0,-1.366159916E0,-9.139801860E-1,-4.463766217E-1
8.267634122E0,-2.072299242E0,-9.726215601E-1,-2.545706034E-1
8.277347091E0,-2.972688198E0,-7.111788988E-1,2.709107697E-1
8.287060893E0,-3.168159246E0,-2.970244884E-1,8.744278550E-1
8.296775528E0,-2.519439459E0,2.528907657E-1,1.189625025E0
8.306489278E0,-1.394258857E0,4.850127101E-1,1.150530815E0
8.316202299E0,-2.996205688E-1,3.298575282E-1,8.670976758E-1
8.325916101E0,-1.618745178E-2,6.499415040E-1,4.443913698E-1
8.335630737E0,-5.451811552E-1,1.025001645E0,2.031067200E-2
8.345344435E0,-8.701519370E-1,4.972296655E-1,-3.718532622E-1
8.355057455E0,-6.441384554E-1,-3.069507517E-2,-7.774558663E-1
8.364771258E0,-2.702999115E-1,-5.268557742E-2,-9.985825419E-1
8.374485893E0,-5.039490014E-2,1.624853760E-1,-9.106205702E-1
8.384199643E0,8.887827396E-2,4.068242610E-1,-6.516213417E-1
8.393912664E0,2.782409191E-1,4.581354558E-1,-3.926220834E-1
8.403626414E0,4.321744442E-1,2.541124523E-1,-1.812689304E-1
8.413341049E0,3.771981895E-1,-1.565296054E-1,-5.344913341E-3
8.423054799E0,2.428117841E-1,-5.474718809E-1,1.253764033E-1
8.432767820E0,2.990097404E-1,-6.769714952E-1,2.328855246E-1
8.442481622E0,5.909947157E-1,-5.438067913E-1,3.466558158E-1
8.452196258E0,1.011257648E0,-2.750339806E-1,4.529432356E-1
8.461910008E0,1.468324065E0,2.061609551E-2,5.176930428E-1
8.471622976E0,1.898360610E0,2.785463631E-1,5.164713860E-1
8.481336778E0,2.250208616E0,3.823903799E-1,4.688252807E-1
8.491051414E0,2.484773874E0,3.689517379E-1,4.150707126E-1
8.500765164E0,2.614273548E0,3.005368412E-1,3.674246371E-1
8.510478185E0,2.687575340E0,2.052446753E-1,3.063398898E-1
8.520191987E0,2.708343983E0,4.993676394E-2,2.475458533E-1
8.529906622E0,2.633820772E0,-1.992889196E-1,1.571404636E-1
8.539620372E0,2.462783337E0,-4.937172830E-1,-6.566607859E-3
8.549333341E0,2.253873587E0,-7.527165413E-1,-2.350234836E-1
8.559047143E0,2.084058046E0,-8.883246183E-1,-4.818057716E-1
8.568761778E0,1.963110328E0,-8.003626466E-1,-6.626165509E-1
8.578475528E0,1.861709714E0,-5.120427012E-1,-7.505785823E-1
8.588188549E0,1.713884711E0,-1.162136942E-1,-7.493568659E-1
8.597902299E0,1.500088215E0,2.565558553E-1,-6.626165509E-1
8.607616935E0,1.261857748E0,4.898995161E-1,-5.147915483E-1
8.617330685E0,1.043021679E0,5.008947253E-1,-3.852919042E-1
8.627043705E0,8.353336453E-1,2.370087355E-1,-2.997733057E-1
8.636757508E0,6.361974478E-1,-2.139492482E-1,-2.362451702E-1
8.646472143E0,4.627167881E-1,-6.977402568E-1,-1.641651988E-1
8.656185893E0,3.075616062E-1,-1.015380859E0,-4.566083103E-2
8.665898862E0,1.731752008E-1,-1.039814711E0,7.650861889E-2
8.675612664E0,6.077930331E-2,-8.785510659E-1,1.681357026E-1
8.685327299E0,-3.329117596E-2,-7.038487792E-1,2.451024652E-1
8.695041049E0,-1.285833418E-1,-5.328115225E-1,3.234436214E-1
8.704754070E0,-2.422009408E-1,-3.190149665E-1,4.175141156E-1
8.714467872E0,-3.643703759E-1,-1.039967462E-1,5.250232220E-1
8.724182455E0,-4.743228853E-1,5.726693198E-2,6.239804626E-1
8.733896205E0,-5.537330508E-1,1.490467340E-1,6.777350307E-1
8.743609226E0,-5.952706337E-1,1.942494214E-1,6.618530154E-1
8.753323028E0,-5.977140665E-1,2.150182426E-1,5.824428797E-1
8.763037664E0,-5.732801557E-1,2.443388999E-1,4.529432356E-1
8.772751414E0,-5.537330508E-1,3.261924386E-1,2.892361879E-1
8.782464383E0,-5.586197972E-1,4.422534108E-1,1.094943732E-1
8.792178185E0,-6.074876189E-1,5.460974574E-1,-7.742489129E-2
8.801892820E0,-6.905628443E-1,5.986303091E-1,-2.472404242E-1
8.811606570E0,-7.919634581E-1,5.827482939E-1,-3.608580232E-1
8.821319591E0,-9.214630723E-1,4.984513521E-1,-4.353813827E-1
8.831033341E0,-1.118155956E0,3.860554695E-1,-4.805840850E-1
8.840747976E0,-1.395480514E0,3.103103936E-1,-4.769189954E-1
8.850461726E0,-1.724116445E0,2.528907657E-1,-4.781406820E-1
8.860174747E0,-2.041756868E0,1.734806150E-1,-5.172349215E-1
8.869888549E0,-2.322746754E0,2.125748396E-1,-5.343386531E-1
8.879603185E0,-2.497448921E0,3.775036037E-1,-4.989095032E-1
8.889316883E0,-2.484010458E0,5.241069198E-1,-4.427115619E-1
8.899029903E0,-2.508444309E0,8.038749695E-1,-3.193204105E-1
8.908743705E0,-2.628170252E0,1.133732557E0,-1.634016447E-2
8.918458341E0,-2.276322365E0,1.028666735E0,3.637595475E-1
8.928172091E0,-1.779092669E0,7.684458494E-1,6.875085831E-1
8.937885060E0,-1.647149682E0,5.424323678E-1,8.683193922E-1
8.947598862E0,-1.725338101E0,1.856975704E-1,8.011261821E-1
8.957313497E0,-1.852394342E0,1.954711229E-1,4.480564594E-1
8.967027247E0,-1.904927135E0,2.736595869E-1,3.863608837E-2
8.976740268E0,-1.572626233E0,2.672456764E-2,-2.619007528E-1
8.986454070E0,-9.947647452E-1,4.993676394E-2,-5.636593103E-1
8.996168653E0,-5.085303187E-1,3.445178568E-1,-8.043331504E-1
9.005882403E0,-2.018850148E-1,4.898995161E-1,-8.666395545E-1
9.015595424E0,2.412846684E-2,2.736595869E-1,-7.371399403E-1
9.025309226E0,2.073826492E-1,-3.069507517E-2,-4.683671296E-1
9.035023862E0,3.527642787E-1,-2.762556672E-1,-1.421747059E-1
9.044737612E0,4.529432356E-1,-5.425850749E-1,1.265980899E-1
9.054450580E0,5.628957748E-1,-6.928535104E-1,2.880144715E-1
9.064164383E0,7.485933304E-1,-5.731274486E-1,3.943018913E-1
9.073879018E0,9.843803644E-1,-2.750339806E-1,4.834856093E-1
9.083592768E0,1.255749226E0,1.572931744E-2,5.347967744E-1
9.093305789E0,1.596602082E0,3.042019308E-1,5.470137000E-1
9.103019591E0,2.015643358E0,5.815265775E-1,5.543438792E-1
9.112734226E0,2.472557068E0,8.295305967E-1,5.470137000E-1
9.122447924E0,2.927027464E0,9.565867782E-1,5.555655956E-1
9.132160945E0,3.300865889E0,9.785773158E-1,5.799994469E-1
9.141874747E0,3.508553982E0,9.321529269E-1,6.178719997E-1
9.151589383E0,3.500002146E0,7.794411182E-1,6.484143734E-1
9.161303133E0,3.283762217E0,5.265503526E-1,5.873296261E-1
9.171016101E0,2.934357405E0,2.309002578E-1,4.138490260E-1
9.180729903E0,2.532419920E0,-7.834116369E-2,1.608055383E-1
9.190444539E0,2.174463511E0,-3.495573401E-1,-8.597674966E-2
9.200158289E0,1.908134103E0,-5.743491650E-1,-2.704526186E-1
9.209871310E0,1.690672517E0,-6.769714952E-1,-3.987305462E-1
9.219585112E0,1.473210931E0,-6.390989423E-1,-4.573718905E-1
9.229299747E0,1.260635972E0,-4.839437306E-1,-4.573718905E-1
9.239013497E0,1.040578246E0,-3.239017725E-1,-4.219427407E-1
9.248726466E0,8.060129285E-1,-2.725905776E-1,-3.596363366E-1
9.258440268E0,5.738909841E-1,-3.593308926E-1,-2.606790662E-1
9.268154903E0,3.600944579E-1,-5.804576278E-1,-1.104106456E-1
9.277868653E0,1.572931707E-1,-8.614473343E-1,7.162184268E-2
9.287581674E0,-4.428642616E-2,-1.092347622E0,2.585411072E-1
9.297295424E0,-2.385358512E-1,-1.177866220E0,4.443913698E-1
9.307010060E0,-4.010212123E-1,-1.047144890E0,6.068767309E-1
9.316723810E0,-5.231906772E-1,-7.124006152E-1,7.302678823E-1
9.326436830E0,-6.416950226E-1,-2.444916219E-1,8.145648241E-1
9.336150633E0,-7.675296068E-1,2.272351831E-1,8.255600929E-1
9.345865268E0,-8.518264890E-1,5.778614879E-1,7.131641507E-1
9.355579018E0,-8.725953102E-1,7.330167294E-1,4.700469673E-1
9.365292039E0,-8.286142945E-1,7.024743557E-1,1.522536725E-1
9.375005789E0,-7.455390692E-1,6.193991303E-1,-1.592784226E-1
9.384720424E0,-6.575770974E-1,6.145123243E-1,-4.317162931E-1
9.394434174E0,-5.891621709E-1,7.195780873E-1,-6.638382673E-1
9.404147195E0,-5.439594984E-1,8.466343284E-1,-8.324320912E-1
9.413860997E0,-5.366293192E-1,8.698465228E-1,-9.240592122E-1
9.423575633E0,-5.867187977E-1,7.391251922E-1,-9.570449591E-1
9.433289383E0,-6.954495907E-1,4.275930822E-1,-9.167290330E-1
9.443002351E0,-8.921424150E-1,-2.702999115E-2,-7.750124335E-1
9.452716153E0,-1.186570764E0,-4.912739098E-1,-6.064186096E-1
9.462430789E0,-1.542083859E0,-9.359707236E-1,-4.647020400E-1
9.472144539E0,-1.923252583E0,-1.379445791E0,-3.999522328E-1
9.481857560E0,-2.257996798E0,-1.668987393E0,-4.341596961E-1
9.491571362E0,-2.452246428E0,-1.587133884E0,-4.781406820E-1
9.501285997E0,-2.630613804E0,-1.165649295E0,-4.683671296E-1
9.510999747E0,-2.911603451E0,-5.963396430E-1,-3.229855001E-1
9.520712768E0,-3.094857693E0,-1.821851879E-1,-1.145338640E-2
9.530426570E0,-3.264673233E0,1.759240031E-1,4.553866386E-1
9.540141205E0,-3.248791218E0,5.228852630E-1,9.575030804E-1
9.549854903E0,-2.912825108E0,6.780404449E-1,1.453511000E0
9.559567924E0,-2.578080893E0,1.225359559E0,1.677081108E0
9.569281726E0,-2.299534559E0,1.315765023E0,1.602557778E0
9.578996362E0,-1.919587493E0,7.452336550E-1,1.228719234E0
9.588710112E0,-1.445569992E0,4.862344265E-1,6.068767309E-1
9.598423133E0,-1.031415582E0,6.474980712E-1,1.265980899E-1
9.608136935E0,-7.626428008E-1,9.101623893E-1,-1.018587798E-1
9.617851570E0,-5.659499764E-1,1.031110168E0,-2.680092454E-1
9.627565320E0,-4.474456310E-1,7.354601026E-1,-4.304946065E-1
9.637278341E0,-4.486673176E-1,5.360184610E-2,-4.805840850E-1
9.646992091E0,-4.767662883E-1,-6.940752268E-1,-3.755183518E-1
9.656706778E0,-4.107947946E-1,-1.246281147E0,-1.653869003E-1
9.666420476E0,-2.116585821E-1,-1.458855987E0,2.153236605E-2
9.676133497E0,1.157555580E-1,-1.417318344E0,1.559187621E-1
9.685847299E0,5.421269536E-1,-1.269493341E0,2.609844804E-1
9.695561935E0,1.005149126E0,-9.469659925E-1,3.796415627E-1
9.705275685E0,1.471989155E0,-4.472928941E-1,5.470137000E-1
9.714988705E0,1.955780268E0,1.256818175E-1,6.997255087E-1
9.724702508E0,2.377264738E0,6.328377724E-1,7.889092565E-1
9.734417143E0,2.704679012E0,9.309312105E-1,7.925743461E-1
9.744130893E0,2.972229958E0,9.871291518E-1,7.327113152E-1
9.753843862E0,3.167701244E0,9.688037634E-1,6.300889254E-1
9.763557664E0,3.288648844E0,9.773555994E-1,5.189147592E-1
9.773272299E0,3.325299740E0,1.010341406E0,4.114056230E-1
9.782986049E0,3.253219843E0,1.071426034E0,2.512109280E-1
9.792699070E0,3.041866541E0,1.009119630E0,1.009425074E-1
9.802412872E0,2.742551565E0,7.085828185E-1,2.519745007E-2
9.812127508E0,2.435906172E0,2.883199155E-1,-1.756185852E-2
9.821841258E0,2.134147644E0,-1.491994411E-1,-4.443913698E-2
9.831554278E0,1.867818236E0,-5.548020005E-1,-5.909947306E-2
9.841268080E0,1.652799964E0,-9.139801860E-1,-9.330692142E-2
9.850982716E0,1.452442050E0,-1.197413325E0,-1.507265568E-1
9.860696466E0,1.211768270E0,-1.353790283E0,-2.435753495E-1
9.870409435E0,9.196305275E-1,-1.325691223E0,-3.791834414E-1
9.880123237E0,5.971031785E-1,-1.056918502E0,-5.221216679E-1
9.889837924E0,3.185568452E-1,-6.097782850E-1,-6.442911625E-1
9.899551622E0,1.548497826E-1,-1.675248593E-1,-7.102626562E-1
9.909264643E0,8.399149776E-2,1.527118087E-1,-7.078192830E-1
9.918978445E0,2.168507688E-2,3.542914093E-1,-6.332958937E-1
9.928693080E0,-8.582404256E-2,4.776825607E-1,-4.744756222E-1
9.938406830E0,-2.006633282E-1,4.446968138E-1,-2.411319613E-1
9.948119851E0,-2.641914487E-1,2.626643181E-1,-4.199574888E-2
9.957833653E0,-3.350497186E-1,9.620844387E-3,9.361234307E-2
9.967547560E0,-4.718795121E-1,-2.249445021E-1,1.718007922E-1
9.977262091E0,-6.551336646E-1,-3.678827584E-1,2.060082406E-1
9.986975060E0,-8.493831158E-1,-4.155288339E-1,2.157817930E-1
9.996688810E0,-1.042410851E0,-4.069769979E-1,2.060082406E-1
1.000640344E1,-1.218334913E0,-3.996468186E-1,1.534753740E-1
1.001611725E1,-1.351499557E0,-4.155288339E-1,4.474456236E-2
1.002583022E1,-1.427244663E0,-4.546230733E-1,-1.043021679E-1
1.003554402E1,-1.452900171E0,-4.863871336E-1,-2.594573796E-1
1.004525865E1,-1.437018156E0,-4.680617154E-1,-3.877353072E-1
1.005497240E1,-1.401589036E0,-3.788780272E-1,-4.647020400E-1
1.006468542E1,-1.368603230E0,-2.542651594E-1,-4.659237564E-1
1.007439923E1,-1.371046662E0,-1.907370538E-1,-3.816268146E-1
1.008411386E1,-1.418692708E0,-2.909159958E-1,-2.423536479E-1
1.009382761E1,-1.495659471E0,-5.804576278E-1,-9.819369763E-2
1.010354063E1,-1.555522561E0,-9.726215601E-1,1.908897609E-2
1.011325444E1,-1.524980187E0,-1.326912999E0,9.605573118E-2
1.012296907E1,-1.388150454E0,-1.556591511E0,1.265980899E-1
1.013268277E1,-1.214669824E0,-1.502836943E0,9.116895497E-2
1.014239579E1,-1.124264359E0,-1.034927964E0,1.053711493E-2
1.015210959E1,-1.284306407E0,-1.650814712E-1,2.153236605E-2
1.016182423E1,-1.841399074E0,1.167939901E0,9.483403713E-2
1.017153798E1,-2.554868698E0,2.695058107E0,1.400367320E-1
1.018125100E1,-2.685590029E0,3.577121496E0,2.414373755E-1
1.019096480E1,-2.097954988E0,3.068896532E0,3.808632791E-1
1.020067944E1,-1.393037200E0,1.656617761E0,3.332171738E-1
1.021039319E1,-1.026528835E0,2.577775419E-1,2.243336588E-1
1.022010620E1,-1.148698330E0,-4.314108789E-1,1.175880991E-2
1.022981996E1,-1.626380801E0,-3.226800561E-1,-3.022166789E-1
1.023953464E1,-1.922030926E0,-1.675248593E-1,-5.489989519E-1
1.024924834E1,-1.832847238E0,-3.703261614E-1,-7.823426127E-1
1.025896136E1,-1.538418770E0,-6.635328531E-1,-9.863656163E-1
1.026867516E1,-1.228108406E0,-8.699992299E-1,-9.827005267E-1
1.027838980E1,-1.015533566E0,-7.759287357E-1,-7.285880446E-1
1.028810355E1,-7.724163532E-1,-3.422271907E-1,-3.413109183E-1
1.029781657E1,-2.849602401E-1,5.360184610E-2,5.940489471E-2
1.030753037E1,3.710896969E-1,2.076880634E-1,3.796415627E-1
1.031724501E1,9.428427219E-1,2.015796006E-1,5.396835804E-1
1.032695876E1,1.314390540E0,1.134648770E-1,5.677825212E-1
1.033667178E1,1.520856977E0,8.399149403E-3,5.115845799E-1
1.034638553E1,1.658908486E0,-5.879404768E-2,4.114056230E-1
1.035610016E1,1.871483326E0,-1.125486046E-1,3.283303976E-1
1.036581397E1,2.200119019E0,-8.200624585E-2,2.745758295E-1
1.037552694E1,2.592283010E0,7.437065244E-2,2.512109280E-1
1.038524074E1,2.946574450E0,2.406738251E-1,2.880144715E-1
1.039495537E1,3.173809528E0,3.151971996E-1,3.808632791E-1
1.040466912E1,3.267880201E0,2.504473627E-1,4.834856093E-1
1.041438214E1,3.254441500E0,1.673721522E-1,5.567872524E-1
1.042409595E1,3.194578409E0,1.563768983E-1,5.763344169E-1
1.043381058E1,3.148154020E0,1.856975704E-1,5.347967744E-1
1.044352433E1,3.099286318E0,2.113531530E-1,4.480564594E-1
1.045323730E1,3.000329018E0,2.357870489E-1,3.051182032E-1
1.046295110E1,2.785310745E0,2.467822880E-1,1.803526580E-1
1.047266574E1,2.446901321E0,1.856975704E-1,1.180462316E-1
1.048237949E1,2.063289404E0,-6.261184346E-3,6.062658876E-2
1.049209251E1,1.707776189E0,-3.165715933E-1,-1.267508045E-2
1.050180631E1,1.398687482E0,-6.476507783E-1,-8.597674966E-2
1.051152095E1,1.113879919E0,-8.797727823E-1,-1.433963925E-1
1.052123470E1,8.499939442E-1,-9.542961121E-1,-2.362451702E-1
1.053094772E1,6.252021790E-1,-8.602256775E-1,-3.730749488E-1
1.054066147E1,5.005893111E-1,-6.671979427E-1,-5.367820263E-1
1.055037615E1,5.286883116E-1,-4.265241027E-1,-6.772769094E-1
1.056008985E1,6.337540150E-1,-1.785201132E-1,-7.310314775E-1
1.056980287E1,6.520794630E-1,5.726693198E-2,-6.565080881E-1
1.057951667E1,4.578300118E-1,2.528907657E-1,-4.451549351E-1
1.058923131E1,1.230857223E-1,3.213056624E-1,-1.751604527E-1
1.059894506E1,-1.579040140E-1,2.382304370E-1,3.252761811E-2
1.060865808E1,-3.423798978E-1,7.803573459E-2,1.522536725E-1
1.061837188E1,-4.865398407E-1,-1.406475753E-1,2.157817930E-1
1.062808652E1,-6.001574397E-1,-3.214583695E-1,2.548760176E-1
1.063780022E1,-6.856760383E-1,-3.642176688E-1,2.880144715E-1
1.064751324E1,-7.565343380E-1,-2.567085624E-1,3.148917556E-1
1.065722704E1,-8.322793841E-1,-8.078455180E-2,3.051182032E-1
1.066694167E1,-9.300149679E-1,6.337540597E-2,2.341072112E-1
1.067665542E1,-1.055849433E0,1.183516532E-1,1.339282542E-1
1.068636845E1,-1.200009465E0,5.604523420E-2,3.008422814E-2
1.069608225E1,-1.331952453E0,-9.544488788E-2,-7.253811508E-2
1.070579688E1,-1.428466320E0,-2.554868758E-1,-1.531699449E-1
1.071551063E1,-1.493216157E0,-3.874298632E-1,-1.837123185E-1
1.072522360E1,-1.548192382E0,-4.460712075E-1,-1.812689304E-1
1.073493740E1,-1.615385532E0,-4.350759685E-1,-1.763821393E-1
1.074465204E1,-1.704569221E0,-3.532224298E-1,-1.666085869E-1
1.075436579E1,-1.862167835E0,-1.333174109E-1,-1.739387512E-1
1.076407881E1,-2.067412615E0,2.076880634E-1,-1.934858710E-1
1.077379261E1,-2.301977873E0,5.815265775E-1,-1.934858710E-1
1.078350725E1,-2.590297699E0,9.382613897E-1,-1.299577504E-1
1.079322100E1,-2.883504391E0,1.290109396E0,-5.299099907E-2
1.080293402E1,-2.937258959E0,1.430604339E0,6.429167092E-2
1.081264777E1,-2.564642191E0,1.365854502E0,2.145601064E-1
1.082236246E1,-1.898818731E0,1.249793530E0,3.173351586E-1
1.083207615E1,-1.195122719E0,8.893936276E-1,4.065188468E-1
1.084178917E1,-7.027797699E-1,4.202629030E-1,4.272876680E-1
1.085150298E1,-5.402944088E-1,-1.223221645E-1,3.478775024E-1
1.086121761E1,-6.062659025E-1,-7.099572420E-1,2.121167034E-1
1.087093136E1,-6.832326651E-1,-1.234064221E0,2.764083818E-2
1.088064438E1,-7.064448595E-1,-1.490620017E0,-2.582356930E-1
1.089035818E1,-6.416950226E-1,-1.496728539E0,-5.832064152E-1
1.090007282E1,-4.095730782E-1,-1.271936655E0,-7.823426127E-1
1.090978657E1,-5.192201585E-3,-8.223531246E-1,-7.627955079E-1
1.091949959E1,4.859289825E-1,-1.797417998E-1,-6.137487888E-1
1.092921339E1,9.819369912E-1,5.778614879E-1,-4.011739492E-1
1.093892803E1,1.399909258E0,1.153279662E0,-1.104106456E-1
1.094864178E1,1.662573576E0,1.346307397E0,2.157817930E-1
1.095835475E1,1.774969459E0,1.240019917E0,5.079194903E-1
1.096806855E1,1.876370072E0,1.071426034E0,6.740699410E-1
1.097778318E1,2.081614733E0,9.565867782E-1,7.278245091E-1
1.098749694E1,2.357717752E0,9.443698525E-1,7.314895988E-1
1.099720996E1,2.621603727E0,1.005454540E0,7.119424939E-1
1.100692376E1,2.831735134E0,1.043327093E0,6.789567471E-1
1.101663839E1,2.951461315E0,9.969027042E-1,6.520794630E-1
1.102635214E1,2.956347942E0,8.099834919E-1,6.459710002E-1
1.103606516E1,2.837843657E0,5.021164417E-1,6.264238358E-1
1.104577897E1,2.591061354E0,1.404948682E-1,5.494571328E-1
1.105549360E1,2.222109556E0,-2.713688910E-1,4.541649222E-1
1.106520735E1,1.804290056E0,-6.476507783E-1,3.283303976E-1
1.107492037E1,1.440225124E0,-9.396358132E-1,1.546970755E-1
1.108463417E1,1.167634487E0,-1.115559816E0,-2.977880463E-2
1.109434881E1,9.636115432E-1,-1.181531310E0,-1.971509457E-1
1.110406256E1,7.889092565E-1,-1.122889996E0,-3.486410677E-1
1.111377558E1,6.007682681E-1,-9.445225596E-1,-4.854708612E-1
1.112348938E1,3.857500553E-1,-7.038487792E-1,-5.868715048E-1
1.113320402E1,2.122694254E-1,-4.204156399E-1,-6.516213417E-1
1.114291777E1,1.646233350E-1,-1.491994411E-1,-6.772769094E-1
1.115263079E1,1.902789176E-1,8.903098851E-2,-6.174138784E-1
1.116234459E1,1.414111406E-1,2.455606014E-1,-4.695888162E-1
1.117205923E1,-5.650337040E-2,2.455606014E-1,-2.484621257E-1
1.118177298E1,-3.326063454E-1,7.437065244E-2,-2.367033064E-2
1.119148600E1,-5.818319917E-1,-1.589729935E-1,1.363716573E-1
1.120119980E1,-7.565343380E-1,-3.776563108E-1,2.292204350E-1
1.121091444E1,-8.298360109E-1,-4.888305068E-1,2.867927849E-1
1.122062818E1,-8.200624585E-1,-4.399627447E-1,3.197785318E-1
1.123034120E1,-7.687512636E-1,-2.664821148E-1,3.271087110E-1
1.124005501E1,-7.137750387E-1,-7.589777559E-2,3.161134422E-1
1.124976964E1,-6.966713071E-1,5.360184610E-2,2.806843221E-1
1.125948339E1,-7.394306064E-1,9.636115283E-2,2.243336588E-1
1.126919641E1,-8.347227573E-1,7.192726433E-2,1.620272398E-1
1.127891022E1,-9.581139088E-1,1.206423342E-2,1.156028435E-1
1.128862485E1,-1.083948493E0,-3.924693540E-2,7.528692484E-2
1.129833860E1,-1.180462360E0,-6.734590977E-2,3.206948051E-3
1.130805162E1,-1.250098944E0,-9.177979827E-2,-1.079672500E-1
1.131776542E1,-1.297744989E0,-1.247655526E-1,-2.655658424E-1
1.132748006E1,-1.316070437E0,-1.540862173E-1,-4.537068009E-1
1.133719381E1,-1.294079900E0,-1.528645307E-1,-6.296308041E-1
1.134690683E1,-1.280641317E0,-8.200624585E-2,-7.334748507E-1
1.135662063E1,-1.374711752E0,3.649812192E-2,-7.566870451E-1
1.136633527E1,-1.642262816E0,1.527118087E-1,-7.273663878E-1
1.137604902E1,-2.050308943E0,1.368297935E-1,-5.880932212E-1
1.138576204E1,-2.343515396E0,-1.528645307E-1,-3.486410677E-1
1.139547584E1,-2.535321474E0,-6.012263894E-1,-2.000524849E-2
1.140519053E1,-2.789433956E0,-6.109999418E-1,3.319954872E-1
1.141490428E1,-2.772330284E0,-6.207735538E-1,7.449282408E-1
1.142461730E1,-2.692920208E0,-2.432699203E-1,1.099219680E0
1.143433110E1,-2.496227264E0,8.417475224E-1,1.174964666E0
1.144404574E1,-1.791309595E0,1.230246425E0,9.294040799E-1
1.145375949E1,-1.130372882E0,8.112051487E-1,4.089622498E-1
1.146347251E1,-1.107160687E0,1.527118087E-1,-4.443913698E-2
1.147318631E1,-1.513984919E0,-4.191939235E-1,-3.547495604E-1
1.148290094E1,-1.610498786E0,-8.504521251E-1,-6.882721782E-1
1.149261470E1,-1.250098944E0,-9.933903813E-1,-9.289459586E-1
1.150232772E1,-7.235485911E-1,-9.042066336E-1,-9.851438999E-1
1.151204162E1,-1.579040140E-1,-6.598677635E-1,-8.922951221E-1
1.152175620E1,3.674246371E-1,-3.129065037E-1,-6.736118197E-1
1.153146996E1,7.937960029E-1,-2.596100792E-3,-3.571929336E-1
1.154118298E1,1.152974248E0,2.516690791E-1,-6.566607859E-3
1.155089678E1,1.475654244E0,4.104893506E-1,3.332171738E-1
1.156061141E1,1.719993114E0,4.337015450E-1,6.361974478E-1
1.157032516E1,1.881256819E0,4.019374847E-1,8.707627654E-1
1.158003819E1,2.004647970E0,3.494046330E-1,9.794935584E-1
1.158975209E1,2.176906824E0,2.919849753E-1,9.318475127E-1
1.159946667E1,2.398033619E0,2.907632887E-1,7.656970620E-1
1.160918042E1,2.621603727E0,3.921639323E-1,5.360184908E-1
1.161889345E1,2.780424118E0,5.473191738E-1,3.136700690E-1
1.162860725E1,2.834178686E0,7.146912813E-1,1.180462316E-1
1.163832194E1,2.797527790E0,8.319739699E-1,-3.588727489E-2
1.164803568E1,2.649702787E0,7.660024762E-1,-1.140757278E-1
1.165774871E1,2.391925097E0,5.302154422E-1,-1.324011385E-1
1.166746251E1,2.092609882E0,1.673721522E-1,-1.275143623E-1
1.167717714E1,1.842162609E0,-2.176143378E-1,-1.152974218E-1
1.168689089E1,1.672347069E0,-5.108210444E-1,-1.165191159E-1
1.169660391E1,1.550177574E0,-6.390989423E-1,-1.385096163E-1
1.170631782E1,1.432894945E0,-6.109999418E-1,-1.861557066E-1
1.171603240E1,1.276518106E0,-4.924955964E-1,-2.533488870E-1
1.172574615E1,1.049130201E0,-3.226800561E-1,-3.205420971E-1
1.173545917E1,7.534800768E-1,-5.390727147E-2,-3.608580232E-1
1.174517298E1,4.456130862E-1,2.858765125E-1,-3.449759781E-1
1.175488766E1,1.805053651E-1,5.766398311E-1,-2.814478874E-1
1.176460141E1,-3.970507067E-3,7.000309825E-1,-2.057028115E-1
1.177431444E1,-1.261399537E-1,5.998520255E-1,-1.067455560E-1
1.178402824E1,-2.116585821E-1,3.115321100E-1,8.093725890E-3
1.179374292E1,-2.788517773E-1,-7.482878864E-3,9.239064902E-2
1.180345667E1,-3.497100472E-1,-2.396048307E-1,1.498102844E-1
1.181316970E1,-4.303418994E-1,-3.862081766E-1,1.840177327E-1
1.182288350E1,-5.048652887E-1,-4.656183124E-1,2.011214644E-1
1.183259818E1,-5.732801557E-1,-4.949389994E-1,2.133384049E-1
1.184231194E1,-6.441384554E-1,-4.827220440E-1,2.194468826E-1
1.185202496E1,-7.162184119E-1,-4.326325655E-1,2.060082406E-1
1.186173876E1,-7.907418013E-1,-3.324536085E-1,1.718007922E-1
1.187145344E1,-8.664868474E-1,-2.127275616E-1,1.046075895E-1
1.188116720E1,-9.336800575E-1,-1.113269106E-1,1.175880991E-2
1.189088022E1,-9.691091776E-1,-3.558185324E-2,-7.253811508E-2
1.190059402E1,-9.691091776E-1,1.206423342E-2,-1.275143623E-1
1.191030870E1,-9.593356252E-1,3.038965166E-2,-1.702736765E-1
1.192002246E1,-9.642223716E-1,-6.261184346E-3,-2.093679011E-1
1.192973548E1,-9.678874612E-1,-8.811471611E-2,-2.435753495E-1
1.193944928E1,-9.556705356E-1,-1.430909634E-1,-2.948864996E-1
1.194916397E1,-9.483403563E-1,-1.528645307E-1,-3.852919042E-1
1.195887772E1,-9.642223716E-1,-1.333174109E-1,-4.879142344E-1
1.196859074E1,-1.009425044E0,-6.734590977E-2,-5.819846988E-1
1.197830464E1,-1.141368151E0,4.871506989E-2,-6.516213417E-1
1.198801923E1,-1.364938259E0,1.905843467E-1,-6.870504618E-1
1.199773298E1,-1.652036428E0,2.052446753E-1,-6.797202826E-1
1.200744605E1,-1.911035657E0,-1.540862173E-1,-6.296308041E-1
1.201715985E1,-2.061304092E0,-3.520007432E-1,-4.524851143E-1
1.202687449E1,-1.998997688E0,-1.236965694E-2,-1.666085869E-1
1.203658829E1,-1.733889937E0,-3.817795310E-3,2.084516287E-1
1.204630131E1,-1.476112366E0,-2.444916219E-1,5.934380889E-1
1.205601511E1,-1.583621502E0,2.492256761E-1,8.304468393E-1
1.206572980E1,-1.704569221E0,6.694886088E-1,8.609892130E-1
1.207544355E1,-1.553079128E0,5.265503526E-1,6.080984473E-1
1.208515657E1,-1.279419541E0,1.673721522E-1,1.718007922E-1
1.209487048E1,-1.080283403E0,-1.772984117E-1,-2.728960216E-1
1.210458506E1,-8.896990418E-1,-5.877877474E-1,-6.003101468E-1
1.211429886E1,-7.027797699E-1,-9.066500664E-1,-7.896727920E-1
1.212401188E1,-5.610632300E-1,-9.946120381E-1,-8.299887180E-1
1.213372568E1,-4.022429287E-1,-9.616262913E-1,-6.956022978E-1
1.214344037E1,-1.310267299E-1,-9.494093657E-1,-4.366030693E-1
1.215315412E1,2.195995897E-1,-9.457442760E-1,-1.311794519E-1
1.216286714E1,5.445703268E-1,-7.893673778E-1,1.412584335E-1
1.217258105E1,8.328902125E-1,-5.609105229E-1,3.368822634E-1
1.218229563E1,1.146865726E0,-2.603736520E-1,4.614951015E-1
1.219200944E1,1.514748454E0,1.000262350E-1,5.225798488E-1
1.220172246E1,1.827502251E0,4.422534108E-1,5.567872524E-1
1.221143626E1,1.994874477E0,6.829272509E-1,5.653391480E-1
1.222115095E1,2.064511061E0,7.598940134E-1,5.274665952E-1
1.223086470E1,2.080393076E0,7.159129977E-1,4.724903405E-1
1.224057772E1,2.071841240E0,6.377245188E-1,4.199574888E-1
1.225029162E1,2.081614733E0,5.815265775E-1,3.515425920E-1
1.226000621E1,2.152472973E0,5.155550838E-1,2.414373755E-1
1.226972001E1,2.220887899E0,3.811686933E-1,1.534753740E-1
1.227943303E1,2.202562571E0,2.125748396E-1,1.241547018E-1
1.228914683E1,2.057180882E0,4.504998401E-2,1.485885978E-1
1.229886152E1,1.789629698E0,-2.115058601E-1,2.011214644E-1
1.230857532E1,1.458550572E0,-5.340332389E-1,2.243336588E-1
1.231828834E1,1.163969398E0,-8.052493930E-1,1.681357026E-1
1.232800214E1,9.697200060E-1,-9.090934396E-1,1.664558798E-2
1.233771683E1,9.037485123E-1,-8.150229454E-1,-1.959292591E-1
1.234743058E1,9.318475127E-1,-5.951179266E-1,-4.133908749E-1
1.235714365E1,9.868237376E-1,-3.226800561E-1,-5.856497884E-1
1.236685746E1,1.000262380E0,-6.368082762E-2,-7.017107606E-1
1.237657214E1,9.697200060E-1,1.049130186E-1,-7.237012982E-1
1.238628589E1,9.245173335E-1,1.979145110E-1,-6.161921620E-1
1.239599891E1,8.499939442E-1,2.431172132E-1,-3.962871730E-1
1.240571282E1,7.363763452E-1,1.624853760E-1,-1.360662282E-1
1.241542740E1,5.775560737E-1,-6.612421572E-2,1.131594554E-1
1.242514121E1,3.466558158E-1,-3.605526090E-1,3.148917556E-1
1.243485423E1,5.589252338E-2,-6.342121959E-1,4.504998624E-1
1.244456813E1,-1.921114624E-1,-8.504521251E-1,4.944808483E-1
1.245428272E1,-3.436015844E-1,-9.506310225E-1,4.566083252E-1
1.246399652E1,-4.071297050E-1,-9.286405444E-1,3.735330999E-1
1.247370954E1,-4.169032574E-1,-7.979192138E-1,2.892361879E-1
1.248342345E1,-3.949127495E-1,-5.987830162E-1,2.292204350E-1
1.249313803E1,-3.680354655E-1,-3.764346242E-1,2.145601064E-1
1.250285183E1,-3.497100472E-1,-1.553079188E-1,2.353289127E-1
1.251256485E1,-3.411581814E-1,4.749337584E-2,2.512109280E-1
1.252227865E1,-3.313846290E-1,1.905843467E-1,2.487675399E-1
1.253199334E1,-3.301629424E-1,2.357870489E-1,2.157817930E-1
1.254170714E1,-3.545968235E-1,1.966928244E-1,1.437018216E-1
1.255142016E1,-4.205683470E-1,1.061347127E-1,4.963133857E-2
1.256113397E1,-5.451811552E-1,5.955760833E-3,-3.833066672E-2
1.257084865E1,-7.589777112E-1,-1.186570823E-1,-1.250709742E-1
1.258056246E1,-1.038745761E0,-2.506000996E-1,-2.423536479E-1
1.259027548E1,-1.344169378E0,-4.033119082E-1,-3.083251417E-1
1.259998928E1,-1.649592996E0,-5.914528370E-1,-3.022166789E-1
1.260970397E1,-1.923252583E0,-7.270609736E-1,-2.936648130E-1
1.261941777E1,-2.135827541E0,-7.637118101E-1,-2.826695740E-1
1.262913079E1,-2.279987335E0,-6.195518374E-1,-2.374668717E-1
1.263884459E1,-2.380166292E0,-3.752129376E-1,-1.727170646E-1
1.264855928E1,-2.403378487E0,-3.019112647E-1,-1.385096163E-1
1.265827308E1,-2.332520247E0,-4.509579837E-1,-8.475505561E-2
1.266798610E1,-2.216459274E0,-6.855233312E-1,6.184828654E-2
1.267769990E1,-2.003884315E0,-1.114338160E0,2.953446507E-1
1.268741459E1,-1.904927135E0,-1.285375357E0,5.738909841E-1
1.269712839E1,-2.297091007E0,-6.952968836E-1,8.243383765E-1
1.270684141E1,-2.722240925E0,-3.191677108E-2,1.007592559E0
1.271655532E1,-2.636722088E0,2.333436459E-1,9.782719016E-1
1.272626990E1,-2.080851078E0,3.689517379E-1,7.229377031E-1
1.273598370E1,-1.462673783E0,4.984513521E-1,4.114056230E-1
1.274569673E1,-9.996515512E-1,5.534276366E-1,1.363716573E-1
1.275541063E1,-6.832326651E-1,5.583143830E-1,-5.665608495E-2
1.276512522E1,-4.291202128E-1,4.825693369E-1,-1.238492802E-1
1.277483902E1,-1.432436854E-1,4.117110670E-1,-8.108997345E-2
1.278455204E1,2.318165302E-1,3.274141252E-1,3.206948051E-3
1.279426595E1,5.909947157E-1,2.015796006E-1,8.383878320E-2
1.280398058E1,7.913526297E-1,1.256818175E-1,1.339282542E-1
1.281369433E1,9.306257963E-1,1.122431830E-1,1.143811494E-1
1.282340740E1,1.102884769E0,9.269607067E-2,4.596625641E-2
1.283312121E1,1.307060480E0,9.147437662E-2,-3.100049868E-2
1.284283589E1,1.528187156E0,1.305686086E-1,-7.620319724E-2
1.285254970E1,1.699224353E0,2.272351831E-1,-7.742489129E-2
1.286226272E1,1.798181653E0,3.836120665E-1,-4.566083103E-2
1.287197652E1,1.891030431E0,5.534276366E-1,-1.679830020E-3
1.288169121E1,2.040077209E0,6.560499668E-1,4.107947648E-2
1.289140501E1,2.206227541E0,6.670452356E-1,8.017370105E-2
1.290111803E1,2.308849812E0,5.864133835E-1,1.033858955E-1
1.291083194E1,2.312515020E0,3.713951409E-1,9.605573118E-2
1.292054652E1,2.240435123E0,5.971032009E-2,5.818320066E-2
1.293026032E1,2.128039122E0,-2.567085624E-1,-2.244863659E-2
1.293997334E1,2.009534836E0,-5.364766121E-1,-1.421747059E-1
1.294968725E1,1.900803924E0,-7.356128097E-1,-2.741177082E-1
1.295940188E1,1.799403310E0,-8.003626466E-1,-3.694098890E-1
1.296911563E1,1.702889442E0,-7.124006152E-1,-4.133908749E-1
1.297882871E1,1.579498291E0,-5.022691488E-1,-4.182776511E-1
1.298854251E1,1.420678020E0,-2.554868758E-1,-4.109475017E-1
1.299825720E1,1.227650285E0,-3.558185324E-2,-4.182776511E-1
1.300797094E1,1.017366052E0,1.146865711E-1,-4.537068009E-1
1.301768402E1,8.072346449E-1,1.771457046E-1,-5.013529062E-1
1.302739792E1,6.032116413E-1,1.820324808E-1,-5.270084739E-1
1.303711251E1,3.967452943E-1,1.856975704E-1,-4.928010404E-1
1.304682631E1,1.878355294E-1,2.675510943E-1,-3.901786804E-1
1.305653933E1,2.168507688E-2,3.579564989E-1,-2.142546773E-1
1.306625324E1,-8.460234851E-2,3.677300513E-1,-2.611372061E-2
1.307596787E1,-1.053711548E-1,3.164188862E-1,8.750387281E-2
1.308568162E1,-6.016845629E-2,2.284568697E-1,1.363716573E-1
1.309539470E1,-1.527118147E-3,9.636115283E-2,1.644706279E-1
1.310510850E1,2.290677279E-2,-3.680354729E-2,1.718007922E-1
1.311482318E1,-3.084778599E-2,-1.027750522E-1,1.656923145E-1
1.312453699E1,-1.896680743E-1,-1.003316641E-1,1.608055383E-1
1.313425001E1,-4.242334068E-1,-5.024218559E-2,1.559187621E-1
1.314396391E1,-6.832326651E-1,3.283303976E-2,1.485885978E-1
1.315367850E1,-9.226847887E-1,9.513945878E-2,1.363716573E-1
1.316339230E1,-1.112047434E0,8.170082420E-2,1.046075895E-1
1.317310532E1,-1.237882018E0,-9.926267900E-3,5.451811850E-2
1.318281923E1,-1.301410079E0,-1.149920002E-1,-1.023169141E-2
1.319253386E1,-1.316070437E0,-1.797417998E-1,-8.231166750E-2
1.320224761E1,-1.294079900E0,-1.797417998E-1,-1.666085869E-1
1.321196069E1,-1.262315869E0,-1.198787764E-1,-2.447970361E-1
1.322167449E1,-1.247655511E0,-8.322793990E-2,-2.826695740E-1
1.323138917E1,-1.256207347E0,-9.422318637E-2,-2.521272004E-1
1.324110298E1,-1.328287363E0,-1.687465608E-1,-1.653869003E-1
1.325081600E1,-1.516428351E0,-1.858502775E-1,-4.199574888E-2
1.326052990E1,-1.919587493E0,-3.313846514E-2,1.168245375E-1
1.327024454E1,-2.673372984E0,2.284568697E-1,2.782409191E-1
1.327995829E1,-3.513898849E0,3.518480062E-1,4.077405334E-1
1.328967136E1,-3.827874422E0,1.783674061E-1,5.409052372E-1
1.329938516E1,-3.507790327E0,3.164188862E-1,7.901309133E-1
1.330909985E1,-2.808981180E0,1.045770526E0,1.038134933E0
1.331881365E1,-2.060082436E0,1.633405566E0,1.209172130E0
1.332852667E1,-1.334395885E0,1.754353285E0,1.254374862E0
1.333824058E1,-7.626428008E-1,1.690825224E0,1.068677306E0
1.334795522E1,-7.308787704E-1,1.507570982E0,7.363763452E-1
1.335766897E1,-1.071731567E0,8.991671801E-1,3.943018913E-1
1.336738204E1,-1.184127450E0,6.581879407E-2,-4.077405483E-2
1.337709584E1,-9.177979827E-1,-6.281036735E-1,-4.537068009E-1
1.338681053E1,-5.378510356E-1,-1.047144890E0,-6.882721782E-1
1.339652433E1,-4.498890042E-1,-1.094791055E0,-7.041541934E-1
1.340623735E1,-4.425588250E-1,-1.031262875E0,-6.137487888E-1
1.341595126E1,-1.469087601E-1,-1.085017443E0,-5.392253995E-1
1.342566589E1,3.368822634E-1,-1.136328578E0,-4.769189954E-1
1.343537964E1,7.999044657E-1,-9.164236188E-1,-4.048390090E-1
1.344509272E1,1.183516622E0,-2.945810854E-1,-3.058817685E-1
1.345480652E1,1.552621007E0,5.045598149E-1,-1.348445266E-1
1.346452120E1,1.932568073E0,1.101968408E0,6.184828654E-2
1.347423501E1,2.272199154E0,1.364632726E0,2.108950168E-1
1.348394803E1,2.548301935E0,1.435491085E0,2.831276953E-1
1.349366194E1,2.741329670E0,1.507570982E0,2.622061968E-1
1.350337657E1,2.843952179E0,1.615080118E0,1.742441803E-1
1.351309032E1,2.889154911E0,1.666391373E0,1.058292910E-1
1.352280339E1,2.880603075E0,1.606528282E0,1.241547018E-1
1.353251720E1,2.782867432E0,1.385401607E0,2.218902707E-1
1.354223188E1,2.565405846E0,9.883508682E-1,3.319954872E-1
1.355194569E1,2.229439735E0,4.898995161E-1,3.649812341E-1
1.356165871E1,1.842162609E0,-1.320957243E-1,3.283303976E-1
1.357137261E1,1.458550572E0,-8.162446618E-1,2.892361879E-1
1.358108725E1,1.154195905E0,-1.375780702E0,1.998997629E-1
1.359080100E1,1.033248186E0,-1.594464064E0,-1.023169141E-2
1.360051407E1,1.071120620E0,-1.418540001E0,-2.643441558E-1
1.361022787E1,1.146865726E0,-1.008050680E0,-5.123481154E-1
1.361994256E1,1.149309158E0,-5.633538961E-1,-7.151494026E-1
1.362965636E1,1.014922738E0,-1.870719790E-1,-8.605310917E-1
1.363936938E1,7.498149872E-1,1.049130186E-1,-9.436063170E-1
1.364908329E1,4.627167881E-1,2.638860047E-1,-9.399412274E-1
1.365879787E1,2.293731421E-1,2.382304370E-1,-8.739697337E-1
1.366851167E1,1.084253863E-1,1.068982761E-3,-7.542436719E-1
1.367822475E1,2.901524492E-2,-2.261662036E-1,-5.648810267E-1
1.368793855E1,-8.093725890E-2,-3.287885487E-1,-3.022166789E-1
1.369765324E1,-1.908897758E-1,-3.642176688E-1,-3.222219273E-2
1.370736704E1,-2.886253297E-1,-3.910949528E-1,1.998997629E-1
1.371708006E1,-4.022429287E-1,-4.106420577E-1,3.478775024E-1
1.372679397E1,-5.415160656E-1,-4.094203711E-1,4.040754735E-1
1.373650855E1,-6.942279339E-1,-3.300102353E-1,3.943018913E-1
1.374622235E1,-8.322793841E-1,-1.296523362E-1,3.393256664E-1
1.375593537E1,-9.312366247E-1,1.575985998E-1,2.414373755E-1
1.376564928E1,-9.788827300E-1,4.385883212E-1,1.033858955E-1
1.377536391E1,-9.923213720E-1,6.352811456E-1,-7.253811508E-2
1.378507772E1,-9.874345660E-1,6.768187881E-1,-2.496838123E-1
1.379479074E1,-9.788827300E-1,5.412106514E-1,-3.804051280E-1
1.380450464E1,-1.017976999E0,2.944283783E-1,-4.414898455E-1
1.381421923E1,-1.147476554E0,-1.374406274E-3,-4.243861437E-1
1.382393303E1,-1.334395885E0,-2.359397560E-1,-3.352024257E-1
1.383364605E1,-1.483442545E0,-3.263451457E-1,-1.861557066E-1
1.384335996E1,-1.560409307E0,-3.287885487E-1,-3.466558084E-2
1.385307459E1,-1.573848009E0,-3.104631305E-1,1.175880991E-2
1.386278834E1,-1.477334142E0,-3.886515796E-1,-6.154286116E-2
1.387250141E1,-1.250098944E0,-6.720846891E-1,-2.020377368E-1
1.388221522E1,-9.568922520E-1,-1.086239100E0,-3.571929336E-1
1.389192990E1,-7.027797699E-1,-1.517497301E0,-4.695888162E-1
1.390164371E1,-6.624638438E-1,-2.118571043E0,-4.598152637E-1
1.391135673E1,-1.208561301E0,-2.397117376E0,-1.885990947E-1
1.392107063E1,-2.033205032E0,-9.164236188E-1,2.475458533E-1
1.393078527E1,-2.237228155E0,5.754181147E-1,6.325323582E-1
1.394049902E1,-1.753437042E0,7.159129977E-1,1.003927469E0
1.395021209E1,-1.317292094E0,3.506263196E-1,1.305685997E0
1.395992589E1,-1.093721986E0,2.333436459E-1,1.474279881E0
1.396964058E1,-8.701519370E-1,5.482354015E-2,1.430298805E0
1.397935438E1,-7.369872332E-1,-1.577513069E-1,1.117545009E0
1.398906740E1,-7.504258752E-1,-1.308740228E-1,6.276455522E-1
1.399878131E1,-7.040014863E-1,-1.113269106E-1,1.192679256E-1
1.400849595E1,-5.280774832E-1,-2.591519356E-1,-3.926220834E-1
1.401820970E1,-4.022429287E-1,-5.364766121E-1,-7.530219555E-1
1.402792277E1,-4.364503622E-1,-8.663341403E-1,-7.359182239E-1
1.403763657E1,-4.413371384E-1,-1.003163934E0,-4.475983381E-1
1.404735126E1,-2.202104330E-1,-8.076927662E-1,-1.336228400E-1
1.405706506E1,1.890572309E-1,-4.362976551E-1,1.461452097E-1
1.406677808E1,6.129852533E-1,-7.834116369E-2,3.527642787E-1
1.407649199E1,9.550597072E-1,2.235700935E-1,4.236225784E-1
1.408620657E1,1.249640822E0,4.263713956E-1,3.857500553E-1
1.409592037E1,1.555064440E0,5.399889946E-1,3.014531136E-1
1.410563339E1,1.853157878E0,6.328377724E-1,2.267770469E-1
1.411534730E1,2.087723255E0,7.207997441E-1,1.986780763E-1
1.412506194E1,2.220887899E0,8.148702383E-1,1.950129867E-1
1.413477569E1,2.299076319E0,8.820634484E-1,1.889045089E-1
1.414448876E1,2.374821424E0,8.649597168E-1,1.754658818E-1
1.415420256E1,2.462783337E0,8.002098799E-1,1.583621502E-1
1.416391725E1,2.537306786E0,6.914790869E-1,1.571404636E-1
1.417363105E1,2.554410458E0,5.192201734E-1,1.583621502E-1
1.418334407E1,2.477443695E0,3.103103936E-1,1.461452097E-1
1.419305798E1,2.316179991E0,6.093201414E-2,1.082726792E-1
1.420277261E1,2.098718405E0,-2.066190839E-1,2.031067200E-2
1.421248636E1,1.840940952E0,-4.167505503E-1,-9.208522737E-2
1.422219944E1,1.572168112E0,-5.010474920E-1,-1.947075576E-1
1.423191324E1,1.315612316E0,-4.863871336E-1,-2.863346636E-1
1.424162792E1,1.067455530E0,-4.326325655E-1,-3.804051280E-1
1.425134167E1,8.377770185E-1,-4.314108789E-1,-4.695888162E-1
1.426105475E1,6.606312990E-1,-4.436278343E-1,-5.770979524E-1
1.427076865E1,5.555655956E-1,-4.326325655E-1,-7.017107606E-1
1.428048324E1,5.396835804E-1,-4.289674759E-1,-8.018897176E-1
1.429019704E1,5.958815217E-1,-4.387410581E-1,-8.422056437E-1
1.429991006E1,6.838434935E-1,-4.485146105E-1,-8.006680608E-1
1.430962397E1,7.168292403E-1,-3.361186981E-1,-6.418477297E-1
1.431933860E1,5.812211633E-1,-4.169032723E-2,-4.158342779E-1
1.432905235E1,2.990097404E-1,2.394521236E-1,-2.154763639E-1
1.433876542E1,-1.618745178E-2,2.773246467E-1,-7.009471953E-2
1.434847923E1,-3.399364948E-1,1.085781008E-1,-1.679830020E-3
1.435819391E1,-6.587987542E-1,-1.320957243E-1,-1.634016447E-2
1.436790766E1,-9.312366247E-1,-3.617742956E-1,-8.475505561E-2
1.437762074E1,-1.120599270E0,-5.376983285E-1,-1.421747059E-1
1.438733464E1,-1.212226391E0,-6.073349118E-1,-1.531699449E-1
1.439704923E1,-1.193900943E0,-5.218162537E-1,-1.287360638E-1
1.440676303E1,-1.063179612E0,-3.495573401E-1,-9.697200358E-2
1.441647605E1,-8.616000414E-1,-2.225011140E-1,-7.131642103E-2
1.442618996E1,-6.746807694E-1,-1.724116355E-1,-3.710897267E-2
1.443590459E1,-5.830537081E-1,-1.528645307E-1,6.872031838E-3
1.444561834E1,-6.368082762E-1,-1.406475753E-1,5.085303262E-2
1.445533141E1,-8.371661901E-1,-1.174353883E-1,8.872556686E-2
1.446504522E1,-1.118155956E0,-1.308740228E-1,1.119377613E-1
1.447475990E1,-1.355164647E0,-2.261662036E-1,1.168245375E-1
1.448447365E1,-1.465117097E0,-3.629959822E-1,9.972081333E-2
1.449418673E1,-1.435796499E0,-4.692834020E-1,9.605573118E-2
1.450390053E1,-1.333174109E0,-5.205945969E-1,1.168245375E-1
1.451361522E1,-1.250098944E0,-5.621321797E-1,1.339282542E-1
1.452332902E1,-1.197566032E0,-6.513158679E-1,1.351499557E-1
1.453304204E1,-1.297744989E0,-7.038487792E-1,1.327065676E-1
1.454275595E1,-1.838955641E0,-5.120427012E-1,1.510319859E-1
1.455247053E1,-2.728349209E0,1.783674061E-1,2.267770469E-1
1.456218433E1,-3.231687307E0,8.539644480E-1,5.103628635E-1
1.457189735E1,-2.995900393E0,1.068982720E0,8.206732869E-1
1.458161126E1,-2.444916248E0,1.472141862E0,9.391776323E-1
1.459132589E1,-1.881714940E0,2.223484039E0,8.768712282E-1
1.460103964E1,-1.276976228E0,2.373752356E0,9.342908859E-1
1.461075272E1,-8.139539957E-1,1.758018374E0,9.147437811E-1
1.462046652E1,-6.966713071E-1,1.045770526E0,6.276455522E-1
1.463018121E1,-8.725953102E-1,5.094466209E-1,1.876828223E-1
1.463989501E1,-9.556705356E-1,9.620844387E-3,-2.032594234E-1
1.464960803E1,-7.223268747E-1,-2.958027720E-1,-4.732539058E-1
1.465932183E1,-3.399364948E-1,-3.006895781E-1,-6.027535200E-1
1.466903652E1,-2.229592577E-2,-3.141281903E-1,-5.929799676E-1
1.467875032E1,2.635805905E-1,-2.921377122E-1,-4.659237564E-1
1.468846334E1,6.691831946E-1,-1.711899489E-1,-2.802261710E-1
1.469817725E1,1.104106426E0,3.527642787E-2,-7.131642103E-2
1.470789188E1,1.435338378E0,2.968717813E-1,1.705790907E-1
1.471760563E1,1.622257590E0,5.228852630E-1,4.150707126E-1
1.472731865E1,1.732210159E0,6.841489077E-1,6.093201637E-1
1.473703256E1,1.845827699E0,7.904363275E-1,7.424848676E-1
1.474674720E1,1.947228312E0,7.586722970E-1,8.451071978E-1
1.475646094E1,2.004647970E0,5.790832043E-1,8.719844818E-1
1.476617402E1,2.043742180E0,2.956500649E-1,7.815790772E-1
1.477588782E1,2.107270241E0,4.734066315E-3,5.763344169E-1
1.478560251E1,2.195232391E0,-1.504211426E-1,3.026748300E-1
1.479531626E1,2.286859512E0,-1.650814712E-1,1.985253533E-3
1.480502933E1,2.349165916E0,-1.516428292E-1,-2.728960216E-1
1.481474313E1,2.350387573E0,-2.237228155E-1,-4.793623984E-1
1.482445782E1,2.259982109E0,-4.240806997E-1,-5.832064152E-1
1.483417162E1,2.033968687E0,-7.392778993E-1,-5.661026835E-1
1.484388464E1,1.683342338E0,-1.030041218E0,-4.585935771E-1
1.485359855E1,1.313168883E0,-1.185196400E0,-3.022166789E-1
1.486331313E1,1.006370902E0,-1.197413325E0,-1.348445266E-1
1.487302694E1,7.913526297E-1,-1.080130696E0,-2.901524538E-3
1.488273996E1,6.520794630E-1,-8.541171551E-1,5.696150661E-2
1.489245386E1,5.531222224E-1,-5.401417017E-1,4.474456236E-2
1.490216845E1,4.810422063E-1,-2.115058601E-1,-3.100049868E-2
1.491188225E1,4.419479966E-1,3.894151375E-2,-1.360662282E-1
1.492159527E1,4.553866386E-1,1.563768983E-1,-2.276933193E-1
1.493130917E1,4.969242513E-1,1.612636745E-1,-2.533488870E-1
1.494102381E1,5.091412067E-1,1.527118087E-1,-1.898207814E-1
1.495073756E1,4.700469673E-1,1.893626451E-1,-4.810422286E-2
1.496045058E1,3.820849657E-1,2.480039895E-1,1.131594554E-1
1.497016449E1,2.770192325E-1,3.066453338E-1,2.524326444E-1
1.497987912E1,1.743968874E-1,3.542914093E-1,3.515425920E-1
1.498959287E1,7.543963939E-2,4.019374847E-1,4.248442650E-1
1.499930595E1,-2.351761982E-2,4.361449480E-1,4.871506989E-1
1.500901975E1,-1.298050433E-1,4.398100376E-1,5.189147592E-1
1.501873444E1,-2.495311052E-1,4.153761268E-1,5.115845799E-1
1.502844818E1,-3.851391971E-1,3.762819171E-1,4.590517282E-1
1.503816126E1,-5.170822144E-1,3.408527672E-1,3.515425920E-1
1.504787506E1,-6.184828281E-1,2.858765125E-1,2.133384049E-1
1.505758975E1,-6.844543815E-1,1.759240031E-1,4.840964451E-2
