"Time (s)",Acceleration x (m/s^2),"Acceleration y (m/s^2)","Acceleration z (m/s^2)"
5.502668900E-2,1.025922745E-1,-5.431707501E-1,-9.910772324E0
6.474075100E-2,9.541380405E-2,-5.383850932E-1,-9.954142570E0
7.445398000E-2,6.191428751E-2,-5.192425251E-1,-9.978070259E0
8.416648000E-2,6.669992954E-2,-4.977070987E-1,-9.903594017E0
9.387981400E-2,2.123630047E-2,-4.929214716E-1,-9.970891953E0
1.035938760E-1,-7.477570791E-3,-5.000999570E-1,-1.002831936E1
1.133070530E-1,-1.944168471E-2,-5.120640397E-1,-9.822237968E0
1.230195530E-1,-5.054837838E-2,-5.240281820E-1,-9.800702095E0
1.327328870E-1,-2.422732860E-2,-5.670989752E-1,-1.014078236E1
1.424469490E-1,4.516452923E-2,-5.718846321E-1,-1.010728264E1
1.521601780E-1,8.823533356E-2,-5.407779217E-1,-9.824630737E0
1.618726780E-1,8.823533356E-2,-4.977070987E-1,-9.877272606E0
1.715860120E-1,6.909275055E-2,-4.953143001E-1,-9.944570541E0
1.813000740E-1,5.234299600E-2,-4.642075896E-1,-9.709774971E0
1.910133030E-1,1.405783277E-2,-4.642075896E-1,-9.707382202E0
2.007258030E-1,1.884347759E-2,-4.881358147E-1,-1.008096218E1
2.104390330E-1,6.191428751E-2,-5.192425251E-1,-1.015753174E1
2.201531470E-1,7.866404206E-2,-5.096712112E-1,-1.002831936E1
2.298663760E-1,6.669992954E-2,-5.000999570E-1,-1.005703354E1
2.395788760E-1,7.627122104E-2,-4.929214716E-1,-1.000678444E1
2.492922100E-1,1.073779166E-1,-4.881358147E-1,-9.693025589E0
2.590062720E-1,9.541380405E-2,-4.929214716E-1,-9.673882484E0
2.687195010E-1,1.025922745E-1,-5.455635786E-1,-9.999606133E0
2.784320010E-1,1.145563871E-1,-5.623133183E-1,-1.005224800E1
2.881453350E-1,1.265204996E-1,-5.718846321E-1,-9.954142570E0
2.978593970E-1,8.344969153E-2,-5.790630579E-1,-1.013121128E1
3.075726260E-1,4.037888348E-2,-5.455635786E-1,-1.020060253E1
3.172851260E-1,1.884347759E-2,-4.809573591E-1,-9.886843681E0
3.269984600E-1,-2.991028305E-4,-4.283152521E-1,-9.704989433E0
3.367125220E-1,-5.084747914E-3,-4.163511395E-1,-9.846165657E0
3.464257510E-1,5.952146277E-2,-4.331009090E-1,-9.829416275E0
3.561381990E-1,7.866404206E-2,-4.570291340E-1,-9.781559944E0
3.658515330E-1,8.344969153E-2,-5.072783828E-1,-1.002831936E1
3.755655950E-1,9.302098304E-2,-5.647061467E-1,-1.016231823E1
3.852788240E-1,5.234299600E-2,-5.814558864E-1,-9.891630173E0
3.949913240E-1,-7.477570791E-3,-5.742774606E-1,-9.800702095E0
4.047046580E-1,-3.858426586E-2,-5.647061467E-1,-9.978070259E0
4.144187200E-1,-7.477570791E-3,-5.335994363E-1,-9.877272606E0
4.241319490E-1,6.430710852E-2,-5.192425251E-1,-9.791131020E0
4.338444490E-1,1.241276711E-1,-5.407779217E-1,-1.004028416E1
4.435577830E-1,1.528415531E-1,-5.503492355E-1,-1.018624592E1
4.532718450E-1,1.528415531E-1,-5.359922647E-1,-9.958928108E0
4.629850740E-1,1.001994461E-1,-4.833501875E-1,-9.834201813E0
4.726975740E-1,7.387840003E-2,-4.666004181E-1,-9.999606133E0
4.824109080E-1,8.823533356E-2,-4.833501875E-1,-9.939785004E0
4.921249700E-1,8.105687052E-2,-5.144568682E-1,-9.886843681E0
5.018381990E-1,6.669992954E-2,-5.503492355E-1,-1.018863869E1
5.115506990E-1,7.866404206E-2,-5.647061467E-1,-1.024606609E1
5.212640330E-1,8.344969153E-2,-5.479564071E-1,-9.951749802E0
5.309780950E-1,7.627122104E-2,-5.312066078E-1,-9.872487068E0
5.406913240E-1,8.105687052E-2,-5.551348329E-1,-1.002592659E1
5.504038240E-1,9.302098304E-2,-5.670989752E-1,-9.886843681E0
5.601171580E-1,6.909275055E-2,-5.527420044E-1,-9.736096382E0
5.698312200E-1,4.516452923E-2,-5.455635786E-1,-9.944570541E0
5.795444490E-1,1.884347759E-2,-5.216353536E-1,-1.004746246E1
5.892569490E-1,-7.477570791E-3,-4.953143001E-1,-9.834201813E0
5.989702830E-1,-4.576273263E-2,-4.857429862E-1,-9.886843681E0
6.086843450E-1,-7.686942816E-2,-5.000999570E-1,-9.891630173E0
6.183975740E-1,-8.404789865E-2,-5.264210105E-1,-9.894022942E0
6.281100740E-1,-7.686942816E-2,-5.455635786E-1,-9.942177773E0
6.378234080E-1,2.093719784E-3,-5.647061467E-1,-9.999606133E0
6.475374700E-1,7.387840003E-2,-5.766702294E-1,-1.002114105E1
6.572506990E-1,7.387840003E-2,-5.575276613E-1,-1.003071213E1
6.669631990E-1,8.105687052E-2,-5.623133183E-1,-1.000439167E1
6.766765330E-1,4.995017126E-2,-5.599204898E-1,-9.949356079E0
6.863905950E-1,1.405783277E-2,-5.359922647E-1,-9.896415710E0
6.961038240E-1,-3.379862010E-2,-5.216353536E-1,-9.870094299E0
7.058163240E-1,-1.944168471E-2,-5.216353536E-1,-9.870094299E0
7.155296580E-1,5.234299600E-2,-5.264210105E-1,-9.901201248E0
7.252437720E-1,9.302098304E-2,-5.264210105E-1,-9.949356079E0
7.349570010E-1,6.669992954E-2,-5.120640397E-1,-9.982855797E0
7.446695010E-1,3.320041299E-2,-5.024927258E-1,-9.987641335E0
7.543828350E-1,4.995017126E-2,-4.929214716E-1,-9.915857315E0
7.640968970E-1,4.755735025E-2,-5.072783828E-1,-9.855737686E0
7.738101260E-1,6.430710852E-2,-5.312066078E-1,-9.886843681E0
7.835226260E-1,6.669992954E-2,-5.431707501E-1,-9.925428391E0
7.932359600E-1,9.541380405E-2,-5.694918036E-1,-9.970891953E0
8.029500220E-1,1.217348501E-1,-5.790630579E-1,-1.002831936E1
8.126633550E-1,1.504487246E-1,-5.886343718E-1,-1.004506969E1
8.223757510E-1,1.289133132E-1,-5.503492355E-1,-9.987641335E0
8.320891370E-1,6.191428751E-2,-5.192425251E-1,-9.886843681E0
8.418031990E-1,3.559323773E-2,-4.857429862E-1,-9.841380119E0
8.515164280E-1,1.166501082E-2,-4.833501875E-1,-9.894022942E0
8.612289280E-1,1.884347759E-2,-4.905286431E-1,-9.992427826E0
8.709422620E-1,1.884347759E-2,-4.833501875E-1,-1.007378292E1
8.806563760E-1,-7.477570791E-3,-5.024927258E-1,-1.005703354E1
8.903696050E-1,-3.140579537E-2,-5.383850932E-1,-9.932606697E0
9.000821050E-1,-9.870393202E-3,-5.814558864E-1,-9.831809044E0
9.097954390E-1,4.037888348E-2,-6.053841114E-1,-9.807881355E0
9.195095010E-1,7.866404206E-2,-6.101697683E-1,-9.894022942E0
9.292227300E-1,7.387840003E-2,-5.838487148E-1,-9.970891953E0
9.389352830E-1,5.952146277E-2,-5.623133183E-1,-1.001874828E1
9.486486160E-1,5.234299600E-2,-5.216353536E-1,-1.001396275E1
9.583626780E-1,2.093719784E-3,-4.713860750E-1,-9.958928108E0
9.680759080E-1,-1.465603895E-2,-4.354937077E-1,-9.908379555E0
9.777884080E-1,6.879365072E-3,-4.354937077E-1,-9.908379555E0
9.875017930E-1,4.516452923E-2,-4.689932466E-1,-9.891630173E0
9.972158550E-1,4.277170449E-2,-5.048855543E-1,-9.915857315E0
1.006929085E0,3.320041299E-2,-5.383850932E-1,-9.982855797E0
1.016641585E0,7.148557901E-2,-5.551348329E-1,-1.001156998E1
1.026354970E0,7.866404206E-2,-5.431707501E-1,-9.999606133E0
1.036069033E0,1.241276711E-1,-5.312066078E-1,-9.951749802E0
1.045782262E0,1.241276711E-1,-5.383850932E-1,-9.937392235E0
1.055494762E0,1.217348501E-1,-5.312066078E-1,-9.896415710E0
1.065208147E0,1.073779166E-1,-5.192425251E-1,-9.834201813E0
1.074922210E0,4.516452923E-2,-5.216353536E-1,-9.834201813E0
1.084635439E0,-3.379862010E-2,-5.216353536E-1,-9.944570541E0
1.094347939E0,-4.097708687E-2,-5.096712112E-1,-1.005942631E1
1.104061324E0,6.879365072E-3,-5.168496966E-1,-1.008814049E1
1.113775387E0,4.755735025E-2,-5.288137794E-1,-1.001874828E1
1.123488616E0,4.516452923E-2,-5.503492355E-1,-9.946963310E0
1.133201168E0,2.123630047E-2,-5.455635786E-1,-9.831809044E0
1.142914501E0,1.405783277E-2,-5.216353536E-1,-9.728918076E0
1.152628564E0,9.272187948E-3,-5.096712112E-1,-9.721739769E0
1.162341897E0,-7.477570791E-3,-5.168496966E-1,-9.803094864E0
1.172054345E0,4.516452923E-2,-5.096712112E-1,-9.966106415E0
1.181767678E0,1.265204996E-1,-5.144568682E-1,-1.009053326E1
1.191481793E0,1.719841212E-1,-5.144568682E-1,-1.013838959E1
1.201195022E0,1.217348501E-1,-5.168496966E-1,-1.011206818E1
1.210907522E0,5.473581702E-2,-5.359922647E-1,-1.000917721E1
1.220620908E0,2.602194622E-2,-5.240281820E-1,-9.901201248E0
1.230334970E0,2.362912335E-2,-5.407779217E-1,-9.836594582E0
1.240048199E0,5.952146277E-2,-5.527420044E-1,-9.838987350E0
1.249760751E0,1.145563871E-1,-5.335994363E-1,-9.865308762E0
1.259474085E0,1.336989701E-1,-5.024927258E-1,-9.918250084E0
1.269188199E0,1.600200087E-1,-4.809573591E-1,-9.978070259E0
1.278901428E0,1.336989701E-1,-4.785645306E-1,-9.985248566E0
1.288613928E0,9.062815458E-2,-4.689932466E-1,-9.923035622E0
1.298327314E0,4.277170449E-2,-4.857429862E-1,-9.850952148E0
1.308041376E0,-9.870393202E-3,-5.240281820E-1,-9.791131020E0
1.317754605E0,-9.870393202E-3,-5.407779217E-1,-9.824630737E0
1.327467158E0,3.559323773E-2,-5.503492355E-1,-9.973284721E0
1.337180491E0,5.712864175E-2,-5.694918036E-1,-1.010967541E1
1.346894605E0,7.627122104E-2,-5.383850932E-1,-1.012403297E1
1.356607835E0,5.952146277E-2,-5.144568682E-1,-1.004985523E1
1.366320335E0,3.320041299E-2,-4.761717021E-1,-9.891630173E0
1.376033720E0,2.093719784E-3,-4.570291340E-1,-9.798309326E0
1.385747783E0,-5.084747914E-3,-4.594219327E-1,-9.764810562E0
1.395461116E0,-3.619144112E-2,-5.120640397E-1,-9.819845200E0
1.405173564E0,-1.704886183E-2,-5.431707501E-1,-9.898808479E0
1.414886897E0,3.559323773E-2,-5.790630579E-1,-9.968499184E0
1.424601012E0,8.823533356E-2,-5.790630579E-1,-1.002592659E1
1.434314241E0,1.408774406E-1,-5.670989752E-1,-1.004746246E1
1.444026793E0,1.456630826E-1,-5.551348329E-1,-9.999606133E0
1.453740126E0,1.001994461E-1,-5.264210105E-1,-9.927821159E0
1.463454241E0,5.473581702E-2,-5.144568682E-1,-9.905986786E0
1.473167470E0,1.405783277E-2,-5.000999570E-1,-9.860523224E0
1.482879970E0,-1.226321608E-2,-4.881358147E-1,-9.870094299E0
1.492593355E0,9.272187948E-3,-4.905286431E-1,-9.982855797E0
1.502307470E0,5.712864175E-2,-4.905286431E-1,-1.000917721E1
1.512020699E0,1.073779166E-1,-4.833501875E-1,-9.915857315E0
1.521733199E0,1.169492081E-1,-4.881358147E-1,-9.819845200E0
1.531446585E0,1.097707376E-1,-4.713860750E-1,-9.798309326E0
1.541160647E0,9.780662507E-2,-4.713860750E-1,-9.903594017E0
1.550873980E0,7.866404206E-2,-5.144568682E-1,-9.946963310E0
1.560586428E0,7.866404206E-2,-5.288137794E-1,-9.942177773E0
1.570299814E0,4.995017126E-2,-5.240281820E-1,-9.915857315E0
1.580013876E0,1.645065658E-2,-5.192425251E-1,-9.901201248E0
1.589727210E0,2.602194622E-2,-5.288137794E-1,-9.923035622E0
1.599439658E0,6.669992954E-2,-5.312066078E-1,-9.958928108E0
1.609153043E0,1.169492081E-1,-5.335994363E-1,-9.958928108E0
1.618867105E0,1.241276711E-1,-5.431707501E-1,-9.956535339E0
1.628580439E0,1.025922745E-1,-5.359922647E-1,-9.937392235E0
1.638292887E0,5.712864175E-2,-5.240281820E-1,-9.901201248E0
1.648006220E0,2.123630047E-2,-5.168496966E-1,-9.827023506E0
1.657720335E0,-1.226321608E-2,-5.288137794E-1,-9.783952713E0
1.667433668E0,-1.226321608E-2,-5.264210105E-1,-9.843772888E0
1.677146116E0,9.272187948E-3,-5.096712112E-1,-9.949356079E0
1.686859449E0,6.430710852E-2,-5.216353536E-1,-9.970891953E0
1.696573564E0,1.001994461E-1,-5.383850932E-1,-9.930213928E0
1.706286897E0,1.265204996E-1,-5.216353536E-1,-9.934999466E0
1.715999345E0,7.387840003E-2,-5.000999570E-1,-9.951749802E0
1.725712678E0,2.123630047E-2,-4.857429862E-1,-9.877272606E0
1.735426793E0,2.362912335E-2,-4.833501875E-1,-9.831809044E0
1.745140126E0,3.080759197E-2,-4.833501875E-1,-9.838987350E0
1.754852574E0,2.602194622E-2,-4.546363056E-1,-9.889236450E0
1.764565908E0,2.362912335E-2,-4.546363056E-1,-9.903594017E0
1.774280022E0,8.344969153E-2,-4.785645306E-1,-9.925428391E0
1.783993355E0,1.504487246E-1,-5.240281820E-1,-1.000199890E1
1.793705803E0,1.648056656E-1,-5.312066078E-1,-1.002114105E1
1.803419137E0,1.504487246E-1,-5.359922647E-1,-9.934999466E0
1.813133251E0,8.584251255E-2,-5.335994363E-1,-9.865308762E0
1.822846585E0,3.320041299E-2,-5.455635786E-1,-9.858130455E0
1.832559033E0,4.486542661E-3,-5.455635786E-1,-9.891630173E0
1.842272366E0,1.645065658E-2,-5.264210105E-1,-9.968499184E0
1.851986480E0,7.148557901E-2,-4.953143001E-1,-1.002114105E1
1.861699814E0,1.145563871E-1,-4.977070987E-1,-1.004267693E1
1.871412262E0,1.217348501E-1,-5.096712112E-1,-9.958928108E0
1.881125595E0,1.001994461E-1,-5.096712112E-1,-9.870094299E0
1.890839710E0,1.097707376E-1,-5.168496966E-1,-9.810274124E0
1.900553043E0,9.302098304E-2,-5.240281820E-1,-9.788738251E0
1.910265491E0,5.952146277E-2,-5.096712112E-1,-9.783952713E0
1.919978876E0,2.362912335E-2,-5.264210105E-1,-9.860523224E0
1.929692939E0,1.405783277E-2,-5.503492355E-1,-9.944570541E0
1.939406272E0,4.486542661E-3,-5.503492355E-1,-1.003549862E1
1.949118720E0,3.559323773E-2,-5.359922647E-1,-1.004746246E1
1.958832105E0,4.516452923E-2,-5.383850932E-1,-9.968499184E0
1.968546168E0,8.344969153E-2,-5.599204898E-1,-9.867701530E0
1.978259501E0,1.265204996E-1,-5.647061467E-1,-9.853344917E0
1.987971949E0,1.289133132E-1,-5.168496966E-1,-9.896415710E0
1.997685335E0,7.866404206E-2,-4.737788737E-1,-9.944570541E0
2.007399397E0,3.798605874E-2,-4.713860750E-1,-1.002114105E1
2.017112730E0,1.405783277E-2,-4.474578202E-1,-1.004985523E1
2.026825178E0,1.645065658E-2,-4.426721931E-1,-9.973284721E0
2.036538564E0,3.798605874E-2,-4.642075896E-1,-9.810274124E0
2.046252626E0,5.712864175E-2,-4.713860750E-1,-9.671489716E0
2.055965960E0,1.121635586E-1,-4.689932466E-1,-9.657133102E0
2.065678408E0,1.145563871E-1,-4.689932466E-1,-9.788738251E0
2.075391793E0,1.408774406E-1,-4.857429862E-1,-9.939785004E0
2.085105908E0,1.336989701E-1,-5.024927258E-1,-1.001874828E1
2.094819137E0,9.541380405E-2,-5.192425251E-1,-1.005464077E1
2.104531689E0,6.669992954E-2,-5.240281820E-1,-1.000439167E1
2.114245022E0,2.362912335E-2,-5.096712112E-1,-9.879665375E0
2.123959137E0,-2.901297435E-2,-4.737788737E-1,-9.752845764E0
2.133672366E0,-2.901297435E-2,-4.689932466E-1,-9.681061745E0
2.143384918E0,-2.691925503E-3,-4.809573591E-1,-9.760024071E0
2.153098251E0,4.995017126E-2,-5.192425251E-1,-9.913165092E0
2.162812366E0,1.217348501E-1,-5.288137794E-1,-1.003789139E1
2.172525595E0,1.121635586E-1,-5.383850932E-1,-1.006181908E1
2.182238147E0,8.823533356E-2,-5.120640397E-1,-1.000678444E1
2.191951480E0,4.516452923E-2,-5.144568682E-1,-9.958928108E0
2.201665595E0,1.405783277E-2,-4.953143001E-1,-9.898808479E0
2.211378928E0,5.473581702E-2,-5.168496966E-1,-9.862915993E0
2.221091376E0,9.302098304E-2,-5.359922647E-1,-9.855737686E0
2.230804792E0,9.302098304E-2,-5.383850932E-1,-9.843772888E0
2.240518906E0,9.302098304E-2,-5.072783828E-1,-9.860523224E0
2.250232240E0,6.669992954E-2,-4.881358147E-1,-9.886843681E0
2.259944687E0,4.995017126E-2,-4.618147612E-1,-9.915857315E0
2.269658073E0,5.712864175E-2,-4.594219327E-1,-9.927821159E0
2.279372135E0,1.645065658E-2,-4.570291340E-1,-9.978070259E0
2.289085469E0,-7.477570791E-3,-4.498506486E-1,-9.968499184E0
2.298797917E0,2.093719784E-3,-4.570291340E-1,-9.898808479E0
2.308511302E0,-1.226321608E-2,-4.857429862E-1,-9.853344917E0
2.318225365E0,3.080759197E-2,-5.048855543E-1,-9.862915993E0
2.327938698E0,7.387840003E-2,-5.216353536E-1,-9.860523224E0
2.337651146E0,8.584251255E-2,-5.240281820E-1,-9.874879837E0
2.347364531E0,1.073779166E-1,-5.335994363E-1,-9.930213928E0
2.357078594E0,1.073779166E-1,-5.240281820E-1,-9.982855797E0
2.366791927E0,1.049850956E-1,-5.144568682E-1,-9.997213364E0
2.376504375E0,8.584251255E-2,-5.024927258E-1,-9.932606697E0
2.386217760E0,6.430710852E-2,-5.000999570E-1,-9.865308762E0
2.395931823E0,3.320041299E-2,-5.096712112E-1,-9.827023506E0
2.405645156E0,-2.691925503E-3,-5.024927258E-1,-9.915857315E0
2.415357604E0,4.277170449E-2,-4.977070987E-1,-9.980463028E0
2.425070990E0,9.541380405E-2,-4.977070987E-1,-9.994820595E0
2.434785104E0,1.025922745E-1,-5.072783828E-1,-9.915857315E0
2.444498333E0,6.909275055E-2,-5.120640397E-1,-9.843772888E0
2.454210833E0,3.798605874E-2,-5.312066078E-1,-9.836594582E0
2.463924219E0,6.879365072E-3,-5.694918036E-1,-9.872487068E0
2.473638333E0,1.166501082E-2,-5.575276613E-1,-9.905986786E0
2.483351562E0,1.405783277E-2,-5.431707501E-1,-9.910772324E0
2.493064062E0,3.320041299E-2,-5.359922647E-1,-9.910772324E0
2.502777448E0,4.037888348E-2,-5.192425251E-1,-9.858130455E0
2.512491562E0,4.037888348E-2,-5.048855543E-1,-9.882058144E0
2.522204792E0,5.712864175E-2,-4.977070987E-1,-9.946963310E0
2.531917344E0,2.602194622E-2,-4.737788737E-1,-9.954142570E0
2.541630677E0,4.037888348E-2,-4.594219327E-1,-9.927821159E0
2.551344792E0,1.025922745E-1,-4.809573591E-1,-9.915857315E0
2.561058021E0,1.289133132E-1,-4.857429862E-1,-9.910772324E0
2.570770573E0,9.062815458E-2,-4.977070987E-1,-9.877272606E0
2.580483906E0,8.344969153E-2,-4.905286431E-1,-9.865308762E0
2.590198021E0,8.823533356E-2,-5.120640397E-1,-9.889236450E0
2.599911250E0,7.866404206E-2,-5.240281820E-1,-9.860523224E0
2.609623802E0,8.105687052E-2,-5.024927258E-1,-9.858130455E0
2.619337135E0,5.473581702E-2,-5.024927258E-1,-9.853344917E0
2.629051250E0,4.277170449E-2,-5.096712112E-1,-9.872487068E0
2.638764479E0,2.602194622E-2,-5.288137794E-1,-9.918250084E0
2.648477031E0,2.362912335E-2,-5.288137794E-1,-9.975677490E0
2.658190365E0,4.516452923E-2,-5.264210105E-1,-9.994820595E0
2.667904479E0,7.148557901E-2,-5.216353536E-1,-9.966106415E0
2.677617708E0,5.952146277E-2,-5.359922647E-1,-9.898808479E0
2.687330260E0,9.272187948E-3,-5.407779217E-1,-9.831809044E0
2.697043594E0,2.093719784E-3,-5.335994363E-1,-9.795916557E0
2.706757708E0,1.884347759E-2,-5.264210105E-1,-9.798309326E0
2.716470937E0,4.755735025E-2,-5.240281820E-1,-9.867701530E0
2.726183490E0,7.387840003E-2,-5.192425251E-1,-9.963713646E0
2.735896823E0,8.105687052E-2,-5.096712112E-1,-9.987641335E0
2.745610937E0,9.062815458E-2,-4.905286431E-1,-9.896415710E0
2.755324167E0,1.025922745E-1,-4.689932466E-1,-9.853344917E0
2.765036719E0,1.001994461E-1,-4.833501875E-1,-9.872487068E0
2.774750052E0,9.780662507E-2,-5.168496966E-1,-9.932606697E0
2.784464167E0,8.823533356E-2,-5.144568682E-1,-9.932606697E0
2.794177396E0,9.302098304E-2,-5.216353536E-1,-9.944570541E0
2.803889948E0,8.823533356E-2,-5.455635786E-1,-9.980463028E0
2.813603281E0,1.145563871E-1,-5.431707501E-1,-9.944570541E0
2.823317396E0,1.097707376E-1,-5.264210105E-1,-9.860523224E0
2.833030625E0,1.001994461E-1,-5.120640397E-1,-9.843772888E0
2.842743177E0,6.191428751E-2,-4.905286431E-1,-9.865308762E0
2.852456510E0,4.516452923E-2,-4.857429862E-1,-9.886843681E0
2.862170625E0,3.320041299E-2,-4.809573591E-1,-9.915857315E0
2.871883854E0,-5.084747914E-3,-5.072783828E-1,-9.898808479E0
2.881596406E0,-2.183450572E-2,-5.168496966E-1,-9.882058144E0
2.891309740E0,-2.901297435E-2,-5.312066078E-1,-9.886843681E0
2.901023854E0,2.602194622E-2,-5.264210105E-1,-9.915857315E0
2.910737083E0,8.344969153E-2,-5.240281820E-1,-9.915857315E0
2.920449635E0,1.289133132E-1,-5.312066078E-1,-9.898808479E0
2.930162969E0,1.432702541E-1,-5.144568682E-1,-9.939785004E0
2.939877083E0,7.627122104E-2,-5.072783828E-1,-9.918250084E0
2.949590312E0,3.320041299E-2,-4.546363056E-1,-9.879665375E0
2.959302865E0,2.841476910E-2,-4.426721931E-1,-9.824630737E0
2.969016198E0,6.879365072E-3,-4.546363056E-1,-9.834201813E0
2.978730312E0,-9.870393202E-3,-4.809573591E-1,-9.891630173E0
2.988443542E0,3.559323773E-2,-5.455635786E-1,-9.925428391E0
2.998156042E0,1.049850956E-1,-6.005984545E-1,-9.961320877E0
3.007869427E0,9.062815458E-2,-6.269195080E-1,-9.973284721E0
3.017583542E0,8.105687052E-2,-6.101697683E-1,-9.949356079E0
3.027296771E0,2.841476910E-2,-5.623133183E-1,-9.918250084E0
3.037009271E0,9.272187948E-3,-5.000999570E-1,-9.889236450E0
3.046722656E0,4.755735025E-2,-4.689932466E-1,-9.858130455E0
3.056436719E0,9.541380405E-2,-4.642075896E-1,-9.822237968E0
3.066150052E0,8.823533356E-2,-4.737788737E-1,-9.838987350E0
3.075862500E0,9.302098304E-2,-4.881358147E-1,-9.923035622E0
3.085575885E0,1.073779166E-1,-5.168496966E-1,-1.002353382E1
3.095289948E0,1.049850956E-1,-5.359922647E-1,-1.005703354E1
3.105003281E0,1.049850956E-1,-4.977070987E-1,-9.966106415E0
3.114715729E0,6.430710852E-2,-4.642075896E-1,-9.846165657E0
3.124429115E0,3.559323773E-2,-4.737788737E-1,-9.736096382E0
3.134143177E0,5.234299600E-2,-5.048855543E-1,-9.693025589E0
3.143856510E0,6.909275055E-2,-5.407779217E-1,-9.793523788E0
3.153568958E0,6.669992954E-2,-5.814558864E-1,-9.985248566E0
3.163282344E0,5.473581702E-2,-5.910272002E-1,-1.007856941E1
3.172996406E0,4.037888348E-2,-5.599204898E-1,-1.002831936E1
3.182709740E0,2.362912335E-2,-5.216353536E-1,-9.889236450E0
3.192422187E0,3.559323773E-2,-4.666004181E-1,-9.803094864E0
3.202135521E0,3.559323773E-2,-4.546363056E-1,-9.827023506E0
3.211849635E0,2.602194622E-2,-4.761717021E-1,-9.858130455E0
3.221562865E0,5.234299600E-2,-5.335994363E-1,-9.913165092E0
3.231275417E0,8.584251255E-2,-5.718846321E-1,-9.944570541E0
3.240988750E0,8.344969153E-2,-5.718846321E-1,-9.934999466E0
3.250702865E0,4.995017126E-2,-5.503492355E-1,-9.925428391E0
3.260416094E0,2.841476910E-2,-5.240281820E-1,-9.898808479E0
3.270128646E0,6.191428751E-2,-5.072783828E-1,-9.925428391E0
3.279841979E0,9.302098304E-2,-5.144568682E-1,-9.934999466E0
3.289556094E0,1.193420291E-1,-5.096712112E-1,-9.910772324E0
3.299269323E0,9.780662507E-2,-5.192425251E-1,-9.865308762E0
3.308981823E0,7.866404206E-2,-5.288137794E-1,-9.846165657E0
3.318695208E0,5.712864175E-2,-5.216353536E-1,-9.838987350E0
3.328409271E0,2.602194622E-2,-4.905286431E-1,-9.855737686E0
3.338122604E0,-2.691925503E-3,-4.737788737E-1,-9.877272606E0
3.347835052E0,2.123630047E-2,-4.785645306E-1,-9.930213928E0
3.357548385E0,6.430710852E-2,-4.977070987E-1,-9.992427826E0
3.367262500E0,7.627122104E-2,-5.024927258E-1,-1.001396275E1
3.376975833E0,1.049850956E-1,-5.144568682E-1,-1.001396275E1
3.386688281E0,1.145563871E-1,-5.479564071E-1,-9.937392235E0
3.396401615E0,8.584251255E-2,-5.527420044E-1,-9.788738251E0
3.406115729E0,2.362912335E-2,-5.264210105E-1,-9.709774971E0
3.415828958E0,-2.901297435E-2,-5.216353536E-1,-9.755238533E0
3.425541510E0,-1.944168471E-2,-5.407779217E-1,-9.913165092E0
3.435254844E0,4.516452923E-2,-5.527420044E-1,-1.003789139E1
3.444968958E0,1.097707376E-1,-5.670989752E-1,-1.006899738E1
3.454682187E0,1.193420291E-1,-5.503492355E-1,-1.001156998E1
3.464394687E0,1.241276711E-1,-5.168496966E-1,-9.896415710E0
3.474108073E0,1.001994461E-1,-4.761717021E-1,-9.781559944E0
3.483822135E0,1.645065658E-2,-4.354937077E-1,-9.721739769E0
3.493535469E0,-4.336991161E-2,-4.522434771E-1,-9.791131020E0
3.503247917E0,-3.619144112E-2,-4.881358147E-1,-9.901201248E0
3.512961302E0,2.123630047E-2,-5.264210105E-1,-1.000439167E1
3.522675365E0,6.191428751E-2,-5.623133183E-1,-1.006421185E1
3.532388698E0,4.037888348E-2,-5.790630579E-1,-1.000678444E1
3.542101146E0,4.037888348E-2,-5.431707501E-1,-9.918250084E0
3.551814479E0,7.627122104E-2,-5.024927258E-1,-9.843772888E0
3.561528594E0,1.193420291E-1,-5.120640397E-1,-9.803094864E0
3.571241823E0,1.289133132E-1,-5.240281820E-1,-9.810274124E0
3.580954375E0,8.584251255E-2,-5.407779217E-1,-9.827023506E0
3.590667708E0,6.909275055E-2,-5.431707501E-1,-9.898808479E0
3.600381823E0,7.866404206E-2,-5.264210105E-1,-9.997213364E0
3.610095052E0,7.148557901E-2,-5.096712112E-1,-1.001156998E1
3.619807552E0,5.473581702E-2,-5.096712112E-1,-9.975677490E0
3.629520937E0,4.516452923E-2,-4.833501875E-1,-9.923035622E0
3.639235000E0,5.712864175E-2,-4.809573591E-1,-9.872487068E0
3.648948333E0,5.234299600E-2,-4.737788737E-1,-9.862915993E0
3.658660781E0,5.234299600E-2,-4.833501875E-1,-9.850952148E0
3.668374115E0,8.344969153E-2,-4.881358147E-1,-9.858130455E0
3.678088229E0,9.541380405E-2,-5.264210105E-1,-9.874879837E0
3.687801458E0,7.866404206E-2,-5.431707501E-1,-9.882058144E0
3.697514010E0,4.277170449E-2,-5.551348329E-1,-9.882058144E0
3.707227344E0,9.272187948E-3,-5.575276613E-1,-9.896415710E0
3.716941458E0,-2.991028305E-4,-5.335994363E-1,-9.923035622E0
3.726654687E0,2.362912335E-2,-5.144568682E-1,-9.927821159E0
3.736367187E0,4.037888348E-2,-5.048855543E-1,-9.973284721E0
3.746080573E0,6.909275055E-2,-4.953143001E-1,-9.982855797E0
3.755794635E0,9.541380405E-2,-5.120640397E-1,-9.930213928E0
3.765507969E0,6.191428751E-2,-5.264210105E-1,-9.824630737E0
3.775220417E0,2.602194622E-2,-5.335994363E-1,-9.750452995E0
3.784933750E0,5.712864175E-2,-5.288137794E-1,-9.776774406E0
3.794647865E0,4.277170449E-2,-5.168496966E-1,-9.870094299E0
3.804361094E0,4.037888348E-2,-5.048855543E-1,-9.956535339E0
3.814073594E0,5.712864175E-2,-4.833501875E-1,-9.961320877E0
3.823786979E0,7.866404206E-2,-5.072783828E-1,-9.987641335E0
3.833501042E0,1.001994461E-1,-5.096712112E-1,-9.997213364E0
3.843214375E0,8.823533356E-2,-5.216353536E-1,-9.970891953E0
3.852926823E0,4.516452923E-2,-5.192425251E-1,-9.905986786E0
3.862640208E0,1.405783277E-2,-5.359922647E-1,-9.838987350E0
3.872354271E0,4.995017126E-2,-5.192425251E-1,-9.827023506E0
3.882067500E0,1.001994461E-1,-5.240281820E-1,-9.836594582E0
3.891780052E0,1.384846121E-1,-5.072783828E-1,-9.846165657E0
3.901493385E0,9.541380405E-2,-5.120640397E-1,-9.882058144E0
3.911207448E0,5.234299600E-2,-4.905286431E-1,-9.934999466E0
3.920920781E0,3.080759197E-2,-4.666004181E-1,-9.954142570E0
3.930633229E0,6.191428751E-2,-4.522434771E-1,-9.932606697E0
3.940346615E0,6.669992954E-2,-4.809573591E-1,-9.879665375E0
3.950060677E0,5.473581702E-2,-5.096712112E-1,-9.867701530E0
3.959773906E0,6.191428751E-2,-5.383850932E-1,-9.884450912E0
3.969486458E0,6.191428751E-2,-5.742774606E-1,-9.903594017E0
3.979199792E0,5.712864175E-2,-5.862415433E-1,-9.942177773E0
3.988913906E0,4.037888348E-2,-5.934200287E-1,-9.994820595E0
3.998627135E0,-9.870393202E-3,-5.335994363E-1,-1.000439167E1
4.008339635E0,4.486542661E-3,-4.785645306E-1,-9.932606697E0
4.018053021E0,3.798605874E-2,-4.402793646E-1,-9.877272606E0
4.027767083E0,6.430710852E-2,-4.211367965E-1,-9.827023506E0
4.037480417E0,5.473581702E-2,-4.163511395E-1,-9.788738251E0
4.047192865E0,1.405783277E-2,-4.498506486E-1,-9.831809044E0
4.056906198E0,2.602194622E-2,-5.240281820E-1,-9.925428391E0
4.066620312E0,4.755735025E-2,-5.790630579E-1,-1.002831936E1
4.076333542E0,7.148557901E-2,-6.125625968E-1,-1.006660461E1
4.086046042E0,8.584251255E-2,-6.125625968E-1,-1.003549862E1
4.095759427E0,6.430710852E-2,-5.814558864E-1,-9.925428391E0
4.105473490E0,5.234299600E-2,-5.479564071E-1,-9.843772888E0
4.115186823E0,4.277170449E-2,-5.072783828E-1,-9.786345482E0
4.124899271E0,1.884347759E-2,-4.618147612E-1,-9.755238533E0
4.134612604E0,9.272187948E-3,-4.402793646E-1,-9.836594582E0
4.144326719E0,7.387840003E-2,-4.211367965E-1,-9.939785004E0
4.154039948E0,1.289133132E-1,-4.450650215E-1,-9.975677490E0
4.163752448E0,1.408774406E-1,-4.713860750E-1,-9.958928108E0
4.173465833E0,1.217348501E-1,-4.857429862E-1,-9.884450912E0
4.183179896E0,9.780662507E-2,-4.977070987E-1,-9.791131020E0
4.192893229E0,5.234299600E-2,-5.000999570E-1,-9.798309326E0
4.202605677E0,1.166501082E-2,-5.192425251E-1,-9.894022942E0
4.212319010E0,2.123630047E-2,-5.264210105E-1,-1.000199890E1
4.222033125E0,4.277170449E-2,-5.288137794E-1,-1.006181908E1
4.231746354E0,7.866404206E-2,-5.407779217E-1,-1.003310490E1
4.241458854E0,1.001994461E-1,-5.192425251E-1,-9.930213928E0
4.251172240E0,7.148557901E-2,-5.096712112E-1,-9.874879837E0
4.260886302E0,7.866404206E-2,-5.072783828E-1,-9.855737686E0
4.270599531E0,7.148557901E-2,-5.120640397E-1,-9.831809044E0
4.280312083E0,4.277170449E-2,-5.431707501E-1,-9.803094864E0
4.290025417E0,2.093719784E-3,-5.407779217E-1,-9.879665375E0
4.299739531E0,9.272187948E-3,-5.335994363E-1,-9.980463028E0
4.309452760E0,2.602194622E-2,-5.072783828E-1,-1.004028416E1
4.319165260E0,3.798605874E-2,-4.881358147E-1,-1.000439167E1
4.328878646E0,2.362912335E-2,-4.689932466E-1,-9.920642853E0
4.338592708E0,4.037888348E-2,-4.761717021E-1,-9.841380119E0
4.348306042E0,7.148557901E-2,-4.857429862E-1,-9.707382202E0
4.358018490E0,5.712864175E-2,-5.072783828E-1,-9.678668022E0
4.367731823E0,3.320041299E-2,-5.312066078E-1,-9.831809044E0
4.377445937E0,7.387840003E-2,-5.216353536E-1,-1.002114105E1
4.387159167E0,1.265204996E-1,-5.168496966E-1,-1.010010433E1
4.396871667E0,1.695913076E-1,-5.024927258E-1,-1.004506969E1
4.406585052E0,1.552343667E-1,-5.168496966E-1,-9.903594017E0
4.416299115E0,1.073779166E-1,-4.977070987E-1,-9.798309326E0
4.426012448E0,7.387840003E-2,-4.977070987E-1,-9.805487633E0
4.435724896E0,5.473581702E-2,-5.096712112E-1,-9.884450912E0
4.445438229E0,8.584251255E-2,-5.288137794E-1,-9.975677490E0
4.455152344E0,1.265204996E-1,-5.359922647E-1,-1.003549862E1
4.464865573E0,1.336989701E-1,-5.264210105E-1,-1.003310490E1
4.474578073E0,9.541380405E-2,-5.216353536E-1,-9.968499184E0
4.484291458E0,3.559323773E-2,-5.240281820E-1,-9.908379555E0
4.494005521E0,-2.991028305E-4,-5.096712112E-1,-9.920642853E0
4.503718854E0,-2.662015148E-2,-5.048855543E-1,-9.918250084E0
4.513431302E0,-2.901297435E-2,-4.833501875E-1,-9.865308762E0
4.523144635E0,9.272187948E-3,-4.881358147E-1,-9.860523224E0
4.532858750E0,3.798605874E-2,-4.953143001E-1,-9.870094299E0
4.542571979E0,6.909275055E-2,-5.096712112E-1,-9.879665375E0
4.552284479E0,4.995017126E-2,-5.096712112E-1,-9.903594017E0
4.561997865E0,2.841476910E-2,-4.905286431E-1,-9.923035622E0
4.571711927E0,4.486542661E-3,-4.689932466E-1,-9.942177773E0
4.581425260E0,-1.944168471E-2,-4.929214716E-1,-9.973284721E0
4.591137708E0,-4.097708687E-2,-5.216353536E-1,-9.954142570E0
4.600851042E0,-5.533402413E-2,-5.383850932E-1,-9.901201248E0
4.610565156E0,-3.858426586E-2,-5.407779217E-1,-9.815059662E0
4.620278385E0,-9.870393202E-3,-5.359922647E-1,-9.795916557E0
4.629990885E0,5.473581702E-2,-5.431707501E-1,-9.860523224E0
4.639704271E0,1.025922745E-1,-5.359922647E-1,-9.968499184E0
4.649418333E0,1.217348501E-1,-5.383850932E-1,-1.003549862E1
4.659131667E0,8.344969153E-2,-5.192425251E-1,-1.003310490E1
4.668844115E0,6.909275055E-2,-4.833501875E-1,-9.994820595E0
4.678557448E0,1.001994461E-1,-4.929214716E-1,-9.951749802E0
4.688271562E0,1.265204996E-1,-4.977070987E-1,-9.966106415E0
4.697984792E0,1.193420291E-1,-5.000999570E-1,-9.894022942E0
4.707697344E0,1.145563871E-1,-4.881358147E-1,-9.771988869E0
4.717410677E0,1.073779166E-1,-4.857429862E-1,-9.724132538E0
4.727124740E0,1.169492081E-1,-4.953143001E-1,-9.807881355E0
4.736838073E0,1.217348501E-1,-5.144568682E-1,-9.920642853E0
4.746550521E0,7.148557901E-2,-5.359922647E-1,-9.997213364E0
4.756263906E0,2.123630047E-2,-5.455635786E-1,-9.999606133E0
4.765977969E0,2.602194622E-2,-5.455635786E-1,-9.939785004E0
4.775691198E0,2.602194622E-2,-5.288137794E-1,-9.920642853E0
4.785403750E0,-1.226321608E-2,-5.096712112E-1,-9.927821159E0
4.795117083E0,2.093719784E-3,-5.000999570E-1,-9.874879837E0
4.804831198E0,4.037888348E-2,-5.024927258E-1,-9.824630737E0
4.814544427E0,7.387840003E-2,-5.072783828E-1,-9.831809044E0
4.824256927E0,9.062815458E-2,-5.312066078E-1,-9.884450912E0
4.833970312E0,6.909275055E-2,-5.335994363E-1,-9.932606697E0
4.843684375E0,6.191428751E-2,-5.216353536E-1,-9.985248566E0
4.853397708E0,4.277170449E-2,-5.359922647E-1,-9.930213928E0
4.863110156E0,3.798605874E-2,-5.216353536E-1,-9.884450912E0
4.872823490E0,2.841476910E-2,-5.288137794E-1,-9.934999466E0
4.882537604E0,6.430710852E-2,-5.312066078E-1,-9.963713646E0
4.892250833E0,7.866404206E-2,-5.144568682E-1,-9.954142570E0
4.901963333E0,8.344969153E-2,-5.120640397E-1,-9.913165092E0
4.911676719E0,6.909275055E-2,-5.192425251E-1,-9.877272606E0
4.921390781E0,1.001994461E-1,-4.953143001E-1,-9.862915993E0
4.931104115E0,1.193420291E-1,-4.689932466E-1,-9.807881355E0
4.940816562E0,9.302098304E-2,-4.594219327E-1,-9.795916557E0
4.950529896E0,3.559323773E-2,-4.666004181E-1,-9.862915993E0
4.960244010E0,2.362912335E-2,-4.953143001E-1,-9.954142570E0
4.969957240E0,1.645065658E-2,-5.024927258E-1,-1.002353382E1
4.979669792E0,1.645065658E-2,-5.048855543E-1,-1.002114105E1
4.989383125E0,6.430710852E-2,-5.120640397E-1,-9.939785004E0
4.999097187E0,1.001994461E-1,-5.264210105E-1,-9.872487068E0
5.008810521E0,1.025922745E-1,-5.264210105E-1,-9.853344917E0
5.018522969E0,1.097707376E-1,-5.240281820E-1,-9.891630173E0
5.028236302E0,9.541380405E-2,-5.359922647E-1,-9.920642853E0
5.037950417E0,4.755735025E-2,-5.288137794E-1,-9.923035622E0
5.047663646E0,2.093719784E-3,-5.120640397E-1,-9.894022942E0
5.057376198E0,-2.991028305E-4,-4.929214716E-1,-9.877272606E0
5.067089531E0,9.272187948E-3,-4.618147612E-1,-9.896415710E0
5.076803646E0,2.841476910E-2,-4.737788737E-1,-9.920642853E0
5.086516875E0,9.062815458E-2,-4.881358147E-1,-9.889236450E0
5.096229375E0,1.145563871E-1,-5.216353536E-1,-9.882058144E0
5.105942760E0,1.097707376E-1,-5.359922647E-1,-9.894022942E0
5.115656823E0,1.073779166E-1,-5.312066078E-1,-9.937392235E0
5.125370052E0,9.541380405E-2,-5.288137794E-1,-9.937392235E0
5.135082604E0,3.080759197E-2,-5.192425251E-1,-9.886843681E0
5.144795937E0,-1.704886183E-2,-5.168496966E-1,-9.889236450E0
5.154510052E0,-4.815555736E-2,-5.288137794E-1,-9.908379555E0
5.164223281E0,-7.477570791E-3,-5.192425251E-1,-9.915857315E0
5.173935781E0,7.148557901E-2,-5.216353536E-1,-9.932606697E0
5.183649167E0,8.344969153E-2,-5.168496966E-1,-9.982855797E0
5.193363229E0,1.001994461E-1,-4.977070987E-1,-9.961320877E0
5.203076562E0,1.073779166E-1,-4.809573591E-1,-9.920642853E0
5.212789010E0,9.541380405E-2,-4.666004181E-1,-9.855737686E0
5.222502344E0,9.302098304E-2,-4.809573591E-1,-9.795916557E0
5.232216458E0,8.584251255E-2,-4.977070987E-1,-9.843772888E0
5.241929687E0,7.387840003E-2,-5.168496966E-1,-9.886843681E0
5.251642187E0,1.169492081E-1,-5.192425251E-1,-9.937392235E0
5.261355573E0,1.336989701E-1,-5.096712112E-1,-9.942177773E0
5.271069635E0,9.780662507E-2,-5.120640397E-1,-9.920642853E0
5.280782969E0,5.952146277E-2,-4.833501875E-1,-9.956535339E0
5.290495417E0,4.516452923E-2,-4.881358147E-1,-1.001156998E1
5.300208750E0,5.712864175E-2,-4.905286431E-1,-9.978070259E0
5.309922865E0,3.080759197E-2,-5.072783828E-1,-9.846165657E0
5.319636094E0,-2.691925503E-3,-5.024927258E-1,-9.719346046E0
5.329348594E0,4.277170449E-2,-5.192425251E-1,-9.714560509E0
5.339061979E0,5.473581702E-2,-5.288137794E-1,-9.812666893E0
5.348776042E0,9.302098304E-2,-5.144568682E-1,-9.954142570E0
5.358489375E0,1.121635586E-1,-5.144568682E-1,-1.000199890E1
5.368201823E0,1.001994461E-1,-5.288137794E-1,-9.997213364E0
5.377915156E0,7.148557901E-2,-5.288137794E-1,-9.946963310E0
5.387629271E0,4.277170449E-2,-5.168496966E-1,-9.949356079E0
5.397342500E0,-2.991028305E-4,-4.977070987E-1,-9.891630173E0
5.407055052E0,2.841476910E-2,-4.833501875E-1,-9.812666893E0
5.416768385E0,7.148557901E-2,-5.000999570E-1,-9.776774406E0
5.426482448E0,8.344969153E-2,-5.168496966E-1,-9.853344917E0
5.436195781E0,7.387840003E-2,-5.288137794E-1,-9.985248566E0
5.445908229E0,7.866404206E-2,-5.335994363E-1,-1.000439167E1
5.455621562E0,8.105687052E-2,-5.168496966E-1,-9.958928108E0
5.465335677E0,7.148557901E-2,-4.953143001E-1,-9.877272606E0
5.475048906E0,7.148557901E-2,-4.833501875E-1,-9.848558426E0
5.484761458E0,1.025922745E-1,-4.953143001E-1,-9.903594017E0
5.494474792E0,9.780662507E-2,-4.977070987E-1,-9.942177773E0
5.504188854E0,1.217348501E-1,-4.929214716E-1,-9.951749802E0
5.513902187E0,1.480558962E-1,-4.953143001E-1,-9.910772324E0
5.523614635E0,1.313061416E-1,-4.977070987E-1,-9.896415710E0
5.533327969E0,7.866404206E-2,-5.072783828E-1,-9.915857315E0
5.543042083E0,5.234299600E-2,-4.857429862E-1,-9.961320877E0
5.552755312E0,5.234299600E-2,-5.048855543E-1,-9.968499184E0
5.562467865E0,7.866404206E-2,-5.168496966E-1,-9.918250084E0
5.572181198E0,1.169492081E-1,-5.288137794E-1,-9.867701530E0
5.581895260E0,9.062815458E-2,-5.288137794E-1,-9.867701530E0
5.591608594E0,4.755735025E-2,-5.240281820E-1,-9.886843681E0
5.601321042E0,2.362912335E-2,-5.000999570E-1,-9.898808479E0
5.611034427E0,4.995017126E-2,-5.000999570E-1,-9.898808479E0
5.620748490E0,2.602194622E-2,-4.977070987E-1,-9.874879837E0
5.630461719E0,1.405783277E-2,-4.761717021E-1,-9.836594582E0
5.640174271E0,2.123630047E-2,-4.474578202E-1,-9.836594582E0
5.649887604E0,6.191428751E-2,-4.689932466E-1,-9.882058144E0
5.659601667E0,9.780662507E-2,-4.977070987E-1,-9.985248566E0
5.669315000E0,1.049850956E-1,-5.096712112E-1,-1.002114105E1
5.679027448E0,7.627122104E-2,-5.192425251E-1,-9.982855797E0
5.688740781E0,2.841476910E-2,-5.096712112E-1,-9.884450912E0
5.698454896E0,4.037888348E-2,-5.359922647E-1,-9.855737686E0
5.708168125E0,3.798605874E-2,-5.479564071E-1,-9.891630173E0
5.717880677E0,6.909275055E-2,-5.335994363E-1,-9.913165092E0
5.727594010E0,1.193420291E-1,-5.264210105E-1,-9.918250084E0
5.737308073E0,1.552343667E-1,-5.168496966E-1,-9.889236450E0
5.747021406E0,1.384846121E-1,-5.216353536E-1,-9.915857315E0
5.756733854E0,8.823533356E-2,-5.024927258E-1,-9.942177773E0
5.766447187E0,3.559323773E-2,-5.168496966E-1,-9.949356079E0
5.776161302E0,2.123630047E-2,-4.881358147E-1,-9.923035622E0
5.785874531E0,7.627122104E-2,-4.713860750E-1,-9.913165092E0
5.795587031E0,1.265204996E-1,-4.689932466E-1,-9.891630173E0
5.805300417E0,1.504487246E-1,-4.570291340E-1,-9.858130455E0
5.815014479E0,1.360917836E-1,-4.666004181E-1,-9.803094864E0
5.824727812E0,1.025922745E-1,-4.737788737E-1,-9.819845200E0
5.834440260E0,9.780662507E-2,-4.761717021E-1,-9.874879837E0
5.844153594E0,9.302098304E-2,-4.905286431E-1,-9.923035622E0
5.853867708E0,9.302098304E-2,-5.192425251E-1,-9.951749802E0
5.863580937E0,6.430710852E-2,-5.240281820E-1,-9.982855797E0
5.873293437E0,3.080759197E-2,-5.072783828E-1,-9.958928108E0
5.883006823E0,-2.691925503E-3,-5.096712112E-1,-9.872487068E0
5.892720885E0,-2.183450572E-2,-5.144568682E-1,-9.829416275E0
5.902434219E0,1.645065658E-2,-5.216353536E-1,-9.882058144E0
5.912146667E0,1.336989701E-1,-5.144568682E-1,-9.956535339E0
5.921860000E0,1.863410622E-1,-5.216353536E-1,-9.961320877E0
5.931574115E0,1.265204996E-1,-5.240281820E-1,-9.932606697E0
5.941287344E0,5.473581702E-2,-5.359922647E-1,-9.886843681E0
5.950999844E0,1.166501082E-2,-5.264210105E-1,-9.872487068E0
5.960713177E0,-2.991028305E-4,-5.240281820E-1,-9.898808479E0
5.970427292E0,1.884347759E-2,-5.000999570E-1,-9.918250084E0
5.980140521E0,1.645065658E-2,-4.977070987E-1,-9.886843681E0
5.989853073E0,3.559323773E-2,-4.833501875E-1,-9.829416275E0
5.999566406E0,5.234299600E-2,-4.642075896E-1,-9.817452431E0
6.009280469E0,7.627122104E-2,-4.857429862E-1,-9.886843681E0
6.018993802E0,8.105687052E-2,-4.881358147E-1,-9.923035622E0
6.028706250E0,7.627122104E-2,-4.833501875E-1,-9.918250084E0
6.038419583E0,9.062815458E-2,-4.905286431E-1,-9.879665375E0
6.048133698E0,1.241276711E-1,-4.977070987E-1,-9.867701530E0
6.057846927E0,1.289133132E-1,-4.929214716E-1,-9.898808479E0
6.067559427E0,1.432702541E-1,-5.048855543E-1,-9.913165092E0
6.077272812E0,1.815554202E-1,-5.024927258E-1,-9.956535339E0
6.086986875E0,1.911267042E-1,-5.264210105E-1,-9.997213364E0
6.096700208E0,1.983051747E-1,-5.359922647E-1,-9.975677490E0
6.106412656E0,1.384846121E-1,-5.072783828E-1,-9.932606697E0
6.116125990E0,3.080759197E-2,-4.785645306E-1,-9.927821159E0
6.125840104E0,-2.901297435E-2,-4.761717021E-1,-9.867701530E0
6.135553333E0,-1.944168471E-2,-4.785645306E-1,-9.771988869E0
6.145265833E0,-1.704886183E-2,-5.000999570E-1,-9.757631302E0
6.154979167E0,2.362912335E-2,-5.216353536E-1,-9.812666893E0
6.164693281E0,9.062815458E-2,-5.288137794E-1,-9.920642853E0
6.174406510E0,1.384846121E-1,-5.407779217E-1,-1.000917721E1
6.184119062E0,1.384846121E-1,-5.312066078E-1,-1.004028416E1
6.193832396E0,1.336989701E-1,-5.072783828E-1,-9.985248566E0
6.203546458E0,4.995017126E-2,-4.761717021E-1,-9.901201248E0
6.213259792E0,-3.619144112E-2,-4.546363056E-1,-9.855737686E0
6.222972240E0,-4.576273263E-2,-4.426721931E-1,-9.827023506E0
6.232685573E0,-1.704886183E-2,-4.354937077E-1,-9.824630737E0
6.242399687E0,9.272187948E-3,-4.570291340E-1,-9.884450912E0
6.252112917E0,1.166501082E-2,-4.881358147E-1,-9.898808479E0
6.261825417E0,1.645065658E-2,-5.288137794E-1,-9.882058144E0
6.271538802E0,7.387840003E-2,-5.455635786E-1,-9.872487068E0
6.281252865E0,7.627122104E-2,-5.479564071E-1,-9.908379555E0
6.290966094E0,8.823533356E-2,-5.335994363E-1,-9.951749802E0
6.300678646E0,1.073779166E-1,-5.335994363E-1,-9.978070259E0
6.310391979E0,1.552343667E-1,-5.240281820E-1,-1.000678444E1
6.320106042E0,1.887338907E-1,-5.192425251E-1,-9.968499184E0
6.329819375E0,1.839482337E-1,-5.024927258E-1,-9.889236450E0
6.339531823E0,1.648056656E-1,-4.737788737E-1,-9.858130455E0
6.349245156E0,1.217348501E-1,-4.905286431E-1,-9.901201248E0
6.358959271E0,9.780662507E-2,-4.977070987E-1,-9.946963310E0
6.368672500E0,1.360917836E-1,-4.857429862E-1,-9.891630173E0
6.378385000E0,1.504487246E-1,-4.881358147E-1,-9.846165657E0
6.388098385E0,1.217348501E-1,-4.785645306E-1,-9.846165657E0
6.397812448E0,6.909275055E-2,-4.618147612E-1,-9.850952148E0
6.407525677E0,5.712864175E-2,-4.450650215E-1,-9.862915993E0
6.417238229E0,7.627122104E-2,-4.713860750E-1,-9.925428391E0
6.426951562E0,7.387840003E-2,-5.096712112E-1,-9.987641335E0
6.436665625E0,6.430710852E-2,-5.455635786E-1,-1.000439167E1
6.446378958E0,6.430710852E-2,-5.742774606E-1,-9.982855797E0
6.456091406E0,9.541380405E-2,-5.886343718E-1,-9.920642853E0
6.465804740E0,1.265204996E-1,-5.647061467E-1,-9.829416275E0
6.475518854E0,9.780662507E-2,-5.431707501E-1,-9.791131020E0
6.485232083E0,5.473581702E-2,-4.953143001E-1,-9.788738251E0
6.494944583E0,4.755735025E-2,-4.546363056E-1,-9.827023506E0
6.504657969E0,3.320041299E-2,-4.259224236E-1,-9.898808479E0
6.514372031E0,3.080759197E-2,-4.522434771E-1,-1.001635551E1
6.524085260E0,5.234299600E-2,-4.594219327E-1,-1.003789139E1
6.533797812E0,1.169492081E-1,-5.048855543E-1,-9.982855797E0
6.543511146E0,1.480558962E-1,-5.479564071E-1,-9.877272606E0
6.553225208E0,1.480558962E-1,-5.742774606E-1,-9.834201813E0
6.562938542E0,1.408774406E-1,-5.790630579E-1,-9.855737686E0
6.572650990E0,1.408774406E-1,-5.527420044E-1,-9.894022942E0
6.582364323E0,1.528415531E-1,-5.335994363E-1,-9.963713646E0
6.592078437E0,1.384846121E-1,-5.288137794E-1,-1.002831936E1
6.601791667E0,9.780662507E-2,-5.335994363E-1,-1.002592659E1
6.611504167E0,7.148557901E-2,-5.216353536E-1,-9.963713646E0
6.621217500E0,6.879365072E-3,-5.048855543E-1,-9.870094299E0
6.630931615E0,-3.140579537E-2,-4.905286431E-1,-9.791131020E0
6.640644844E0,-7.208377868E-2,-4.761717021E-1,-9.736096382E0
6.650357344E0,-6.490531564E-2,-4.809573591E-1,-9.771988869E0
6.660070729E0,-5.084747914E-3,-4.761717021E-1,-9.886843681E0
6.669784792E0,2.602194622E-2,-4.953143001E-1,-9.987641335E0
6.679498125E0,3.798605874E-2,-4.809573591E-1,-9.939785004E0
6.689210573E0,4.277170449E-2,-4.713860750E-1,-9.870094299E0
6.698923906E0,6.909275055E-2,-4.642075896E-1,-9.855737686E0
6.708637969E0,1.384846121E-1,-4.833501875E-1,-9.908379555E0
6.718351302E0,1.217348501E-1,-4.953143001E-1,-9.910772324E0
6.728063750E0,6.909275055E-2,-5.096712112E-1,-9.874879837E0
6.737777083E0,2.093719784E-3,-5.096712112E-1,-9.889236450E0
6.747491198E0,2.093719784E-3,-5.192425251E-1,-9.920642853E0
6.757204427E0,3.798605874E-2,-5.288137794E-1,-9.978070259E0
6.766916927E0,6.191428751E-2,-5.240281820E-1,-1.001874828E1
6.776630312E0,8.584251255E-2,-4.953143001E-1,-9.908379555E0
6.786344375E0,1.025922745E-1,-4.809573591E-1,-9.803094864E0
6.796057604E0,8.344969153E-2,-5.096712112E-1,-9.776774406E0
6.805770104E0,4.516452923E-2,-5.240281820E-1,-9.862915993E0
6.815483490E0,4.277170449E-2,-5.431707501E-1,-9.963713646E0
6.825197552E0,5.234299600E-2,-5.431707501E-1,-1.000439167E1
6.834910885E0,4.037888348E-2,-5.431707501E-1,-1.000439167E1
6.844623333E0,5.234299600E-2,-5.431707501E-1,-9.942177773E0
6.854336667E0,8.823533356E-2,-5.359922647E-1,-9.843772888E0
6.864050729E0,1.169492081E-1,-5.503492355E-1,-9.838987350E0
6.873764062E0,1.145563871E-1,-5.407779217E-1,-9.889236450E0
6.883476510E0,1.169492081E-1,-5.072783828E-1,-9.954142570E0
6.893189844E0,1.384846121E-1,-5.048855543E-1,-9.992427826E0
6.902903958E0,1.528415531E-1,-4.953143001E-1,-9.958928108E0
6.912617187E0,1.552343667E-1,-4.833501875E-1,-9.930213928E0
6.922329687E0,1.097707376E-1,-4.713860750E-1,-9.862915993E0
6.932043021E0,8.344969153E-2,-4.594219327E-1,-9.807881355E0
6.941757135E0,6.909275055E-2,-4.450650215E-1,-9.798309326E0
6.951470365E0,5.952146277E-2,-4.689932466E-1,-9.831809044E0
6.961182865E0,5.473581702E-2,-5.072783828E-1,-9.980463028E0
6.970896250E0,5.712864175E-2,-5.431707501E-1,-1.005224800E1
6.980610312E0,5.952146277E-2,-5.383850932E-1,-1.002831936E1
6.990323646E0,3.080759197E-2,-5.288137794E-1,-9.925428391E0
7.000036094E0,1.405783277E-2,-5.312066078E-1,-9.858130455E0
7.009749427E0,3.320041299E-2,-5.264210105E-1,-9.831809044E0
7.019463490E0,5.234299600E-2,-5.168496966E-1,-9.793523788E0
7.029176823E0,6.909275055E-2,-4.857429862E-1,-9.774381638E0
7.038889271E0,3.798605874E-2,-4.713860750E-1,-9.781559944E0
7.048602604E0,2.123630047E-2,-4.618147612E-1,-9.867701530E0
7.058316719E0,2.841476910E-2,-4.713860750E-1,-9.970891953E0
7.068029948E0,5.712864175E-2,-4.953143001E-1,-1.007617569E1
7.077742448E0,7.387840003E-2,-5.240281820E-1,-1.007378292E1
7.087455781E0,7.627122104E-2,-5.359922647E-1,-9.968499184E0
7.097169896E0,1.025922745E-1,-5.503492355E-1,-9.803094864E0
7.106883125E0,9.780662507E-2,-5.647061467E-1,-9.774381638E0
7.116595625E0,1.073779166E-1,-5.670989752E-1,-9.855737686E0
7.126309010E0,1.360917836E-1,-5.479564071E-1,-9.968499184E0
7.136023073E0,1.097707376E-1,-5.144568682E-1,-1.000678444E1
7.145736302E0,8.823533356E-2,-4.881358147E-1,-9.992427826E0
7.155448854E0,8.344969153E-2,-4.642075896E-1,-9.954142570E0
7.165162187E0,1.121635586E-1,-4.666004181E-1,-9.932606697E0
7.174876250E0,1.121635586E-1,-4.570291340E-1,-9.951749802E0
7.184589583E0,7.866404206E-2,-4.689932466E-1,-9.970891953E0
7.194302031E0,4.037888348E-2,-4.881358147E-1,-9.886843681E0
7.204015365E0,4.037888348E-2,-5.120640397E-1,-9.793523788E0
7.213729427E0,5.712864175E-2,-5.216353536E-1,-9.769596100E0
7.223442760E0,1.049850956E-1,-5.168496966E-1,-9.803094864E0
7.233155208E0,1.576271951E-1,-4.833501875E-1,-9.910772324E0
7.242868542E0,1.432702541E-1,-4.689932466E-1,-1.002592659E1
7.252582656E0,1.001994461E-1,-4.642075896E-1,-1.001156998E1
7.262295885E0,7.627122104E-2,-4.666004181E-1,-9.910772324E0
7.272008385E0,3.798605874E-2,-5.120640397E-1,-9.889236450E0
7.281721719E0,3.798605874E-2,-5.312066078E-1,-9.934999466E0
7.291435833E0,8.584251255E-2,-5.599204898E-1,-9.956535339E0
7.301149062E0,1.025922745E-1,-5.790630579E-1,-9.920642853E0
7.310861562E0,1.001994461E-1,-5.718846321E-1,-9.841380119E0
7.320574896E0,7.627122104E-2,-5.312066078E-1,-9.812666893E0
7.330289010E0,1.166501082E-2,-4.857429862E-1,-9.853344917E0
7.340002240E0,-2.662015148E-2,-4.570291340E-1,-9.882058144E0
7.349714740E0,-6.251249462E-2,-4.259224236E-1,-9.905986786E0
7.359428125E0,-1.007976532E-1,-4.211367965E-1,-9.930213928E0
7.369142187E0,-1.151545867E-1,-4.402793646E-1,-9.930213928E0
7.378855417E0,-1.079761237E-1,-4.761717021E-1,-9.894022942E0
7.388567969E0,-6.969095767E-2,-5.096712112E-1,-9.817452431E0
7.398281302E0,-3.858426586E-2,-5.455635786E-1,-9.812666893E0
7.407995365E0,-2.183450572E-2,-5.527420044E-1,-9.877272606E0
7.417708698E0,2.123630047E-2,-5.647061467E-1,-9.980463028E0
7.427421146E0,9.062815458E-2,-5.527420044E-1,-1.007378292E1
7.437134479E0,1.384846121E-1,-5.240281820E-1,-1.002114105E1
7.446848542E0,1.695913076E-1,-4.905286431E-1,-9.925428391E0
7.456561875E0,1.791625917E-1,-4.474578202E-1,-9.862915993E0
7.466274323E0,1.695913076E-1,-4.402793646E-1,-9.815059662E0
7.475987656E0,1.695913076E-1,-4.450650215E-1,-9.831809044E0
7.485701719E0,1.576271951E-1,-4.809573591E-1,-9.882058144E0
7.495415052E0,1.648056656E-1,-5.048855543E-1,-9.872487068E0
7.505127500E0,1.911267042E-1,-5.144568682E-1,-9.886843681E0
7.514840833E0,1.863410622E-1,-5.479564071E-1,-9.939785004E0
7.524554948E0,1.336989701E-1,-5.431707501E-1,-9.956535339E0
7.534268177E0,4.037888348E-2,-5.431707501E-1,-9.973284721E0
7.543980677E0,-6.729813665E-2,-5.312066078E-1,-9.942177773E0
7.553694010E0,-8.644071966E-2,-4.977070987E-1,-9.886843681E0
7.563408125E0,-4.097708687E-2,-4.833501875E-1,-9.951749802E0
7.573121354E0,4.486542661E-3,-4.857429862E-1,-9.992427826E0
7.582833854E0,4.755735025E-2,-4.809573591E-1,-9.942177773E0
7.592547187E0,7.387840003E-2,-4.905286431E-1,-9.824630737E0
7.602261302E0,7.627122104E-2,-5.048855543E-1,-9.750452995E0
7.611974531E0,7.387840003E-2,-5.144568682E-1,-9.824630737E0
7.621687031E0,7.866404206E-2,-5.288137794E-1,-9.913165092E0
7.631400417E0,4.037888348E-2,-5.048855543E-1,-9.913165092E0
7.641114479E0,2.093719784E-3,-5.096712112E-1,-9.915857315E0
7.650827708E0,2.362912335E-2,-5.144568682E-1,-9.930213928E0
7.660540208E0,6.909275055E-2,-5.216353536E-1,-9.973284721E0
7.670253594E0,8.823533356E-2,-5.216353536E-1,-9.980463028E0
7.679967656E0,9.780662507E-2,-4.953143001E-1,-9.932606697E0
7.689680885E0,1.073779166E-1,-4.857429862E-1,-9.846165657E0
7.699393437E0,7.866404206E-2,-4.713860750E-1,-9.760024071E0
7.709106771E0,6.909275055E-2,-4.522434771E-1,-9.779167175E0
7.718820833E0,4.995017126E-2,-4.618147612E-1,-9.855737686E0
7.728534167E0,2.362912335E-2,-4.761717021E-1,-9.934999466E0
7.738246615E0,5.712864175E-2,-4.857429862E-1,-1.002831936E1
7.747959948E0,1.001994461E-1,-5.120640397E-1,-1.008574772E1
7.757674010E0,1.121635586E-1,-5.120640397E-1,-1.003549862E1
7.767387344E0,1.289133132E-1,-5.120640397E-1,-9.958928108E0
7.777099792E0,1.576271951E-1,-5.264210105E-1,-9.908379555E0
7.786813125E0,1.360917836E-1,-5.359922647E-1,-9.846165657E0
7.796527187E0,6.909275055E-2,-5.120640397E-1,-9.791131020E0
7.806240521E0,-9.870393202E-3,-4.761717021E-1,-9.774381638E0
7.815952969E0,-5.084747914E-3,-4.809573591E-1,-9.817452431E0
7.825666302E0,4.486542661E-3,-4.905286431E-1,-9.870094299E0
7.835380417E0,1.645065658E-2,-4.737788737E-1,-9.910772324E0
7.845093646E0,2.602194622E-2,-4.785645306E-1,-9.927821159E0
7.854806146E0,7.866404206E-2,-4.905286431E-1,-9.978070259E0
7.864519479E0,1.480558962E-1,-5.240281820E-1,-9.992427826E0
7.874233594E0,1.528415531E-1,-5.264210105E-1,-9.956535339E0
7.883946823E0,9.062815458E-2,-5.168496966E-1,-9.860523224E0
7.893659323E0,4.995017126E-2,-4.953143001E-1,-9.779167175E0
7.903372656E0,3.798605874E-2,-4.594219327E-1,-9.791131020E0
7.913086771E0,5.473581702E-2,-4.761717021E-1,-9.884450912E0
7.922800000E0,4.516452923E-2,-4.905286431E-1,-9.994820595E0
7.932512500E0,4.516452923E-2,-5.120640397E-1,-1.007378292E1
7.942225833E0,6.669992954E-2,-5.551348329E-1,-1.009292603E1
7.951939948E0,5.473581702E-2,-5.599204898E-1,-1.002114105E1
7.961653177E0,3.320041299E-2,-5.527420044E-1,-9.908379555E0
7.971365677E0,-2.691925503E-3,-5.288137794E-1,-9.846165657E0
7.981079010E0,4.995017126E-2,-5.120640397E-1,-9.810274124E0
7.990793125E0,9.062815458E-2,-4.809573591E-1,-9.760024071E0
8.000506354E0,1.001994461E-1,-4.642075896E-1,-9.769596100E0
8.010218854E0,1.265204996E-1,-4.450650215E-1,-9.867701530E0
8.019932187E0,1.289133132E-1,-4.522434771E-1,-9.970891953E0
8.029646302E0,8.584251255E-2,-4.689932466E-1,-9.987641335E0
8.039359531E0,6.909275055E-2,-4.737788737E-1,-9.951749802E0
8.049072031E0,6.669992954E-2,-4.666004181E-1,-9.872487068E0
8.058785365E0,8.584251255E-2,-4.570291340E-1,-9.827023506E0
8.068499479E0,9.302098304E-2,-4.713860750E-1,-9.834201813E0
8.078212708E0,9.780662507E-2,-5.144568682E-1,-9.896415710E0
8.087925208E0,7.627122104E-2,-5.479564071E-1,-9.963713646E0
8.097638594E0,6.669992954E-2,-5.670989752E-1,-9.978070259E0
8.107352656E0,4.755735025E-2,-5.527420044E-1,-9.973284721E0
8.117065885E0,4.516452923E-2,-5.288137794E-1,-9.930213928E0
8.126778385E0,4.037888348E-2,-5.072783828E-1,-9.894022942E0
8.136491771E0,5.952146277E-2,-4.642075896E-1,-9.870094299E0
8.146205833E0,4.516452923E-2,-4.522434771E-1,-9.877272606E0
8.155919062E0,2.602194622E-2,-4.785645306E-1,-9.870094299E0
8.165631562E0,2.123630047E-2,-5.096712112E-1,-9.874879837E0
8.175344948E0,5.234299600E-2,-5.479564071E-1,-9.896415710E0
8.185059010E0,9.541380405E-2,-5.575276613E-1,-9.963713646E0
8.194772240E0,1.145563871E-1,-5.312066078E-1,-9.975677490E0
8.204484740E0,5.473581702E-2,-4.905286431E-1,-9.937392235E0
8.214198125E0,1.166501082E-2,-4.642075896E-1,-9.889236450E0
8.223912187E0,4.037888348E-2,-4.666004181E-1,-9.827023506E0
8.233625417E0,9.062815458E-2,-4.905286431E-1,-9.870094299E0
8.243337917E0,1.265204996E-1,-5.192425251E-1,-9.958928108E0
8.253051302E0,1.552343667E-1,-5.120640397E-1,-1.003071213E1
8.262765365E0,1.552343667E-1,-5.072783828E-1,-1.002114105E1
8.272478594E0,1.289133132E-1,-5.192425251E-1,-9.918250084E0
8.282191094E0,1.193420291E-1,-5.264210105E-1,-9.848558426E0
8.291904479E0,4.995017126E-2,-4.953143001E-1,-9.827023506E0
8.301618542E0,3.080759197E-2,-4.713860750E-1,-9.810274124E0
8.311331771E0,3.559323773E-2,-4.498506486E-1,-9.836594582E0
8.321044271E0,4.516452923E-2,-4.689932466E-1,-9.927821159E0
8.330757656E0,5.712864175E-2,-4.618147612E-1,-1.000678444E1
8.340471719E0,5.952146277E-2,-4.689932466E-1,-1.000439167E1
8.350184948E0,7.627122104E-2,-4.761717021E-1,-9.942177773E0
8.359897500E0,3.798605874E-2,-4.953143001E-1,-9.910772324E0
8.369610833E0,1.405783277E-2,-5.168496966E-1,-9.882058144E0
8.379324896E0,-2.991028305E-4,-5.240281820E-1,-9.824630737E0
8.389038125E0,-2.991028305E-4,-5.407779217E-1,-9.810274124E0
8.398750677E0,4.037888348E-2,-5.335994363E-1,-9.874879837E0
8.408464010E0,8.823533356E-2,-5.192425251E-1,-9.934999466E0
8.418178073E0,1.360917836E-1,-5.024927258E-1,-9.939785004E0
8.427891406E0,1.648056656E-1,-4.905286431E-1,-9.879665375E0
8.437603854E0,1.217348501E-1,-4.881358147E-1,-9.874879837E0
8.447317187E0,4.995017126E-2,-4.761717021E-1,-9.853344917E0
8.457031250E0,-1.944168471E-2,-4.283152521E-1,-9.858130455E0
8.466744583E0,-2.183450572E-2,-4.474578202E-1,-9.903594017E0
8.476457031E0,3.080759197E-2,-4.881358147E-1,-9.980463028E0
8.486170365E0,1.121635586E-1,-5.216353536E-1,-1.003549862E1
8.495884427E0,1.313061416E-1,-5.407779217E-1,-9.975677490E0
8.505597760E0,1.360917836E-1,-5.479564071E-1,-9.891630173E0
8.515310208E0,1.552343667E-1,-5.670989752E-1,-9.894022942E0
8.525023542E0,1.289133132E-1,-5.599204898E-1,-9.951749802E0
8.534737656E0,6.909275055E-2,-5.264210105E-1,-9.958928108E0
8.544450885E0,2.123630047E-2,-5.024927258E-1,-9.939785004E0
8.554163385E0,4.516452923E-2,-4.905286431E-1,-9.905986786E0
8.563876719E0,1.073779166E-1,-4.737788737E-1,-9.879665375E0
8.573590833E0,1.743769497E-1,-4.833501875E-1,-9.923035622E0
8.583304062E0,2.030908167E-1,-4.929214716E-1,-9.944570541E0
8.593016562E0,2.102692872E-1,-4.977070987E-1,-9.949356079E0
8.602729896E0,2.605185509E-1,-5.144568682E-1,-9.901201248E0
8.612444010E0,2.581257522E-1,-5.240281820E-1,-9.843772888E0
8.622157240E0,1.480558962E-1,-5.216353536E-1,-9.815059662E0
8.631869740E0,1.645065658E-2,-4.881358147E-1,-9.767203331E0
8.641583073E0,-6.251249462E-2,-4.618147612E-1,-9.800702095E0
8.651297187E0,-7.686942816E-2,-4.450650215E-1,-9.905986786E0
8.661010417E0,-2.901297435E-2,-4.618147612E-1,-1.002114105E1
8.670722917E0,3.559323773E-2,-4.809573591E-1,-1.008574772E1
8.680436250E0,9.541380405E-2,-5.072783828E-1,-1.004746246E1
8.690150365E0,1.360917836E-1,-5.120640397E-1,-9.925428391E0
8.699863594E0,1.456630826E-1,-5.312066078E-1,-9.836594582E0
8.709576094E0,1.265204996E-1,-5.503492355E-1,-9.824630737E0
8.719289427E0,8.105687052E-2,-5.455635786E-1,-9.874879837E0
8.729003542E0,5.952146277E-2,-5.431707501E-1,-9.927821159E0
8.738716771E0,4.995017126E-2,-5.527420044E-1,-9.949356079E0
8.748429271E0,4.037888348E-2,-5.407779217E-1,-9.908379555E0
8.758142656E0,3.320041299E-2,-5.000999570E-1,-9.865308762E0
8.767856719E0,7.148557901E-2,-4.713860750E-1,-9.841380119E0
8.777569948E0,1.097707376E-1,-4.713860750E-1,-9.850952148E0
8.787282500E0,1.336989701E-1,-4.953143001E-1,-9.915857315E0
8.796995833E0,1.600200087E-1,-5.072783828E-1,-9.925428391E0
8.806709896E0,1.743769497E-1,-5.024927258E-1,-9.956535339E0
8.816423125E0,1.504487246E-1,-5.048855543E-1,-9.990034103E0
8.826135677E0,9.780662507E-2,-5.072783828E-1,-9.994820595E0
8.835849010E0,7.627122104E-2,-5.048855543E-1,-9.968499184E0
8.845563073E0,4.516452923E-2,-5.072783828E-1,-9.946963310E0
8.855276302E0,3.559323773E-2,-5.192425251E-1,-9.896415710E0
8.864988854E0,4.755735025E-2,-5.096712112E-1,-9.872487068E0
8.874702187E0,4.755735025E-2,-4.929214716E-1,-9.831809044E0
8.884416250E0,7.148557901E-2,-4.618147612E-1,-9.769596100E0
8.894129583E0,9.780662507E-2,-4.426721931E-1,-9.795916557E0
8.903842031E0,1.217348501E-1,-4.354937077E-1,-9.824630737E0
8.913555365E0,1.241276711E-1,-4.307080805E-1,-9.894022942E0
8.923269427E0,6.669992954E-2,-4.618147612E-1,-9.992427826E0
8.932982760E0,9.780662507E-2,-4.977070987E-1,-1.007856941E1
8.942695208E0,1.265204996E-1,-5.359922647E-1,-1.006421185E1
8.952408542E0,1.528415531E-1,-5.599204898E-1,-9.975677490E0
8.962122656E0,1.528415531E-1,-5.551348329E-1,-9.918250084E0
8.971835885E0,1.169492081E-1,-5.599204898E-1,-9.867701530E0
8.981548385E0,8.584251255E-2,-5.264210105E-1,-9.860523224E0
8.991261719E0,7.387840003E-2,-5.288137794E-1,-9.860523224E0
9.000975833E0,1.169492081E-1,-5.144568682E-1,-9.862915993E0
9.010689062E0,1.576271951E-1,-4.857429862E-1,-9.886843681E0
9.020401562E0,1.313061416E-1,-4.594219327E-1,-9.910772324E0
9.030114896E0,1.313061416E-1,-4.378865361E-1,-9.920642853E0
9.039829010E0,1.097707376E-1,-4.331009090E-1,-9.910772324E0
9.049542240E0,7.866404206E-2,-4.522434771E-1,-9.934999466E0
9.059254740E0,8.105687052E-2,-4.689932466E-1,-9.925428391E0
9.068968125E0,2.841476910E-2,-5.240281820E-1,-9.925428391E0
9.078682187E0,6.879365072E-3,-5.790630579E-1,-9.903594017E0
9.088395417E0,2.841476910E-2,-5.910272002E-1,-9.894022942E0
9.098107917E0,9.780662507E-2,-5.910272002E-1,-9.889236450E0
9.107821302E0,1.384846121E-1,-5.670989752E-1,-9.884450912E0
9.117535365E0,1.384846121E-1,-5.072783828E-1,-9.930213928E0
9.127248594E0,1.313061416E-1,-4.642075896E-1,-9.963713646E0
9.136961094E0,1.001994461E-1,-4.259224236E-1,-9.980463028E0
9.146674479E0,6.669992954E-2,-4.091726840E-1,-9.954142570E0
9.156388542E0,5.712864175E-2,-4.378865361E-1,-9.930213928E0
9.166101771E0,1.025922745E-1,-4.905286431E-1,-9.930213928E0
9.175814323E0,9.541380405E-2,-5.312066078E-1,-9.908379555E0
9.185527656E0,4.755735025E-2,-5.192425251E-1,-9.867701530E0
9.195241719E0,4.516452923E-2,-4.881358147E-1,-9.836594582E0
9.204955052E0,6.909275055E-2,-4.785645306E-1,-9.853344917E0
9.214667500E0,9.780662507E-2,-4.761717021E-1,-9.937392235E0
9.224380833E0,8.344969153E-2,-4.713860750E-1,-9.942177773E0
9.234094896E0,5.473581702E-2,-4.785645306E-1,-9.877272606E0
9.243808229E0,5.473581702E-2,-4.785645306E-1,-9.810274124E0
9.253520677E0,6.669992954E-2,-4.857429862E-1,-9.815059662E0
9.263234010E0,9.541380405E-2,-5.072783828E-1,-9.879665375E0
9.272948125E0,1.528415531E-1,-5.168496966E-1,-9.949356079E0
9.282661354E0,1.719841212E-1,-5.216353536E-1,-1.001396275E1
9.292373854E0,1.576271951E-1,-5.455635786E-1,-1.002353382E1
9.302087187E0,1.073779166E-1,-5.359922647E-1,-9.968499184E0
9.311801302E0,6.430710852E-2,-5.168496966E-1,-9.915857315E0
9.321514531E0,6.669992954E-2,-5.240281820E-1,-9.898808479E0
9.331227031E0,1.360917836E-1,-5.216353536E-1,-9.918250084E0
9.340940365E0,1.456630826E-1,-5.240281820E-1,-9.843772888E0
9.350654479E0,1.624128371E-1,-5.359922647E-1,-9.838987350E0
9.360367708E0,1.791625917E-1,-5.455635786E-1,-9.901201248E0
9.370080208E0,1.504487246E-1,-5.335994363E-1,-9.963713646E0
9.379793542E0,1.073779166E-1,-5.503492355E-1,-1.000199890E1
9.389507656E0,1.217348501E-1,-5.312066078E-1,-9.990034103E0
9.399220885E0,1.001994461E-1,-5.000999570E-1,-9.925428391E0
9.408933385E0,8.105687052E-2,-4.737788737E-1,-9.872487068E0
9.418646771E0,4.277170449E-2,-4.426721931E-1,-9.891630173E0
9.428360833E0,3.798605874E-2,-4.307080805E-1,-9.846165657E0
9.438074062E0,4.755735025E-2,-4.259224236E-1,-9.771988869E0
9.447786615E0,5.712864175E-2,-4.331009090E-1,-9.786345482E0
9.457499948E0,5.473581702E-2,-4.761717021E-1,-9.891630173E0
9.467214010E0,6.430710852E-2,-4.881358147E-1,-9.951749802E0
9.476927344E0,9.302098304E-2,-5.072783828E-1,-9.985248566E0
9.486639792E0,1.432702541E-1,-5.312066078E-1,-9.980463028E0
9.496353125E0,1.289133132E-1,-5.479564071E-1,-9.954142570E0
9.506067187E0,9.541380405E-2,-5.455635786E-1,-9.913165092E0
9.515780521E0,7.627122104E-2,-5.407779217E-1,-9.903594017E0
9.525492969E0,1.169492081E-1,-5.431707501E-1,-9.915857315E0
9.535206302E0,1.408774406E-1,-5.383850932E-1,-9.910772324E0
9.544920417E0,1.193420291E-1,-5.144568682E-1,-9.915857315E0
9.554633646E0,5.952146277E-2,-4.953143001E-1,-9.925428391E0
9.564346146E0,7.627122104E-2,-4.857429862E-1,-9.867701530E0
9.574059479E0,1.025922745E-1,-4.905286431E-1,-9.850952148E0
9.583773594E0,9.302098304E-2,-5.192425251E-1,-9.920642853E0
9.593486823E0,7.866404206E-2,-5.479564071E-1,-9.997213364E0
9.603199323E0,8.823533356E-2,-5.551348329E-1,-9.985248566E0
9.612912708E0,8.823533356E-2,-5.312066078E-1,-9.934999466E0
9.622626771E0,9.062815458E-2,-5.216353536E-1,-9.891630173E0
9.632340000E0,1.193420291E-1,-4.953143001E-1,-9.894022942E0
9.642052552E0,1.049850956E-1,-4.881358147E-1,-9.923035622E0
9.651765885E0,9.780662507E-2,-5.120640397E-1,-9.908379555E0
9.661479948E0,1.289133132E-1,-5.407779217E-1,-9.824630737E0
9.671193281E0,1.743769497E-1,-5.335994363E-1,-9.757631302E0
9.680905729E0,1.528415531E-1,-5.479564071E-1,-9.853344917E0
9.690619062E0,8.344969153E-2,-5.383850932E-1,-1.002831936E1
9.700333177E0,4.037888348E-2,-4.929214716E-1,-1.012642574E1
9.710046406E0,5.473581702E-2,-4.713860750E-1,-1.004028416E1
9.719758906E0,7.627122104E-2,-4.642075896E-1,-9.829416275E0
9.729472240E0,8.823533356E-2,-4.666004181E-1,-9.738489151E0
9.739186354E0,1.169492081E-1,-4.785645306E-1,-9.743274689E0
9.748899583E0,1.600200087E-1,-4.881358147E-1,-9.855737686E0
9.758612083E0,1.671984792E-1,-5.240281820E-1,-1.001396275E1
9.768325469E0,1.504487246E-1,-5.335994363E-1,-1.008574772E1
9.778039531E0,5.952146277E-2,-5.096712112E-1,-1.001396275E1
9.787752760E0,2.093719784E-3,-4.953143001E-1,-9.923035622E0
9.797465312E0,-9.870393202E-3,-4.857429862E-1,-9.843772888E0
9.807178646E0,9.272187948E-3,-5.000999570E-1,-9.819845200E0
9.816892708E0,4.995017126E-2,-5.216353536E-1,-9.834201813E0
9.826606042E0,1.145563871E-1,-5.551348329E-1,-9.891630173E0
9.836318490E0,1.600200087E-1,-5.670989752E-1,-9.970891953E0
9.846031823E0,1.863410622E-1,-5.551348329E-1,-1.002353382E1
9.855745937E0,1.456630826E-1,-5.096712112E-1,-9.949356079E0
9.865459167E0,8.344969153E-2,-4.857429862E-1,-9.776774406E0
9.875171667E0,3.080759197E-2,-4.905286431E-1,-9.702596664E0
9.884885000E0,3.559323773E-2,-5.288137794E-1,-9.836594582E0
9.894599115E0,1.025922745E-1,-5.527420044E-1,-1.006181908E1
9.904312344E0,1.624128371E-1,-5.766702294E-1,-1.017188931E1
9.914024844E0,1.719841212E-1,-5.886343718E-1,-1.005224800E1
9.923738229E0,1.480558962E-1,-5.694918036E-1,-9.872487068E0
9.933452292E0,7.866404206E-2,-5.335994363E-1,-9.755238533E0
9.943165521E0,3.320041299E-2,-4.666004181E-1,-9.755238533E0
9.952878073E0,5.712864175E-2,-4.522434771E-1,-9.831809044E0
9.962591406E0,1.145563871E-1,-5.024927258E-1,-9.973284721E0
9.972305469E0,1.576271951E-1,-5.335994363E-1,-1.001156998E1
9.982018802E0,1.648056656E-1,-5.383850932E-1,-9.937392235E0
9.991731250E0,1.360917836E-1,-5.192425251E-1,-9.853344917E0
1.000144458E1,6.909275055E-2,-4.881358147E-1,-9.812666893E0
1.001115870E1,3.320041299E-2,-4.570291340E-1,-9.867701530E0
1.002087193E1,3.798605874E-2,-4.666004181E-1,-9.913165092E0
1.003058443E1,8.584251255E-2,-4.785645306E-1,-9.958928108E0
1.004029776E1,1.528415531E-1,-5.096712112E-1,-9.997213364E0
1.005001188E1,1.576271951E-1,-5.335994363E-1,-9.987641335E0
1.005972510E1,1.025922745E-1,-5.407779217E-1,-9.865308762E0
1.006943760E1,3.080759197E-2,-5.503492355E-1,-9.788738251E0
1.007915099E1,-2.991028305E-4,-5.144568682E-1,-9.817452431E0
1.008886505E1,5.234299600E-2,-5.144568682E-1,-9.891630173E0
1.009857828E1,1.097707376E-1,-5.072783828E-1,-9.958928108E0
1.010829083E1,1.552343667E-1,-5.240281820E-1,-1.000199890E1
1.011800417E1,1.743769497E-1,-5.335994363E-1,-1.000199890E1
1.012771823E1,1.360917836E-1,-5.240281820E-1,-9.961320877E0
1.013743156E1,8.344969153E-2,-5.072783828E-1,-9.896415710E0
1.014714401E1,7.148557901E-2,-4.977070987E-1,-9.795916557E0
1.015685734E1,8.105687052E-2,-5.096712112E-1,-9.736096382E0
1.016657146E1,7.627122104E-2,-5.120640397E-1,-9.795916557E0
1.017628469E1,1.025922745E-1,-5.216353536E-1,-9.927821159E0
1.018599719E1,1.600200087E-1,-5.168496966E-1,-1.006899738E1
1.019571052E1,1.743769497E-1,-4.953143001E-1,-1.009531879E1
1.020542464E1,1.648056656E-1,-4.905286431E-1,-1.001396275E1
1.021513786E1,1.097707376E-1,-4.881358147E-1,-9.910772324E0
1.022485036E1,7.148557901E-2,-5.120640397E-1,-9.788738251E0
1.023456375E1,4.995017126E-2,-5.335994363E-1,-9.693025589E0
1.024427781E1,5.712864175E-2,-5.240281820E-1,-9.726525307E0
1.025399115E1,7.627122104E-2,-5.240281820E-1,-9.867701530E0
1.026370359E1,1.384846121E-1,-5.048855543E-1,-1.007378292E1
1.027341693E1,1.911267042E-1,-5.335994363E-1,-1.018385315E1
1.028313104E1,1.839482337E-1,-5.168496966E-1,-1.008335495E1
1.029284427E1,1.169492081E-1,-5.048855543E-1,-9.934999466E0
1.030255677E1,6.909275055E-2,-4.857429862E-1,-9.786345482E0
1.031227010E1,6.430710852E-2,-5.000999570E-1,-9.750452995E0
1.032198422E1,6.909275055E-2,-5.144568682E-1,-9.803094864E0
1.033169745E1,1.097707376E-1,-5.288137794E-1,-9.886843681E0
1.034140995E1,1.528415531E-1,-5.072783828E-1,-9.949356079E0
1.035112328E1,1.480558962E-1,-5.000999570E-1,-9.963713646E0
1.036083740E1,1.049850956E-1,-4.761717021E-1,-9.978070259E0
1.037055062E1,1.097707376E-1,-4.689932466E-1,-9.942177773E0
1.038026312E1,1.025922745E-1,-4.833501875E-1,-9.896415710E0
1.038997651E1,1.025922745E-1,-5.312066078E-1,-9.884450912E0
1.039969057E1,1.073779166E-1,-5.312066078E-1,-9.858130455E0
1.040940391E1,1.145563871E-1,-5.431707501E-1,-9.853344917E0
1.041911635E1,1.097707376E-1,-5.623133183E-1,-9.898808479E0
1.042882969E1,9.541380405E-2,-5.479564071E-1,-9.946963310E0
1.043854375E1,5.952146277E-2,-5.264210105E-1,-9.934999466E0
1.044825708E1,4.995017126E-2,-5.144568682E-1,-9.939785004E0
1.045796953E1,5.473581702E-2,-5.264210105E-1,-9.942177773E0
1.046768286E1,1.097707376E-1,-5.216353536E-1,-9.958928108E0
1.047739698E1,1.384846121E-1,-4.977070987E-1,-9.932606697E0
1.048711021E1,1.145563871E-1,-5.072783828E-1,-9.836594582E0
1.049682271E1,8.584251255E-2,-5.048855543E-1,-9.791131020E0
1.050653609E1,8.105687052E-2,-5.120640397E-1,-9.865308762E0
1.051625016E1,1.121635586E-1,-5.192425251E-1,-9.994820595E0
1.052596338E1,1.265204996E-1,-5.096712112E-1,-1.002592659E1
1.053567594E1,8.823533356E-2,-4.977070987E-1,-9.918250084E0
1.054538927E1,6.909275055E-2,-4.689932466E-1,-9.733703613E0
1.055510333E1,7.387840003E-2,-4.642075896E-1,-9.652347565E0
1.056481667E1,8.344969153E-2,-4.594219327E-1,-9.707382202E0
1.057452912E1,1.121635586E-1,-4.474578202E-1,-9.903594017E0
1.058424245E1,1.791625917E-1,-4.618147612E-1,-1.012403297E1
1.059395656E1,1.815554202E-1,-5.144568682E-1,-1.018863869E1
1.060366979E1,1.456630826E-1,-5.048855543E-1,-1.013599682E1
1.061338229E1,1.384846121E-1,-4.953143001E-1,-9.997213364E0
1.062309563E1,5.952146277E-2,-5.264210105E-1,-9.827023506E0
1.063280974E1,6.879365072E-3,-5.551348329E-1,-9.709774971E0
1.064252297E1,-7.477570791E-3,-5.431707501E-1,-9.688240051E0
1.065223547E1,1.166501082E-2,-5.264210105E-1,-9.762416840E0
1.066194885E1,1.097707376E-1,-5.359922647E-1,-9.932606697E0
1.067166292E1,2.054836452E-1,-5.312066078E-1,-1.008096218E1
1.068137625E1,2.724826932E-1,-5.312066078E-1,-1.013121128E1
1.069108870E1,2.557329237E-1,-5.335994363E-1,-1.004746246E1
1.070080203E1,1.791625917E-1,-5.383850932E-1,-9.913165092E0
1.071051609E1,1.217348501E-1,-5.335994363E-1,-9.788738251E0
1.072022943E1,1.049850956E-1,-5.455635786E-1,-9.721739769E0
1.072994188E1,9.780662507E-2,-5.551348329E-1,-9.740881920E0
1.073965521E1,1.360917836E-1,-5.479564071E-1,-9.872487068E0
1.074936932E1,1.528415531E-1,-5.264210105E-1,-1.000917721E1
1.075908255E1,1.121635586E-1,-4.809573591E-1,-1.009292603E1
1.076879505E1,5.234299600E-2,-4.378865361E-1,-1.006899738E1
1.077850838E1,-2.991028305E-4,-4.426721931E-1,-9.968499184E0
1.078822250E1,6.879365072E-3,-4.642075896E-1,-9.848558426E0
1.079793573E1,1.405783277E-2,-5.096712112E-1,-9.767203331E0
1.080764823E1,5.473581702E-2,-5.670989752E-1,-9.776774406E0
1.081736162E1,8.105687052E-2,-5.886343718E-1,-9.846165657E0
1.082707568E1,1.241276711E-1,-5.742774606E-1,-9.927821159E0
1.083678901E1,1.408774406E-1,-5.623133183E-1,-9.997213364E0
1.084650146E1,1.528415531E-1,-5.264210105E-1,-9.968499184E0
1.085621479E1,1.145563871E-1,-4.666004181E-1,-9.903594017E0
1.086592885E1,9.541380405E-2,-4.211367965E-1,-9.872487068E0
1.087564219E1,9.302098304E-2,-4.235295951E-1,-9.834201813E0
1.088535464E1,1.049850956E-1,-4.498506486E-1,-9.843772888E0
1.089506797E1,7.627122104E-2,-4.737788737E-1,-9.891630173E0
1.090478208E1,4.755735025E-2,-5.048855543E-1,-9.923035622E0
1.091449531E1,4.277170449E-2,-5.072783828E-1,-9.968499184E0
1.092420781E1,7.627122104E-2,-5.240281820E-1,-9.997213364E0
1.093392120E1,1.456630826E-1,-5.240281820E-1,-9.925428391E0
1.094363526E1,1.624128371E-1,-5.192425251E-1,-9.853344917E0
1.095334849E1,1.313061416E-1,-5.288137794E-1,-9.798309326E0
1.096306099E1,1.217348501E-1,-5.407779217E-1,-9.800702095E0
1.097277438E1,7.387840003E-2,-5.503492355E-1,-9.939785004E0
1.098248844E1,7.387840003E-2,-5.599204898E-1,-1.007617569E1
1.099220167E1,1.193420291E-1,-5.335994363E-1,-1.006660461E1
1.100191422E1,1.336989701E-1,-5.240281820E-1,-9.918250084E0
1.101162755E1,1.073779166E-1,-5.216353536E-1,-9.803094864E0
1.102134162E1,8.823533356E-2,-5.264210105E-1,-9.721739769E0
1.103105495E1,1.097707376E-1,-5.359922647E-1,-9.728918076E0
1.104076740E1,1.313061416E-1,-5.527420044E-1,-9.803094864E0
1.105048073E1,1.576271951E-1,-5.599204898E-1,-9.930213928E0
1.106019484E1,1.241276711E-1,-5.527420044E-1,-1.004267693E1
1.106990807E1,6.430710852E-2,-5.264210105E-1,-1.008814049E1
1.107962057E1,6.909275055E-2,-4.929214716E-1,-1.009531879E1
1.108933396E1,1.049850956E-1,-4.833501875E-1,-1.001874828E1
1.109904802E1,1.289133132E-1,-4.857429862E-1,-9.925428391E0
1.110876125E1,1.049850956E-1,-4.953143001E-1,-9.827023506E0
1.111847375E1,1.169492081E-1,-5.024927258E-1,-9.728918076E0
1.112818714E1,1.121635586E-1,-5.024927258E-1,-9.669096947E0
1.113790120E1,9.541380405E-2,-5.168496966E-1,-9.779167175E0
1.114761443E1,9.541380405E-2,-5.096712112E-1,-9.930213928E0
1.115732698E1,1.073779166E-1,-4.953143001E-1,-1.004267693E1
1.116704031E1,1.049850956E-1,-4.905286431E-1,-1.006181908E1
1.117675438E1,8.823533356E-2,-4.881358147E-1,-9.997213364E0
1.118646771E1,6.909275055E-2,-4.833501875E-1,-9.963713646E0
1.119618016E1,4.995017126E-2,-5.096712112E-1,-9.901201248E0
1.120589349E1,7.148557901E-2,-5.264210105E-1,-9.822237968E0
1.121560760E1,1.025922745E-1,-5.407779217E-1,-9.815059662E0
1.122532083E1,9.302098304E-2,-5.647061467E-1,-9.850952148E0
1.123503333E1,8.823533356E-2,-5.694918036E-1,-9.848558426E0
1.124474672E1,1.025922745E-1,-5.503492355E-1,-9.872487068E0
1.125446078E1,1.073779166E-1,-5.144568682E-1,-9.913165092E0
1.126417401E1,9.541380405E-2,-4.618147612E-1,-9.927821159E0
1.127388651E1,1.145563871E-1,-4.618147612E-1,-9.939785004E0
1.128359990E1,1.121635586E-1,-4.642075896E-1,-9.956535339E0
1.129331396E1,8.823533356E-2,-4.929214716E-1,-9.934999466E0
1.130302719E1,8.823533356E-2,-4.977070987E-1,-9.894022942E0
1.131273974E1,1.241276711E-1,-5.120640397E-1,-9.889236450E0
1.132245307E1,1.432702541E-1,-4.953143001E-1,-9.838987350E0
1.133216714E1,1.217348501E-1,-4.857429862E-1,-9.874879837E0
1.134188047E1,8.105687052E-2,-5.168496966E-1,-9.932606697E0
1.135159292E1,7.866404206E-2,-5.718846321E-1,-9.992427826E0
1.136130625E1,7.627122104E-2,-6.221339107E-1,-1.001874828E1
1.137102037E1,7.627122104E-2,-6.173482537E-1,-1.001396275E1
1.138073359E1,8.584251255E-2,-5.838487148E-1,-9.939785004E0
1.139044609E1,9.302098304E-2,-5.503492355E-1,-9.865308762E0
1.140015943E1,1.097707376E-1,-5.144568682E-1,-9.848558426E0
1.140987354E1,1.791625917E-1,-4.713860750E-1,-9.860523224E0
1.141958677E1,1.648056656E-1,-4.546363056E-1,-9.896415710E0
1.142929927E1,1.193420291E-1,-4.402793646E-1,-9.889236450E0
1.143901266E1,8.584251255E-2,-4.283152521E-1,-9.843772888E0
1.144872672E1,6.909275055E-2,-4.570291340E-1,-9.838987350E0
1.145843995E1,5.952146277E-2,-4.881358147E-1,-9.848558426E0
1.146815245E1,4.755735025E-2,-5.072783828E-1,-9.896415710E0
1.147786583E1,2.841476910E-2,-5.264210105E-1,-9.903594017E0
1.148757990E1,3.320041299E-2,-5.144568682E-1,-9.848558426E0
1.149729312E1,3.080759197E-2,-5.096712112E-1,-9.786345482E0
1.150700568E1,9.272187948E-3,-4.953143001E-1,-9.829416275E0
1.151671901E1,1.073779166E-1,-5.192425251E-1,-9.970891953E0
1.152643307E1,1.935195327E-1,-5.431707501E-1,-1.006899738E1
1.153614641E1,1.791625917E-1,-5.335994363E-1,-1.001635551E1
1.154585885E1,1.408774406E-1,-5.264210105E-1,-9.889236450E0
1.155557219E1,1.025922745E-1,-5.359922647E-1,-9.874879837E0
1.156528630E1,8.105687052E-2,-5.455635786E-1,-9.903594017E0
1.157499953E1,6.191428751E-2,-5.790630579E-1,-9.949356079E0
1.158471203E1,5.952146277E-2,-5.910272002E-1,-1.000439167E1
1.159442537E1,6.430710852E-2,-5.670989752E-1,-1.002592659E1
1.160413948E1,1.073779166E-1,-5.479564071E-1,-9.956535339E0
1.161385271E1,5.952146277E-2,-4.953143001E-1,-9.843772888E0
1.162356521E1,-7.477570791E-3,-4.642075896E-1,-9.805487633E0
1.163327854E1,1.645065658E-2,-4.570291340E-1,-9.824630737E0
1.164299266E1,6.909275055E-2,-4.833501875E-1,-9.862915993E0
1.165270589E1,1.073779166E-1,-5.120640397E-1,-9.920642853E0
1.166241838E1,1.169492081E-1,-5.670989752E-1,-9.987641335E0
1.167213177E1,1.073779166E-1,-5.742774606E-1,-1.002353382E1
1.168184583E1,1.145563871E-1,-5.694918036E-1,-9.992427826E0
1.169155917E1,9.062815458E-2,-5.479564071E-1,-9.944570541E0
1.170127162E1,7.387840003E-2,-5.168496966E-1,-9.846165657E0
1.171098495E1,9.062815458E-2,-4.546363056E-1,-9.788738251E0
1.172069901E1,1.097707376E-1,-4.498506486E-1,-9.831809044E0
1.173041234E1,1.336989701E-1,-4.594219327E-1,-9.879665375E0
1.174012479E1,1.001994461E-1,-4.689932466E-1,-9.896415710E0
1.174983812E1,4.516452923E-2,-4.977070987E-1,-9.891630173E0
1.175955219E1,1.405783277E-2,-5.120640397E-1,-9.901201248E0
1.176926552E1,-2.691925503E-3,-5.312066078E-1,-9.942177773E0
1.177897797E1,2.362912335E-2,-5.455635786E-1,-9.966106415E0
1.178869130E1,1.001994461E-1,-5.527420044E-1,-9.966106415E0
1.179840542E1,1.552343667E-1,-5.479564071E-1,-9.949356079E0
1.180811865E1,1.456630826E-1,-5.359922647E-1,-9.862915993E0
1.181783115E1,9.780662507E-2,-5.359922647E-1,-9.850952148E0
1.182754453E1,5.712864175E-2,-5.312066078E-1,-9.901201248E0
1.183725859E1,5.712864175E-2,-5.335994363E-1,-9.944570541E0
1.184697182E1,3.559323773E-2,-5.216353536E-1,-9.894022942E0
1.185668432E1,2.123630047E-2,-5.096712112E-1,-9.853344917E0
1.186639771E1,2.841476910E-2,-5.000999570E-1,-9.870094299E0
1.187611177E1,5.473581702E-2,-4.953143001E-1,-9.927821159E0
1.188582500E1,8.344969153E-2,-4.713860750E-1,-9.889236450E0
1.189553755E1,7.866404206E-2,-4.809573591E-1,-9.858130455E0
1.190525089E1,7.866404206E-2,-5.359922647E-1,-9.886843681E0
1.191496495E1,7.627122104E-2,-5.742774606E-1,-9.937392235E0
1.192467828E1,6.191428751E-2,-5.838487148E-1,-9.978070259E0
1.193439073E1,6.430710852E-2,-5.814558864E-1,-9.915857315E0
1.194410406E1,7.627122104E-2,-5.814558864E-1,-9.817452431E0
1.195381818E1,1.073779166E-1,-5.216353536E-1,-9.850952148E0
1.196353141E1,1.360917836E-1,-4.881358147E-1,-9.990034103E0
1.197324391E1,1.528415531E-1,-4.498506486E-1,-1.005224800E1
1.198295724E1,1.743769497E-1,-4.570291340E-1,-1.000439167E1
1.199267135E1,1.887338907E-1,-4.618147612E-1,-9.920642853E0
1.200238458E1,1.695913076E-1,-4.833501875E-1,-9.860523224E0
1.201209708E1,1.121635586E-1,-5.288137794E-1,-9.884450912E0
1.202181042E1,3.080759197E-2,-5.575276613E-1,-9.870094299E0
1.203152453E1,2.093719784E-3,-5.383850932E-1,-9.829416275E0
1.204123776E1,2.362912335E-2,-5.168496966E-1,-9.841380119E0
1.205095026E1,7.148557901E-2,-5.024927258E-1,-9.874879837E0
1.206066365E1,1.073779166E-1,-4.929214716E-1,-9.920642853E0
1.207037771E1,1.145563871E-1,-5.096712112E-1,-9.918250084E0
1.208009094E1,6.669992954E-2,-5.264210105E-1,-9.913165092E0
1.208980349E1,1.645065658E-2,-5.192425251E-1,-9.951749802E0
1.209951682E1,1.884347759E-2,-5.144568682E-1,-9.951749802E0
1.210923088E1,4.995017126E-2,-5.288137794E-1,-9.925428391E0
1.211894412E1,7.627122104E-2,-5.407779217E-1,-9.891630173E0
1.212865667E1,1.025922745E-1,-5.575276613E-1,-9.862915993E0
1.213837000E1,9.780662507E-2,-5.599204898E-1,-9.846165657E0
1.214808406E1,4.037888348E-2,-5.359922647E-1,-9.879665375E0
1.215779740E1,4.995017126E-2,-5.455635786E-1,-9.896415710E0
1.216750984E1,7.627122104E-2,-5.144568682E-1,-9.920642853E0
1.217722318E1,1.289133132E-1,-4.905286431E-1,-9.927821159E0
1.218693729E1,1.600200087E-1,-4.737788737E-1,-9.872487068E0
1.219665052E1,1.719841212E-1,-4.761717021E-1,-9.815059662E0
1.220636302E1,1.552343667E-1,-4.833501875E-1,-9.834201813E0
1.221607635E1,1.384846121E-1,-5.096712112E-1,-9.951749802E0
1.222579047E1,1.504487246E-1,-5.527420044E-1,-1.012164021E1
1.223550370E1,1.911267042E-1,-5.790630579E-1,-1.022692394E1
1.224521620E1,1.911267042E-1,-5.886343718E-1,-1.016231823E1
1.225492958E1,1.576271951E-1,-5.718846321E-1,-9.961320877E0
1.226464365E1,1.432702541E-1,-5.647061467E-1,-9.781559944E0
1.227435688E1,1.073779166E-1,-5.527420044E-1,-9.719346046E0
1.228406938E1,4.277170449E-2,-5.335994363E-1,-9.767203331E0
1.229378276E1,2.123630047E-2,-4.737788737E-1,-9.798309326E0
1.230349682E1,-9.870393202E-3,-4.450650215E-1,-9.829416275E0
1.231321016E1,-9.870393202E-3,-4.474578202E-1,-9.872487068E0
1.232292260E1,3.559323773E-2,-4.546363056E-1,-9.903594017E0
1.233263594E1,1.645065658E-2,-4.857429862E-1,-9.884450912E0
1.234235000E1,-1.704886183E-2,-5.216353536E-1,-9.862915993E0
1.235206333E1,-1.226321608E-2,-5.431707501E-1,-9.855737686E0
1.236177578E1,-9.870393202E-3,-5.718846321E-1,-9.910772324E0
1.237148912E1,4.277170449E-2,-5.886343718E-1,-1.002114105E1
1.238120318E1,1.001994461E-1,-5.623133183E-1,-1.002831936E1
1.239091651E1,1.265204996E-1,-5.192425251E-1,-9.975677490E0
1.240062896E1,1.241276711E-1,-4.426721931E-1,-9.942177773E0
1.241034229E1,8.105687052E-2,-4.187439680E-1,-9.908379555E0
1.242005641E1,5.234299600E-2,-4.522434771E-1,-9.905986786E0
1.242976964E1,3.320041299E-2,-4.953143001E-1,-9.920642853E0
1.243948214E1,4.995017126E-2,-5.431707501E-1,-9.944570541E0
1.244919547E1,6.909275055E-2,-5.479564071E-1,-9.908379555E0
1.245890958E1,1.217348501E-1,-5.670989752E-1,-9.853344917E0
1.246862281E1,1.241276711E-1,-5.766702294E-1,-9.724132538E0
1.247833531E1,1.073779166E-1,-5.527420044E-1,-9.637990952E0
1.248804865E1,7.627122104E-2,-5.216353536E-1,-9.731310844E0
1.249776276E1,1.217348501E-1,-5.024927258E-1,-9.923035622E0
1.250747599E1,1.528415531E-1,-4.905286431E-1,-1.003071213E1
1.251718849E1,1.576271951E-1,-4.881358147E-1,-1.009053326E1
1.252690188E1,1.695913076E-1,-4.881358147E-1,-1.003789139E1
1.253661594E1,1.360917836E-1,-4.953143001E-1,-9.908379555E0
1.254632917E1,1.336989701E-1,-5.192425251E-1,-9.853344917E0
1.255604172E1,1.336989701E-1,-5.503492355E-1,-9.942177773E0
1.256575505E1,1.265204996E-1,-5.575276613E-1,-9.997213364E0
1.257546912E1,1.169492081E-1,-5.288137794E-1,-9.968499184E0
1.258518245E1,1.049850956E-1,-4.905286431E-1,-9.879665375E0
1.259489490E1,1.025922745E-1,-4.594219327E-1,-9.834201813E0
1.260460823E1,6.191428751E-2,-4.570291340E-1,-9.812666893E0
1.261432229E1,1.405783277E-2,-4.498506486E-1,-9.836594582E0
1.262403563E1,4.486542661E-3,-4.761717021E-1,-9.879665375E0
1.263374807E1,2.602194622E-2,-5.072783828E-1,-9.877272606E0
1.264346141E1,7.866404206E-2,-5.288137794E-1,-9.884450912E0
1.265317547E1,1.049850956E-1,-5.599204898E-1,-9.937392235E0
1.266288880E1,1.145563871E-1,-5.766702294E-1,-9.958928108E0
1.267260125E1,1.121635586E-1,-5.359922647E-1,-9.944570541E0
1.268231458E1,4.516452923E-2,-5.024927258E-1,-9.934999466E0
1.269202870E1,2.093719784E-3,-4.809573591E-1,-9.872487068E0
1.270174193E1,2.602194622E-2,-4.785645306E-1,-9.846165657E0
1.271145443E1,8.344969153E-2,-5.120640397E-1,-9.858130455E0
1.272116776E1,9.062815458E-2,-5.431707501E-1,-9.925428391E0
1.273088188E1,9.541380405E-2,-5.407779217E-1,-9.973284721E0
1.274059510E1,1.001994461E-1,-5.288137794E-1,-9.970891953E0
1.275030760E1,1.289133132E-1,-5.216353536E-1,-9.901201248E0
1.276002099E1,1.576271951E-1,-5.144568682E-1,-9.896415710E0
1.276973505E1,1.384846121E-1,-5.144568682E-1,-9.927821159E0
1.277944828E1,1.193420291E-1,-5.096712112E-1,-9.937392235E0
1.278916078E1,1.025922745E-1,-5.072783828E-1,-9.923035622E0
1.279887417E1,1.097707376E-1,-5.216353536E-1,-9.891630173E0
1.280858823E1,1.624128371E-1,-5.264210105E-1,-9.877272606E0
1.281830146E1,1.767697781E-1,-5.383850932E-1,-9.872487068E0
1.282801396E1,1.313061416E-1,-4.881358147E-1,-9.841380119E0
1.283772734E1,4.755735025E-2,-4.666004181E-1,-9.831809044E0
1.284744141E1,1.884347759E-2,-4.618147612E-1,-9.886843681E0
1.285715464E1,5.234299600E-2,-4.761717021E-1,-9.951749802E0
1.286686719E1,7.387840003E-2,-4.881358147E-1,-9.997213364E0
1.287658052E1,7.148557901E-2,-5.048855543E-1,-1.001635551E1
1.288629458E1,5.473581702E-2,-5.407779217E-1,-9.997213364E0
1.289600792E1,7.148557901E-2,-5.623133183E-1,-9.901201248E0
1.290572036E1,7.866404206E-2,-5.575276613E-1,-9.843772888E0
1.291543370E1,1.145563871E-1,-5.455635786E-1,-9.853344917E0
1.292514781E1,1.480558962E-1,-5.216353536E-1,-9.865308762E0
1.293486104E1,1.001994461E-1,-5.072783828E-1,-9.865308762E0
1.294457354E1,2.841476910E-2,-4.737788737E-1,-9.874879837E0
1.295428688E1,-1.226321608E-2,-4.546363056E-1,-9.920642853E0
1.296400099E1,-5.084747914E-3,-4.713860750E-1,-9.932606697E0
1.297371422E1,3.798605874E-2,-4.618147612E-1,-9.930213928E0
1.298342672E1,8.584251255E-2,-4.761717021E-1,-9.903594017E0
1.299314005E1,1.384846121E-1,-5.168496966E-1,-9.894022942E0
1.300285417E1,1.648056656E-1,-5.718846321E-1,-9.894022942E0
1.301256740E1,1.959123611E-1,-5.958128572E-1,-9.923035622E0
1.302227990E1,1.504487246E-1,-5.958128572E-1,-9.954142570E0
1.303199323E1,9.062815458E-2,-5.575276613E-1,-9.905986786E0
1.304170734E1,3.559323773E-2,-5.192425251E-1,-9.870094299E0
1.305142057E1,1.166501082E-2,-4.977070987E-1,-9.930213928E0
1.306113307E1,4.755735025E-2,-4.905286431E-1,-9.992427826E0
1.307084646E1,8.105687052E-2,-4.713860750E-1,-9.939785004E0
1.308056052E1,1.217348501E-1,-4.689932466E-1,-9.882058144E0
1.309027375E1,1.624128371E-1,-5.000999570E-1,-9.874879837E0
1.309998625E1,2.126621157E-1,-4.953143001E-1,-9.867701530E0
1.310969964E1,1.959123611E-1,-5.048855543E-1,-9.910772324E0
1.311941370E1,1.145563871E-1,-5.192425251E-1,-9.949356079E0
1.312912693E1,7.387840003E-2,-5.048855543E-1,-9.970891953E0
1.313883948E1,4.277170449E-2,-4.737788737E-1,-9.949356079E0
1.314855281E1,3.320041299E-2,-4.737788737E-1,-9.913165092E0
1.315826688E1,4.755735025E-2,-5.000999570E-1,-9.894022942E0
1.316798021E1,6.191428751E-2,-5.288137794E-1,-9.889236450E0
1.317769266E1,9.062815458E-2,-5.551348329E-1,-9.874879837E0
1.318740599E1,1.145563871E-1,-5.575276613E-1,-9.874879837E0
1.319712005E1,1.289133132E-1,-5.479564071E-1,-9.862915993E0
1.320683339E1,8.105687052E-2,-5.072783828E-1,-9.872487068E0
1.321654583E1,2.093719784E-3,-4.761717021E-1,-9.874879837E0
1.322625917E1,2.093719784E-3,-4.498506486E-1,-9.862915993E0
1.323597328E1,9.272187948E-3,-4.737788737E-1,-9.860523224E0
1.324568651E1,3.320041299E-2,-4.737788737E-1,-9.836594582E0
1.325539901E1,8.105687052E-2,-5.024927258E-1,-9.827023506E0
1.326511234E1,1.719841212E-1,-5.455635786E-1,-9.886843681E0
1.327482646E1,2.054836452E-1,-5.814558864E-1,-9.987641335E0
1.328453969E1,1.791625917E-1,-5.982056856E-1,-1.003071213E1
1.329425219E1,1.145563871E-1,-5.599204898E-1,-1.003549862E1
1.330396552E1,5.473581702E-2,-5.431707501E-1,-1.002592659E1
1.331367964E1,5.712864175E-2,-4.977070987E-1,-9.975677490E0
1.332339286E1,8.823533356E-2,-4.761717021E-1,-9.913165092E0
1.333310537E1,1.241276711E-1,-4.522434771E-1,-9.831809044E0
1.334281875E1,1.504487246E-1,-4.522434771E-1,-9.762416840E0
1.335253281E1,1.791625917E-1,-4.666004181E-1,-9.740881920E0
1.336224604E1,1.648056656E-1,-4.929214716E-1,-9.781559944E0
1.337195854E1,1.217348501E-1,-5.144568682E-1,-9.882058144E0
1.338167193E1,6.191428751E-2,-5.144568682E-1,-9.987641335E0
1.339138599E1,1.166501082E-2,-4.929214716E-1,-1.003071213E1
1.340109922E1,-3.619144112E-2,-4.737788737E-1,-9.987641335E0
1.341081172E1,-2.422732860E-2,-4.642075896E-1,-9.918250084E0
1.342052510E1,5.952146277E-2,-4.833501875E-1,-9.810274124E0
1.343023917E1,1.600200087E-1,-5.048855543E-1,-9.812666893E0
1.343995250E1,1.887338907E-1,-5.288137794E-1,-9.858130455E0
1.344966495E1,1.791625917E-1,-5.407779217E-1,-9.927821159E0
1.345937828E1,1.504487246E-1,-5.527420044E-1,-9.985248566E0
1.346909234E1,1.528415531E-1,-5.551348329E-1,-9.994820595E0
1.347880568E1,1.528415531E-1,-5.312066078E-1,-9.994820595E0
1.348851812E1,1.025922745E-1,-5.240281820E-1,-9.946963310E0
1.349823146E1,6.430710852E-2,-4.953143001E-1,-9.843772888E0
1.350794552E1,6.191428751E-2,-4.809573591E-1,-9.805487633E0
1.351765885E1,6.909275055E-2,-4.953143001E-1,-9.838987350E0
1.352737130E1,7.866404206E-2,-5.048855543E-1,-9.889236450E0
1.353708464E1,8.344969153E-2,-5.024927258E-1,-9.942177773E0
1.354679875E1,9.541380405E-2,-4.905286431E-1,-9.980463028E0
1.355651198E1,9.541380405E-2,-5.072783828E-1,-9.978070259E0
1.356622448E1,8.584251255E-2,-5.120640397E-1,-9.958928108E0
1.357593781E1,7.387840003E-2,-5.407779217E-1,-9.944570541E0
1.358565193E1,6.669992954E-2,-5.288137794E-1,-9.930213928E0
1.359536516E1,7.866404206E-2,-5.359922647E-1,-9.923035622E0
1.360507766E1,9.302098304E-2,-5.359922647E-1,-9.886843681E0
1.361479099E1,1.025922745E-1,-5.216353536E-1,-9.841380119E0
1.362450510E1,1.001994461E-1,-4.905286431E-1,-9.831809044E0
1.363421833E1,1.025922745E-1,-4.594219327E-1,-9.843772888E0
1.364393083E1,1.241276711E-1,-4.450650215E-1,-9.865308762E0
1.365364422E1,1.265204996E-1,-4.546363056E-1,-9.884450912E0
1.366335828E1,1.025922745E-1,-4.498506486E-1,-9.896415710E0
1.367307151E1,5.712864175E-2,-4.689932466E-1,-9.874879837E0
1.368278401E1,7.148557901E-2,-4.785645306E-1,-9.896415710E0
1.369249740E1,9.541380405E-2,-5.168496966E-1,-9.963713646E0
1.370221146E1,1.265204996E-1,-5.168496966E-1,-9.961320877E0
1.371192469E1,1.552343667E-1,-5.144568682E-1,-9.874879837E0
1.372163719E1,1.600200087E-1,-5.096712112E-1,-9.853344917E0
1.373135057E1,1.456630826E-1,-5.192425251E-1,-9.923035622E0
1.374106464E1,1.289133132E-1,-5.120640397E-1,-9.958928108E0
1.375077787E1,1.025922745E-1,-5.120640397E-1,-9.946963310E0
1.376049042E1,6.909275055E-2,-5.024927258E-1,-9.923035622E0
1.377020375E1,3.080759197E-2,-5.120640397E-1,-9.927821159E0
1.377991781E1,-2.691925503E-3,-5.144568682E-1,-9.934999466E0
1.378963115E1,-5.084747914E-3,-5.000999570E-1,-9.879665375E0
1.379934359E1,9.541380405E-2,-5.192425251E-1,-9.834201813E0
1.380905693E1,1.887338907E-1,-5.335994363E-1,-9.829416275E0
1.381877099E1,2.246262282E-1,-5.264210105E-1,-9.841380119E0
1.382848432E1,1.863410622E-1,-4.929214716E-1,-9.862915993E0
1.383819677E1,9.780662507E-2,-4.833501875E-1,-9.891630173E0
1.384791010E1,2.362912335E-2,-4.857429862E-1,-9.963713646E0
1.385762422E1,1.405783277E-2,-4.953143001E-1,-1.001874828E1
1.386733745E1,6.669992954E-2,-4.977070987E-1,-9.994820595E0
1.387704995E1,1.025922745E-1,-5.048855543E-1,-9.939785004E0
1.388676328E1,1.408774406E-1,-5.216353536E-1,-9.846165657E0
1.389647740E1,1.863410622E-1,-5.168496966E-1,-9.788738251E0
1.390619062E1,2.150549293E-1,-5.168496966E-1,-9.786345482E0
1.391590313E1,1.911267042E-1,-5.240281820E-1,-9.905986786E0
1.392561646E1,1.241276711E-1,-5.096712112E-1,-9.999606133E0
1.393533057E1,2.602194622E-2,-4.642075896E-1,-1.003071213E1
1.394504380E1,-1.704886183E-2,-4.331009090E-1,-9.968499184E0
1.395475630E1,-7.477570791E-3,-4.283152521E-1,-9.942177773E0
1.396446969E1,-2.991028305E-4,-4.426721931E-1,-9.896415710E0
1.397418375E1,4.995017126E-2,-4.689932466E-1,-9.867701530E0
1.398389698E1,1.097707376E-1,-5.120640397E-1,-9.855737686E0
1.399360948E1,1.456630826E-1,-5.431707501E-1,-9.894022942E0
1.400332287E1,1.432702541E-1,-5.575276613E-1,-9.910772324E0
1.401303693E1,1.073779166E-1,-5.288137794E-1,-9.877272606E0
1.402275016E1,6.909275055E-2,-5.096712112E-1,-9.889236450E0
1.403246271E1,7.148557901E-2,-5.072783828E-1,-9.934999466E0
1.404217604E1,9.541380405E-2,-4.977070987E-1,-9.942177773E0
1.405189010E1,9.302098304E-2,-4.689932466E-1,-9.915857315E0
1.406160344E1,1.193420291E-1,-4.833501875E-1,-9.923035622E0
1.407131588E1,1.552343667E-1,-4.905286431E-1,-9.949356079E0
1.408102922E1,1.552343667E-1,-4.881358147E-1,-9.949356079E0
1.409074328E1,1.241276711E-1,-4.857429862E-1,-9.968499184E0
1.410045662E1,8.105687052E-2,-4.618147612E-1,-9.942177773E0
1.411016906E1,5.712864175E-2,-4.809573591E-1,-9.891630173E0
1.411988240E1,2.362912335E-2,-5.216353536E-1,-9.827023506E0
1.412959651E1,2.093719784E-3,-5.383850932E-1,-9.791131020E0
1.413930974E1,2.841476910E-2,-5.335994363E-1,-9.834201813E0
1.414902224E1,6.669992954E-2,-5.120640397E-1,-9.879665375E0
1.415873557E1,1.121635586E-1,-5.096712112E-1,-9.946963310E0
1.416844969E1,1.624128371E-1,-5.240281820E-1,-1.002592659E1
1.417816292E1,2.030908167E-1,-5.216353536E-1,-1.008335495E1
1.418787542E1,1.839482337E-1,-5.072783828E-1,-1.005464077E1
1.419758875E1,1.145563871E-1,-4.642075896E-1,-9.923035622E0
1.420730286E1,1.145563871E-1,-4.666004181E-1,-9.819845200E0
1.421701609E1,1.193420291E-1,-4.809573591E-1,-9.827023506E0
1.422672859E1,9.541380405E-2,-4.929214716E-1,-9.918250084E0
1.423644198E1,7.148557901E-2,-4.833501875E-1,-9.934999466E0
1.424615604E1,9.780662507E-2,-4.929214716E-1,-9.886843681E0
1.425586927E1,1.073779166E-1,-4.929214716E-1,-9.865308762E0
1.426558182E1,6.191428751E-2,-4.953143001E-1,-9.908379555E0
1.427529516E1,6.430710852E-2,-4.761717021E-1,-9.894022942E0
1.428500922E1,7.387840003E-2,-4.642075896E-1,-9.831809044E0
1.429472255E1,5.234299600E-2,-4.689932466E-1,-9.822237968E0
1.430443500E1,5.473581702E-2,-4.833501875E-1,-9.865308762E0
1.431414833E1,6.430710852E-2,-5.024927258E-1,-9.920642853E0
1.432386245E1,7.627122104E-2,-5.216353536E-1,-9.966106415E0
1.433357568E1,7.387840003E-2,-5.240281820E-1,-9.990034103E0
1.434328818E1,6.191428751E-2,-5.264210105E-1,-9.975677490E0
1.435300151E1,7.387840003E-2,-5.288137794E-1,-9.978070259E0
1.436271563E1,1.193420291E-1,-5.599204898E-1,-9.992427826E0
1.437242885E1,1.576271951E-1,-5.718846321E-1,-9.939785004E0
1.438214135E1,1.624128371E-1,-5.455635786E-1,-9.841380119E0
1.439185474E1,1.289133132E-1,-5.000999570E-1,-9.805487633E0
1.440156880E1,8.105687052E-2,-4.833501875E-1,-9.822237968E0
1.441128203E1,6.191428751E-2,-4.618147612E-1,-9.870094299E0
1.442099458E1,8.105687052E-2,-4.546363056E-1,-9.949356079E0
1.443070792E1,1.049850956E-1,-4.809573591E-1,-1.002592659E1
1.444042198E1,1.576271951E-1,-4.929214716E-1,-1.003549862E1
1.445013531E1,1.695913076E-1,-5.335994363E-1,-1.002114105E1
1.445984776E1,1.456630826E-1,-5.479564071E-1,-9.975677490E0
1.446956109E1,9.541380405E-2,-5.288137794E-1,-9.910772324E0
1.447927521E1,3.798605874E-2,-4.977070987E-1,-9.872487068E0
1.448898844E1,3.320041299E-2,-4.785645306E-1,-9.807881355E0
1.449870094E1,3.559323773E-2,-4.522434771E-1,-9.743274689E0
1.450841432E1,7.866404206E-2,-4.546363056E-1,-9.738489151E0
1.451812838E1,1.049850956E-1,-4.689932466E-1,-9.834201813E0
1.452784162E1,1.289133132E-1,-4.761717021E-1,-9.944570541E0
1.453755417E1,1.265204996E-1,-4.761717021E-1,-1.000678444E1
1.454726750E1,9.780662507E-2,-4.809573591E-1,-1.003071213E1
1.455698162E1,1.049850956E-1,-5.024927258E-1,-9.992427826E0
1.456669484E1,6.669992954E-2,-5.216353536E-1,-9.894022942E0
1.457640734E1,5.473581702E-2,-5.335994363E-1,-9.848558426E0
1.458612068E1,5.234299600E-2,-5.407779217E-1,-9.891630173E0
1.459583479E1,8.105687052E-2,-5.527420044E-1,-9.973284721E0
1.460554802E1,1.408774406E-1,-5.431707501E-1,-1.000199890E1
1.461526057E1,1.671984792E-1,-5.312066078E-1,-1.002831936E1
1.462497391E1,1.743769497E-1,-5.240281820E-1,-1.008814049E1
1.463468797E1,1.456630826E-1,-4.833501875E-1,-1.007856941E1
1.464440130E1,1.145563871E-1,-4.498506486E-1,-9.920642853E0
1.465411375E1,6.669992954E-2,-4.187439680E-1,-9.695418358E0
1.466382708E1,-2.991028305E-4,-4.091726840E-1,-9.585348129E0
1.467354120E1,-5.084747914E-3,-4.259224236E-1,-9.621240616E0
1.468325443E1,4.037888348E-2,-5.000999570E-1,-9.771988869E0
1.469296693E1,6.669992954E-2,-5.575276613E-1,-9.937392235E0
1.470268031E1,1.025922745E-1,-5.910272002E-1,-1.011206818E1
1.471239438E1,1.193420291E-1,-5.838487148E-1,-1.019820976E1
1.472210771E1,1.193420291E-1,-5.407779217E-1,-1.016949654E1
1.473182016E1,1.313061416E-1,-5.312066078E-1,-1.003549862E1
1.474153349E1,1.217348501E-1,-5.312066078E-1,-9.901201248E0
1.475124760E1,1.313061416E-1,-5.240281820E-1,-9.812666893E0
1.476096083E1,1.360917836E-1,-4.977070987E-1,-9.786345482E0
1.477067333E1,1.480558962E-1,-4.809573591E-1,-9.774381638E0
1.478038667E1,1.600200087E-1,-4.331009090E-1,-9.774381638E0
1.479010078E1,1.360917836E-1,-3.996013701E-1,-9.848558426E0
1.479981401E1,1.001994461E-1,-3.852444589E-1,-9.908379555E0
1.480952656E1,5.473581702E-2,-3.756731451E-1,-9.944570541E0
1.481923990E1,2.362912335E-2,-4.187439680E-1,-9.982855797E0
1.482895401E1,5.952146277E-2,-4.809573591E-1,-1.003071213E1
1.483866724E1,1.145563871E-1,-5.455635786E-1,-1.004985523E1
1.484837974E1,1.695913076E-1,-6.077769399E-1,-1.001156998E1
1.485809313E1,1.671984792E-1,-6.415755749E-1,-9.905986786E0
1.486780719E1,1.863410622E-1,-6.269195080E-1,-9.817452431E0
1.487752042E1,1.695913076E-1,-5.647061467E-1,-9.745667458E0
1.488723297E1,1.169492081E-1,-4.929214716E-1,-9.774381638E0
1.489694630E1,6.430710852E-2,-4.283152521E-1,-9.798309326E0
1.490666042E1,1.645065658E-2,-4.019941986E-1,-9.891630173E0
1.491637365E1,3.080759197E-2,-4.091726840E-1,-1.000678444E1
1.492608615E1,4.995017126E-2,-4.426721931E-1,-1.005703354E1
1.493579953E1,8.584251255E-2,-4.929214716E-1,-1.001635551E1
1.494551359E1,1.265204996E-1,-5.359922647E-1,-9.951749802E0
1.495522682E1,1.408774406E-1,-5.862415433E-1,-9.891630173E0
1.496493938E1,1.313061416E-1,-5.862415433E-1,-9.891630173E0
1.497465271E1,1.313061416E-1,-5.790630579E-1,-9.882058144E0
1.498436682E1,1.695913076E-1,-5.527420044E-1,-9.905986786E0
1.499408005E1,1.767697781E-1,-4.881358147E-1,-9.956535339E0
1.500379255E1,1.695913076E-1,-4.570291340E-1,-9.985248566E0
1.501350588E1,1.576271951E-1,-4.259224236E-1,-9.937392235E0
1.502322000E1,1.576271951E-1,-4.354937077E-1,-9.850952148E0
1.503293323E1,1.456630826E-1,-4.402793646E-1,-9.810274124E0
1.504264578E1,1.217348501E-1,-4.474578202E-1,-9.838987350E0
1.505235912E1,9.062815458E-2,-4.570291340E-1,-9.891630173E0
1.506207323E1,6.909275055E-2,-4.833501875E-1,-9.978070259E0
1.507178646E1,5.712864175E-2,-5.000999570E-1,-1.003071213E1
1.508149896E1,7.627122104E-2,-5.240281820E-1,-9.985248566E0
1.509121234E1,1.121635586E-1,-5.431707501E-1,-9.908379555E0
1.510092641E1,1.145563871E-1,-5.335994363E-1,-9.836594582E0
1.511063974E1,5.952146277E-2,-4.905286431E-1,-9.848558426E0
1.512035219E1,3.080759197E-2,-4.785645306E-1,-9.891630173E0
1.513006552E1,4.516452923E-2,-4.833501875E-1,-9.920642853E0
1.513977964E1,3.559323773E-2,-4.618147612E-1,-9.932606697E0
1.514949287E1,2.362912335E-2,-4.546363056E-1,-9.898808479E0
1.515920537E1,1.645065658E-2,-4.474578202E-1,-9.807881355E0
1.516891875E1,6.879365072E-3,-4.642075896E-1,-9.755238533E0
1.517863281E1,4.995017126E-2,-4.785645306E-1,-9.807881355E0
1.518834615E1,1.265204996E-1,-4.929214716E-1,-9.915857315E0
1.519805859E1,2.222333997E-1,-5.168496966E-1,-1.000917721E1
1.520777193E1,2.940180898E-1,-5.312066078E-1,-1.004267693E1
1.521748604E1,2.485544533E-1,-5.192425251E-1,-1.003789139E1
1.522719927E1,1.528415531E-1,-4.785645306E-1,-1.000199890E1
1.523691182E1,9.062815458E-2,-4.546363056E-1,-9.934999466E0
1.524662516E1,6.669992954E-2,-4.666004181E-1,-9.910772324E0
1.525633922E1,6.669992954E-2,-5.120640397E-1,-9.894022942E0
1.526605255E1,8.823533356E-2,-5.264210105E-1,-9.872487068E0
1.527576500E1,1.097707376E-1,-5.383850932E-1,-9.862915993E0
1.528547839E1,1.767697781E-1,-5.599204898E-1,-9.824630737E0
1.529519245E1,2.318046987E-1,-5.455635786E-1,-9.827023506E0
1.530490568E1,2.341975123E-1,-5.072783828E-1,-9.894022942E0
1.531461823E1,1.983051747E-1,-4.713860750E-1,-9.942177773E0
1.532433156E1,1.360917836E-1,-4.331009090E-1,-9.994820595E0
1.533404568E1,7.148557901E-2,-4.259224236E-1,-1.001396275E1
1.534375891E1,7.627122104E-2,-4.235295951E-1,-9.973284721E0
1.535347141E1,5.473581702E-2,-4.378865361E-1,-9.898808479E0
1.536318479E1,1.166501082E-2,-4.378865361E-1,-9.827023506E0
1.537289885E1,4.486542661E-3,-4.618147612E-1,-9.760024071E0
1.538261219E1,2.841476910E-2,-4.857429862E-1,-9.781559944E0
1.539232464E1,1.025922745E-1,-4.953143001E-1,-9.865308762E0
1.540203797E1,1.767697781E-1,-5.048855543E-1,-9.963713646E0
1.541175208E1,1.839482337E-1,-5.072783828E-1,-9.956535339E0
1.542146531E1,1.671984792E-1,-5.024927258E-1,-9.923035622E0
1.543117781E1,1.408774406E-1,-5.024927258E-1,-9.978070259E0
1.544089120E1,1.217348501E-1,-5.072783828E-1,-1.004506969E1
1.545060526E1,1.552343667E-1,-4.881358147E-1,-1.005703354E1
1.546031859E1,1.983051747E-1,-4.977070987E-1,-1.002831936E1
1.547003104E1,2.102692872E-1,-5.288137794E-1,-9.944570541E0
1.547974443E1,1.719841212E-1,-5.264210105E-1,-9.829416275E0
1.548945849E1,9.062815458E-2,-5.096712112E-1,-9.774381638E0
1.549917172E1,1.405783277E-2,-5.000999570E-1,-9.745667458E0
1.550888427E1,2.093719784E-3,-4.785645306E-1,-9.755238533E0
1.551859760E1,1.166501082E-2,-4.737788737E-1,-9.812666893E0
1.552831172E1,5.234299600E-2,-4.618147612E-1,-9.870094299E0
1.553802495E1,9.062815458E-2,-4.618147612E-1,-9.894022942E0
1.554773745E1,1.504487246E-1,-4.713860750E-1,-9.905986786E0
1.555745083E1,1.743769497E-1,-4.857429862E-1,-9.985248566E0
1.556716490E1,1.743769497E-1,-4.881358147E-1,-1.005703354E1
1.557687823E1,1.408774406E-1,-4.689932466E-1,-1.004267693E1
1.558659068E1,1.336989701E-1,-4.642075896E-1,-9.946963310E0
1.559630401E1,1.408774406E-1,-4.689932466E-1,-9.846165657E0
1.560601812E1,1.408774406E-1,-4.929214716E-1,-9.783952713E0
1.561573135E1,1.432702541E-1,-5.072783828E-1,-9.831809044E0
1.562544391E1,1.600200087E-1,-5.216353536E-1,-9.927821159E0
1.563515724E1,1.767697781E-1,-5.024927258E-1,-9.980463028E0
1.564487130E1,1.839482337E-1,-4.953143001E-1,-9.999606133E0
1.565458464E1,1.384846121E-1,-4.905286431E-1,-9.973284721E0
1.566429708E1,1.217348501E-1,-4.785645306E-1,-9.954142570E0
1.567401042E1,1.384846121E-1,-4.689932466E-1,-9.865308762E0
1.568372453E1,1.528415531E-1,-4.809573591E-1,-9.848558426E0
1.569343787E1,1.408774406E-1,-4.857429862E-1,-9.877272606E0
1.570315031E1,1.265204996E-1,-4.785645306E-1,-9.891630173E0
1.571286365E1,9.062815458E-2,-4.785645306E-1,-9.918250084E0
1.572257776E1,4.037888348E-2,-4.809573591E-1,-9.937392235E0
1.573229099E1,2.841476910E-2,-4.809573591E-1,-9.973284721E0
1.574200349E1,1.645065658E-2,-4.953143001E-1,-9.930213928E0
1.575171688E1,3.080759197E-2,-5.096712112E-1,-9.879665375E0
1.576143094E1,7.866404206E-2,-5.096712112E-1,-9.846165657E0
1.577114427E1,1.313061416E-1,-5.168496966E-1,-9.836594582E0
1.578085672E1,1.767697781E-1,-5.024927258E-1,-9.829416275E0
1.579057005E1,1.504487246E-1,-4.642075896E-1,-9.843772888E0
1.580028417E1,1.001994461E-1,-4.115654826E-1,-9.800702095E0
1.580999740E1,9.062815458E-2,-3.684946895E-1,-9.762416840E0
1.581970995E1,9.541380405E-2,-3.900300860E-1,-9.819845200E0
1.582942328E1,1.241276711E-1,-4.354937077E-1,-9.920642853E0
1.583913740E1,1.504487246E-1,-5.024927258E-1,-1.000439167E1
1.584885062E1,2.054836452E-1,-5.718846321E-1,-1.006899738E1
1.585856313E1,2.724826932E-1,-6.029912829E-1,-1.009292603E1
1.586827651E1,3.035893738E-1,-6.101697683E-1,-1.006181908E1
1.587799057E1,2.724826932E-1,-5.838487148E-1,-9.990034103E0
