"Time (s)","Acceleration x (m/s^2)","Acceleration y (m/s^2)","Acceleration z (m/s^2)"
4.929412000E-2,8.584251255E-2,-2.221436739E0,-1.016231823E1
5.900860000E-2,2.988037169E-1,-2.013261080E0,-1.093310547E1
6.872146400E-2,3.562314808E-1,-1.907976985E0,-1.062203884E1
7.843526600E-2,4.713860750E-1,-1.668395638E0,-1.005464077E1
8.814974500E-2,2.581257522E-1,-1.567897081E0,-1.022453117E1
9.786339100E-2,-3.547359705E-1,-2.034796476E0,-9.175876617E0
1.075763600E-1,-8.838488460E-1,-2.140080690E0,-9.700203896E0
1.172901100E-1,-1.190130115E0,-2.118545294E0,-9.927821159E0
1.270045890E-1,-1.252642632E0,-2.295614243E0,-9.882058144E0
1.367182870E-1,-1.343569875E0,-2.539981127E0,-9.827023506E0
1.464312040E-1,-1.432104349E0,-3.215056419E0,-9.508777618E0
1.561449540E-1,-1.142273664E0,-3.588635683E0,-9.499206543E0
1.658594330E-1,-3.332005441E-1,-3.892524242E0,-8.929415703E0
1.755731310E-1,2.102692872E-1,-4.340281010E0,-8.903095245E0
1.852860480E-1,-8.264211416E-1,-4.438386917E0,-9.197412491E0
1.949997980E-1,-1.875075698E0,-4.577469826E0,-8.816953659E0
2.047142770E-1,-2.332104683E0,-5.005784988E0,-8.452944756E0
2.144279750E-1,-2.763111830E0,-5.274080276E0,-9.125627518E0
2.241408910E-1,-2.583650351E0,-5.142475128E0,-9.547062874E0
2.338546410E-1,-2.205285072E0,-5.223830700E0,-8.864809990E0
2.435691200E-1,-1.668993831E0,-5.496612549E0,-8.598907471E0
2.532828700E-1,-1.573280931E0,-5.479863167E0,-9.113663673E0
2.629957350E-1,-1.685743570E0,-5.147260666E0,-8.900702477E0
2.727094850E-1,-1.817647934E0,-4.938786030E0,-8.371588707E0
2.824239640E-1,-2.167000055E0,-5.427220821E0,-8.227720261E0
2.921377140E-1,-2.598007202E0,-6.083153248E0,-7.294220924E0
3.018505790E-1,-2.392224550E0,-6.483053684E0,-6.233602047E0
3.115643290E-1,-1.999502420E0,-6.969096184E0,-5.431707382E0
3.212788600E-1,-1.546959877E0,-7.261020184E0,-5.012664318E0
3.309925060E-1,-1.199701428E0,-7.823632717E0,-5.079663277E0
3.407054230E-1,-7.115656137E-1,-8.561220169E0,-5.663811207E0
3.504191730E-1,-4.073780477E-1,-8.786145210E0,-5.548955917E0
3.601336520E-1,-1.199402362E-1,-8.843573570E0,-5.055735111E0
3.698474020E-1,-1.226321608E-2,-8.783752441E0,-4.804189682E0
3.795602660E-1,3.945166469E-1,-8.491529465E0,-4.859224796E0
3.892740160E-1,5.838487148E-1,-7.232306480E0,-4.808975220E0
3.989884950E-1,7.393822074E-1,-6.382555485E0,-4.361517429E0
4.087022450E-1,1.232602715E0,-6.473482609E0,-3.339184046E0
4.184151100E-1,1.261316657E0,-7.560422421E0,-2.661715984E0
4.281288600E-1,8.542376757E-1,-8.728717804E0,-2.702394009E0
4.378433390E-1,-3.188436031E-1,-8.542078018E0,-2.096710920E0
4.475570890E-1,-1.477568030E0,-8.173283577E0,-2.474776745E0
4.572699540E-1,-2.145464659E0,-7.885846138E0,-3.121138096E0
4.669837040E-1,-2.155035973E0,-7.447959423E0,-2.829213619E0
4.766981830E-1,-2.602792740E0,-6.854240417E0,-2.029412746E0
4.864119330E-1,-2.806182861E0,-6.339484692E0,-1.940878272E0
4.961247980E-1,-2.339283228E0,-6.629015923E0,-2.130210400E0
5.058385480E-1,-1.802991867E0,-7.308876991E0,-2.005484581E0
5.155530790E-1,-1.264606714E0,-8.204390526E0,-1.692024708E0
5.252667250E-1,-1.185344458E0,-9.008678436E0,-1.916949987E0
5.349796410E-1,-1.262213945E0,-9.183652878E0,-2.745464802E0
5.446933910E-1,-1.252642632E0,-8.750253677E0,-3.051746130E0
5.544079230E-1,-1.434497118E0,-8.369495392E0,-2.134995937E0
5.641215680E-1,-1.590030670E0,-7.893024445E0,-1.986341953E0
5.738344850E-1,-2.428116798E0,-7.615457058E0,-2.367099762E0
5.835482350E-1,-3.852444410E0,-7.845168114E0,-2.865106106E0
5.932627660E-1,-4.529912472E0,-8.072785378E0,-2.767000198E0
6.029764120E-1,-4.398307323E0,-8.673683167E0,-2.017448664E0
6.126893290E-1,-4.125525475E0,-8.841180801E0,-1.440479279E0
6.224030790E-1,-3.466900826E0,-8.446065903E0,-1.928914189E0
6.321176100E-1,-2.930908680E0,-7.881060600E0,-2.211566210E0
6.418312560E-1,-2.533401012E0,-7.627421379E0,-1.454836130E0
6.515441730E-1,-2.317747831E0,-7.715955734E0,-9.233304262E-1
6.612579750E-1,-2.655434847E0,-8.350353241E0,-9.595218897E-1
6.709724540E-1,-2.897109985E0,-9.102297783E0,-6.433702111E-1
6.806861000E-1,-3.009871721E0,-9.727123260E0,-4.136592150E-1
6.903990680E-1,-2.722434044E0,-1.042851925E1,-6.026921868E-1
7.001128180E-1,-2.133500576E0,-1.076620674E1,7.238288224E-2
7.098272980E-1,-1.853540182E0,-1.091456127E1,-5.443671346E-2
7.195410480E-1,-1.788634896E0,-1.119930744E1,1.016949583E-2
7.292539120E-1,-1.604387641E0,-1.138146114E1,4.292125702E-1
7.389676620E-1,-1.348355532E0,-1.145563793E1,6.110670567E-1
7.486821930E-1,-1.369890928E0,-1.147238827E1,4.076771438E-1
7.583958390E-1,-1.673779488E0,-1.129262733E1,3.358924687E-1
7.681087560E-1,-1.963610053E0,-1.082602692E1,5.225326419E-1
7.778225060E-1,-2.250748873E0,-1.028734303E1,8.554341197E-1
7.875370370E-1,-2.291426897E0,-9.837192535E0,1.020538807E0
7.972506830E-1,-2.145464659E0,-9.346364975E0,8.410771489E-1
8.069636520E-1,-1.994716763E0,-8.963214874E0,6.182455420E-1
8.166774020E-1,-1.932503343E0,-8.968000412E0,4.818546474E-1
8.263918810E-1,-2.353640079E0,-9.157332420E0,7.402794957E-1
8.361056310E-1,-2.674577475E0,-9.181260109E0,6.397809386E-1
8.458184950E-1,-2.832503796E0,-9.128618240E0,3.406781256E-1
8.555322450E-1,-2.851646423E0,-9.095118523E0,2.114657015E-1
8.652467770E-1,-2.459223509E0,-9.274580956E0,5.084748194E-2
8.749604230E-1,-1.834397674E0,-9.564111710E0,-1.214357466E-1
8.846733910E-1,-1.168594718E0,-9.961619377E0,-1.070788130E-1
8.943871410E-1,-6.203392744E-1,-1.029691410E1,-2.291127741E-1
9.041016730E-1,-2.494517565E-1,-1.050508976E1,-1.668993831E-1
9.138153180E-1,-2.327020019E-1,-1.046441174E1,4.220340848E-1
9.235282350E-1,-5.150550604E-1,-1.039741230E1,6.014958024E-1
9.332420370E-1,-7.761718631E-1,-1.013629627E1,3.263211846E-1
9.429565160E-1,-1.255035520E0,-9.968798637E0,-4.725824669E-2
9.526702660E-1,-1.714457393E0,-9.813264847E0,-1.453639716E-1
9.623831310E-1,-2.243570328E0,-9.688838005E0,-1.740778536E-1
9.720969330E-1,-2.665006161E0,-9.588040352E0,-2.123630047E-1
9.818114120E-1,-2.373081923E0,-9.789336205E0,-5.117649436E-1
9.915251620E-1,-1.954038739E0,-9.741479874E0,-3.272185028E-1
1.001238027E0,-1.843968987E0,-9.808479309E0,-2.099701911E-1
1.010951777E0,-1.704886079E0,-9.564111710E0,-5.763711333E-1
1.020666308E0,-1.791027784E0,-8.910572052E0,-6.912266612E-1
1.030379954E0,-1.829612017E0,-8.486743927E0,-1.117448211E0
1.040092923E0,-2.291426897E0,-8.058428764E0,-1.840379715E0
1.049806673E0,-3.067299604E0,-7.524529934E0,-2.829213619E0
1.059521204E0,-3.505485058E0,-7.500601768E0,-3.320041418E0
1.069234954E0,-3.469293833E0,-7.751848221E0,-2.707179785E0
1.078947818E0,-3.038585663E0,-8.091927528E0,-1.893021822E0
1.088661568E0,-2.327319145E0,-8.664112091E0,-1.481157184E0
1.098376100E0,-1.601994753E0,-8.292924881E0,-7.079764009E-1
1.108089850E0,-1.484746456E0,-7.634599686E0,-1.019342422E0
1.117802714E0,-1.910967946E0,-6.914061069E0,-2.891427040E0
1.127516464E0,-2.495115757E0,-5.932405472E0,-5.053342342E0
1.137230995E0,-3.222832918E0,-5.455934525E0,-5.271089077E0
1.146944745E0,-3.984049797E0,-5.522933960E0,-4.071686745E0
1.156657610E0,-4.211667061E0,-5.829514027E0,-3.458825111E0
1.166371412E0,-4.111168385E0,-6.320342064E0,-2.106282234E0
1.176085943E0,-4.350450516E0,-6.767799854E0,-7.989036441E-1
1.185799589E0,-4.994419098E0,-7.625028610E0,-1.730309844E0
1.195512558E0,-5.291428089E0,-8.328817368E0,-2.853141785E0
1.205226308E0,-4.364807606E0,-8.800502777E0,-2.419741869E0
1.214940839E0,-2.159821510E0,-9.679266930E0,-2.558525562E0
1.224654485E0,5.192425251E-1,-9.990333557E0,-3.731606960E0
1.234367454E0,2.601895571E0,-1.000469017E1,-4.071686745E0
1.244081204E0,3.562015533E0,-1.026819992E1,-4.083651066E0
1.253795735E0,3.274876833E0,-1.017218781E1,-4.512265205E0
1.263509485E0,1.017248750E0,-9.751050949E0,-4.054936886E0
1.273222350E0,-1.604387641E0,-9.473184586E0,-4.588835716E0
1.282936152E0,-3.038585663E0,-9.152546883E0,-5.137091160E0
1.292650683E0,-3.036192894E0,-9.119047165E0,-5.213661671E0
1.302364329E0,-2.638685226E0,-8.994320869E0,-5.129912853E0
1.312077298E0,-1.913360834E0,-8.726325035E0,-3.789333820E0
1.321791100E0,-1.202094316E0,-8.474779129E0,-2.580060959E0
1.331505579E0,-7.546364665E-1,-7.725526810E0,-2.592025042E0
1.341219329E0,-4.719842672E-1,-6.707979202E0,-4.789832592E0
1.350932245E0,-8.838488460E-1,-5.851049423E0,-8.309375763E0
1.360645995E0,-1.625923038E0,-5.510969639E0,-9.987641335E0
1.370360527E0,-1.568495274E0,-5.992226124E0,-9.128020287E0
1.380074277E0,-6.538388133E-1,-6.842276573E0,-6.429813385E0
1.389787141E0,-3.714857101E-1,-7.122236729E0,-4.337589264E0
1.399500943E0,-1.017846942E0,-6.851847649E0,-4.737190723E0
1.409215475E0,-1.314856052E0,-6.351448536E0,-7.265506744E0
1.418929120E0,-7.905287743E-1,-6.035296917E0,-9.492028236E0
1.428642089E0,-3.236292601E-1,-5.886941910E0,-1.061246777E1
1.438355891E0,-5.389832854E-1,-5.520540714E0,-9.614062309E0
1.448070370E0,-1.017846942E0,-5.317151070E0,-7.897511005E0
1.457784120E0,-1.820040703E0,-5.187938690E0,-7.330112934E0
1.467497037E0,-2.080858469E0,-4.972285271E0,-7.511967659E0
1.477210839E0,-1.927717686E0,-5.096712112E0,-8.134400368E0
1.486925318E0,-1.719243050E0,-5.384150028E0,-8.651549339E0
1.496639068E0,-6.251249313E-1,-5.757729530E0,-8.529515266E0
1.506351985E0,6.077769399E-1,-6.092724800E0,-7.861618996E0
1.516065735E0,1.447956800E0,-6.270092487E0,-8.076972961E0
1.525780266E0,1.670788407E0,-5.891727448E0,-9.769596100E0
1.535494016E0,1.352243900E0,-5.164010525E0,-1.014796066E1
1.545206933E0,9.547362328E-1,-4.129712582E0,-1.013360405E1
1.554920683E0,-3.403790295E-1,-3.030808926E0,-9.872487068E0
1.564635214E0,-1.815255046E0,-1.845763564E0,-9.688240051E0
1.574348964E0,-3.320938826E0,-3.421736360E-1,-8.994022369E0
1.584061881E0,-3.529413462E0,-3.972085714E-1,-9.218947411E0
1.593775631E0,-2.715255499E0,-5.623133183E-1,-9.058628082E0
1.603490162E0,-2.052144527E0,-9.071788788E-1,-9.681061745E0
1.613203912E0,-1.178166032E0,-1.036391258E0,-9.905986786E0
1.622916829E0,8.949156404E-1,-1.565504193E0,-1.018624592E1
1.632630579E0,1.459920883E0,-2.022832394E0,-1.098096180E1
1.642345110E0,1.053141117E0,-2.446661234E0,-1.050239754E1
1.652058860E0,3.873381615E-1,-2.618944407E0,-1.012642574E1
1.661771777E0,2.485544533E-1,-2.599801779E0,-9.685847282E0
1.671485527E0,2.820539773E-1,-2.120938063E0,-1.003549862E1
1.681200058E0,-2.207378894E-1,-2.137687922E0,-1.036570740E1
1.690913808E0,-1.424925923E0,-2.195115566E0,-1.086132145E1
1.700626725E0,-1.446461320E0,-2.312364101E0,-1.077757263E1
1.710340475E0,-1.453639746E0,-2.281257391E0,-1.141436195E1
1.720055006E0,-1.209272742E0,-2.039582253E0,-1.097856903E1
1.729768756E0,-7.235297561E-1,-1.833799481E0,-1.085892868E1
1.739481673E0,-6.900302172E-1,-1.809871197E0,-1.122532940E1
1.749195475E0,-1.072881818E0,-2.539981127E0,-1.124686432E1
1.758910006E0,-1.484746456E0,-3.014059305E0,-1.186690521E1
1.768623652E0,-1.348355532E0,-3.176771164E0,-1.115832996E1
1.778336620E0,-1.139880896E0,-2.575873613E0,-1.163240814E1
1.788050423E0,-5.437689424E-1,-2.003689766E0,-1.128514957E1
1.797764954E0,-1.680957973E-1,-1.438684583E0,-1.127079296E1
1.807478704E0,2.461616248E-1,-1.479362607E0,-1.181426239E1
1.817191568E0,-1.752742529E-1,-2.065903187E0,-1.145025444E1
1.826905370E0,-5.174478889E-1,-2.923131943E0,-1.206311607E1
1.836619902E0,-1.139880896E0,-3.557528973E0,-1.201047421E1
1.846333652E0,-1.355534077E0,-3.461816072E0,-1.215165043E1
1.856046568E0,-1.094417214E0,-2.776870728E0,-1.185254765E1
1.865760318E0,-9.580263495E-1,-1.615753531E0,-1.174247837E1
1.875474850E0,-9.173483849E-1,-8.449655175E-1,-1.158903790E1
1.885188600E0,-1.084846020E0,-6.918248534E-1,-1.137846947E1
1.894901516E0,-1.247856975E0,-1.086640596E0,-1.158425236E1
1.904615318E0,-1.170987606E0,-1.704287887E0,-1.156750298E1
1.914329850E0,-1.307677627E0,-2.324627161E0,-1.081107140E1
1.924043495E0,-1.506281853E0,-2.518445730E0,-1.130907822E1
1.933756464E0,-1.353141189E0,-2.441875458E0,-1.139043427E1
1.943470266E0,-1.369890928E0,-2.283650160E0,-1.077757263E1
1.953184798E0,-1.350748420E0,-2.065903187E0,-1.123490047E1
1.962898548E0,-1.168594718E0,-2.037189484E0,-1.066750240E1
1.972611412E0,-7.091727853E-1,-1.881655931E0,-1.104347515E1
1.982325214E0,-8.024929166E-1,-1.840977907E0,-1.143589783E1
1.992039745E0,-1.041775107E0,-2.089831591E0,-1.096181965E1
2.001753495E0,-1.298106313E0,-2.705085993E0,-1.094746304E1
2.011466412E0,-9.556335211E-1,-3.126521826E0,-1.070818043E1
2.021180214E0,-8.048857450E-1,-3.262912750E0,-1.085174942E1
2.030894745E0,-4.959124923E-1,-3.253341436E0,-1.080389309E1
2.040608391E0,-4.025924206E-1,-3.088236809E0,-1.080867863E1
2.050321360E0,-6.586244106E-1,-2.630908489E0,-1.062921715E1
2.060035162E0,-8.312067389E-1,-2.676372051E0,-1.014078236E1
2.069749693E0,-1.377069473E0,-2.762513638E0,-1.000917721E1
2.079463443E0,-1.946860313E0,-3.071486950E0,-9.645169258E0
2.089176308E0,-1.865504384E0,-3.591028690E0,-9.228518486E0
2.098890110E0,-1.575673699E0,-4.120141506E0,-8.922237396E0
2.108604641E0,-1.084846020E0,-4.452744007E0,-9.039485931E0
2.118318391E0,-5.557330847E-1,-4.790431023E0,-9.199805260E0
2.128031308E0,-1.048953652E0,-4.804787636E0,-9.204590797E0
2.137745110E0,-1.611566067E0,-5.017749310E0,-8.922237396E0
2.147459641E0,-1.582852125E0,-5.551647663E0,-8.283054352E0
2.157173287E0,-1.317248821E0,-6.018547058E0,-8.187042236E0
2.166886256E0,-9.915258884E-1,-6.166902065E0,-7.835297585E0
2.176600058E0,-5.030909777E-1,-6.128616810E0,-7.514360428E0
2.186314589E0,-9.601201117E-2,-6.099903107E0,-7.622037411E0
2.196028339E0,-4.384847581E-1,-5.719444275E0,-7.459325314E0
2.205741204E0,-1.491924882E0,-5.508576870E0,-7.373183727E0
2.215455006E0,-1.851147413E0,-5.570790291E0,-6.858428001E0
2.225169537E0,-1.041775107E0,-6.272485256E0,-5.898307800E0
2.234883287E0,-9.460622668E-1,-6.914061069E0,-5.938985825E0
2.244596204E0,-1.882254124E0,-7.045666218E0,-6.075675964E0
2.254310006E0,-2.509472847E0,-7.311269760E0,-6.058926105E0
2.264024537E0,-2.320140600E0,-7.804490089E0,-5.867201328E0
2.273738183E0,-1.759921074E0,-7.991429329E0,-5.326124191E0
2.283451152E0,-6.729813814E-1,-8.022536278E0,-5.369194984E0
2.293164954E0,4.402793646E-1,-7.953144073E0,-5.577669621E0
2.302879485E0,2.246262282E-1,-8.479565620E0,-4.823332310E0
2.312593235E0,-1.764706731E0,-8.853144646E0,-4.095614910E0
2.322306100E0,-3.012264490E0,-8.922536850E0,-3.844368696E0
2.332019902E0,-3.084049225E0,-8.910572052E0,-4.186542511E0
2.341734433E0,-2.645863533E0,-8.977571487E0,-4.459623337E0
2.351448183E0,-2.011466503E0,-8.462815285E0,-4.418945312E0
2.361161100E0,-1.604387641E0,-7.658527851E0,-4.220041752E0
2.370874902E0,-1.441675663E0,-6.961917400E0,-4.038187504E0
2.380589433E0,-1.664208174E0,-6.466304302E0,-4.088436604E0
2.390303079E0,-2.210070848E0,-6.356234074E0,-3.473181963E0
2.400016048E0,-2.387438774E0,-6.760621071E0,-2.771785975E0
2.409729850E0,-2.238784790E0,-7.763812065E0,-2.405385017E0
2.419444381E0,-2.073679924E0,-8.807681084E0,-2.402992249E0
2.429158131E0,-1.640279889E0,-8.920144081E0,-3.403790236E0
2.438870995E0,-1.130309582E0,-8.568398476E0,-3.667000771E0
2.448584798E0,-7.666005492E-1,-8.355138779E0,-3.032603502E0
2.458299329E0,-6.514459848E-1,-8.106285095E0,-2.355135679E0
2.468013079E0,-8.838488460E-1,-7.684848785E0,-1.885843396E0
2.477725995E0,-1.539781332E0,-7.553243637E0,-2.015055656E0
2.487439798E0,-1.688136339E0,-7.613064289E0,-2.146960020E0
2.497154329E0,-1.695314884E0,-7.486244678E0,-2.036591291E0
2.506867975E0,-1.994716763E0,-7.591528893E0,-1.636989832E0
2.516580943E0,-2.789433002E0,-6.976274490E0,-1.625025630E0
2.526294745E0,-3.622733593E0,-6.629015923E0,-2.087139606E0
2.536009277E0,-4.230809689E0,-6.289235115E0,-2.450848579E0
2.545723027E0,-4.541876316E0,-6.200401783E0,-2.560918331E0
2.555435891E0,-4.925027370E0,-6.353841305E0,-2.374278307E0
2.565149693E0,-4.240380764E0,-6.755835533E0,-1.811665893E0
2.574864225E0,-3.895515203E0,-7.332805157E0,-1.383051515E0
2.584577975E0,-4.056133270E0,-7.888238907E0,-1.253839016E0
2.594290891E0,-4.546662331E0,-8.280961037E0,-1.256231904E0
2.604004641E0,-4.709673405E0,-8.644968987E0,-1.234696507E0
2.613719173E0,-4.276273251E0,-8.963214874E0,-1.086341500E0
2.623432923E0,-3.380759239E0,-9.497113228E0,-1.129412293E0
2.633145839E0,-2.444866419E0,-1.009801102E1,-6.649056077E-1
2.642859641E0,-1.783849239E0,-1.066301632E1,1.130608693E-1
2.652574173E0,-1.094417214E0,-1.145803165E1,1.099501967E0
2.662287818E0,-4.265206456E-1,-1.190818119E1,1.681257010E0
2.672000787E0,8.823533356E-2,-1.239153099E1,1.686042666E0
2.681714589E0,3.849453330E-1,-1.223599815E1,1.063609719E0
2.691429120E0,4.136592150E-1,-1.208046436E1,5.632106066E-1
2.701142870E0,-1.127617657E-1,-1.174516964E1,5.584250093E-1
2.710855735E0,-1.336391449E0,-1.128066349E1,6.326025128E-1
2.720569537E0,-2.152642965E0,-1.081406307E1,8.626125455E-1
2.730284068E0,-2.885145903E0,-1.016979504E1,9.367900491E-1
2.739997818E0,-3.184547901E0,-9.092725754E0,5.009972453E-1
2.749710735E0,-3.196511984E0,-8.522934914E0,1.133001566E0
2.759424485E0,-2.925823927E0,-8.652147293E0,1.298106313E0
2.769139016E0,-2.281855583E0,-8.673683167E0,1.571187139E0
2.778852766E0,-2.068894386E0,-9.097511292E0,1.604686737E0
2.788565683E0,-2.358425856E0,-9.621838570E0,1.757827282E0
2.798279485E0,-2.676970243E0,-9.626625061E0,2.179263115E0
2.807994016E0,-2.993122101E0,-9.178867340E0,2.279761791E0
2.817707662E0,-3.213261604E0,-8.764610291E0,2.217548370E0
2.827420631E0,-3.282653570E0,-9.109476089E0,1.942373753E0
2.837134433E0,-2.839682341E0,-8.991928101E0,1.827219248E0
2.846848964E0,-2.336890459E0,-8.702396393E0,2.152942181E0
2.856562714E0,-2.102393866E0,-8.936893463E0,2.282154560E0
2.866275579E0,-2.037787676E0,-9.131011009E0,1.858325839E0
2.875989381E0,-1.966002941E0,-9.372686386E0,1.087537885E0
2.885703912E0,-1.903789520E0,-9.422935486E0,3.813561201E-1
2.895417662E0,-2.128714800E0,-9.583254814E0,-6.580262445E-3
2.905130527E0,-2.243570328E0,-9.844371796E0,3.885345757E-1
2.914844329E0,-2.411366940E0,-9.959226608E0,8.937192559E-1
2.924558860E0,-2.775076151E0,-9.844371796E0,1.042074203E0
2.934272610E0,-3.105584621E0,-9.336793900E0,1.030110121E0
2.943985527E0,-3.431008577E0,-9.604789734E0,3.622135222E-1
2.953699277E0,-3.055335522E0,-9.674481392E0,-6.580262445E-3
2.963413808E0,-2.564507723E0,-9.846764565E0,1.010967568E-1
2.973127558E0,-1.872682810E0,-1.000708294E1,9.870393574E-2
2.982840475E0,-1.377069473E0,-1.032562828E1,1.971087605E-1
2.992554225E0,-1.286142230E0,-1.029452133E1,5.081757307E-1
3.002268756E0,-1.604387641E0,-9.830014229E0,5.991029739E-1
3.011982506E0,-2.363211393E0,-9.346364975E0,3.646063507E-1
3.021695423E0,-2.930908680E0,-8.968000412E0,2.114657015E-1
3.031409225E0,-3.153441191E0,-8.979964256E0,2.425723970E-1
3.041123756E0,-2.889931440E0,-9.619445801E0,6.520441920E-2
3.050837402E0,-2.109572172E0,-1.042612648E1,-2.817548811E-1
3.060550370E0,-1.221236825E0,-1.015304565E1,-9.738788009E-1
3.070264173E0,-9.293124676E-1,-9.614361763E0,-2.123031855E0
3.079978704E0,-7.402794957E-1,-9.071190834E0,-4.428516388E0
3.089692350E0,-9.532406926E-1,-8.247461319E0,-6.963712215E0
3.099405318E0,-1.489532113E0,-7.895417213E0,-7.267899513E0
3.109119120E0,-2.262712955E0,-7.957930088E0,-5.496313572E0
3.118833652E0,-3.067299604E0,-7.916952610E0,-3.339184046E0
3.128547298E0,-3.273082256E0,-8.034500122E0,-1.912164450E0
3.138260266E0,-2.440080881E0,-8.056035995E0,-1.555633783E0
3.147974068E0,-1.623530149E0,-7.718348503E0,-1.409372568E0
3.157688600E0,-2.078465462E0,-7.660920620E0,-7.357929647E-2
3.167402245E0,-2.574079037E0,-7.620242596E0,2.217548370E0
3.177115214E0,-3.079263687E0,-7.014559746E0,3.670889139E0
3.186829016E0,-3.625126362E0,-6.358626842E0,4.214358807E0
3.196543548E0,-4.111168385E0,-5.831906796E0,3.678067446E0
3.206257193E0,-3.790230989E0,-5.467898846E0,9.176474810E-1
3.215970162E0,-3.067299604E0,-4.831109047E0,-3.473181963E0
3.225683964E0,-2.447259426E0,-4.950749874E0,-5.915057659E0
3.235398495E0,-2.066501379E0,-5.939583778E0,-5.031806946E0
3.245112141E0,-1.910967946E0,-7.471887589E0,-3.168994427E0
3.254825110E0,-1.233201027E0,-8.999106407E0,-2.673680305E0
3.264538912E0,-9.053842425E-1,-9.501898766E0,-3.564109325E0
3.274253443E0,-1.740778446E0,-9.121439934E0,-4.007080555E0
3.283967089E0,-2.662613392E0,-8.946464539E0,-4.038187504E0
3.293680058E0,-2.969193697E0,-8.958429337E0,-4.287040710E0
3.303393860E0,-2.945265532E0,-8.994320869E0,-4.701298237E0
3.313108391E0,-2.126322031E0,-9.257830620E0,-5.388337612E0
3.322822037E0,-1.434497118E0,-9.516255379E0,-4.919344425E0
3.332535006E0,-1.537388563E0,-1.002861881E1,-3.738785267E0
3.342248808E0,-1.441675663E0,-1.030409241E1,-4.263112545E0
3.351963339E0,-1.367498159E0,-9.506684303E0,-5.426921844E0
3.361676985E0,-2.044965982E0,-8.410173416E0,-6.049354553E0
3.371389954E0,-2.662613392E0,-7.581957817E0,-5.347659588E0
3.381103756E0,-2.382653236E0,-7.311269760E0,-4.191328049E0
3.390818235E0,-1.518245935E0,-7.232306480E0,-5.094020367E0
3.400531985E0,-9.436694384E-1,-7.196413994E0,-6.535097599E0
3.410244902E0,-8.048857450E-1,-7.479066372E0,-7.650751114E0
3.419958704E0,-9.556335211E-1,-7.742276669E0,-7.998009682E0
3.429673183E0,-1.295713425E0,-7.861917973E0,-7.885547161E0
3.439386933E0,-2.088036776E0,-7.792526245E0,-7.686942577E0
3.449099850E0,-1.865504384E0,-7.359126091E0,-7.804191113E0
3.458813600E0,-8.838488460E-1,-6.885347366E0,-8.122436523E0
3.468528131E0,-3.212364316E-1,-6.346662998E0,-7.964509964E0
3.478241881E0,-2.925225794E-1,-6.020939827E0,-7.634001732E0
3.487954798E0,-6.107679605E-1,-6.459125519E0,-8.388339043E0
3.497668548E0,-1.499103427E0,-6.981060028E0,-8.730512619E0
3.507383079E0,-2.550150633E0,-6.540481567E0,-8.328517914E0
3.517096829E0,-2.538186550E0,-5.475077152E0,-8.836095810E0
3.526809693E0,-2.289033890E0,-4.464707851E0,-9.089735031E0
3.536523495E0,-2.219642162E0,-3.997808456E0,-8.912666321E0
3.546238027E0,-1.903789520E0,-3.358625650E0,-8.601300240E0
3.555951777E0,-1.456032634E0,-2.645265341E0,-9.183054924E0
3.565664641E0,-1.302891970E0,-2.874976397E0,-8.860024452E0
3.575378443E0,-1.465603828E0,-3.567100286E0,-8.515158653E0
3.585092975E0,-1.099202871E0,-3.866203070E0,-8.795417786E0
3.594806620E0,-6.011967063E-1,-4.139284134E0,-1.012642574E1
3.604519589E0,-7.713862062E-1,-4.718646049E0,-1.036092186E1
3.614233391E0,-8.503493667E-1,-4.361816406E0,-1.011446095E1
3.623947923E0,-1.151844978E0,-3.839882135E0,-9.738489151E0
3.633661568E0,-1.182951689E0,-4.053142548E0,-8.922237396E0
3.643374537E0,-4.169493318E-1,-3.662813187E0,-9.666704178E0
3.653088339E0,-2.829512656E-1,-3.384946823E0,-1.017906761E1
3.662802818E0,-9.221340418E-1,-3.717848301E0,-1.063878822E1
3.672516568E0,-9.005986452E-1,-3.432803154E0,-1.124207878E1
3.682229433E0,2.509472668E-1,-2.697907448E0,-9.968499184E0
3.691943235E0,-4.193421602E-1,-3.171985626E0,-1.081825066E1
3.701657766E0,-1.537388563E-1,-3.176771164E0,-1.005703354E1
3.711371516E0,-2.169392824E0,-4.189533234E0,-9.939785004E0
3.721084381E0,-1.214058399E0,-2.525624275E0,-1.040877819E1
3.730798183E0,-9.340981245E-1,-1.646860242E0,-1.030349445E1
3.740512714E0,-2.947658300E0,-2.501696110E0,-1.030827999E1
3.750226360E0,-4.867599487E0,-4.062713623E0,-1.069621658E1
3.759939329E0,-3.859622955E0,-3.313162088E0,-1.083500004E1
3.769653131E0,-2.894717216E0,-2.370090723E0,-1.088046360E1
3.779367610E0,-2.150250196E0,-1.460219979E0,-1.079671478E1
3.789081360E0,-1.685743570E0,-9.454640746E-1,-1.117986584E1
3.798794277E0,-1.719243050E0,-1.158425212E0,-1.095942688E1
3.808508027E0,-1.601994753E0,-1.929512382E0,-1.105065346E1
3.818222558E0,-1.412961721E0,-2.685943365E0,-1.109611702E1
3.827936308E0,-1.379462242E0,-2.834298372E0,-1.115832996E1
3.837649173E0,-1.377069473E0,-2.618944407E0,-1.106501007E1
3.847362975E0,-1.731207132E0,-2.228615284E0,-1.093549824E1
3.857077506E0,-1.827219248E0,-1.922333837E0,-1.109611702E1
3.866791152E0,-1.343569875E0,-2.022832394E0,-1.112483025E1
3.876504120E0,-1.020239711E0,-2.142473459E0,-1.138325596E1
3.886217923E0,-8.431708813E-1,-2.161616087E0,-1.125404263E1
3.895932402E0,-1.255035520E0,-2.329412937E0,-1.079192924E1
3.905646152E0,-1.338784218E0,-2.535195589E0,-1.067468071E1
3.915359016E0,-1.255035520E0,-2.927917719E0,-1.048564816E1
3.925072818E0,-1.063310504E0,-3.162414312E0,-1.085653591E1
3.934787350E0,-1.068096161E0,-3.270091295E0,-1.108415222E1
3.944501100E0,-1.130309582E0,-3.193521023E0,-1.072492981E1
3.954213964E0,-1.494317770E0,-2.992523909E0,-1.095224857E1
3.963927766E0,-1.757528186E0,-3.066701412E0,-1.052393341E1
3.973642245E0,-2.061715841E0,-3.368196964E0,-1.073689461E1
3.983355995E0,-2.245963097E0,-3.655634880E0,-1.002353382E1
3.993068912E0,-2.167000055E0,-3.756133318E0,-1.021256733E1
4.002782662E0,-1.846361756E0,-3.753740549E0,-1.041595650E1
4.012497193E0,-1.865504384E0,-3.775275946E0,-1.032742214E1
4.022210943E0,-1.949253201E0,-3.559921980E0,-1.038245773E1
4.031923808E0,-2.296212435E0,-3.641277790E0,-1.000678444E1
4.041637610E0,-2.308176517E0,-3.519243956E0,-1.061007500E1
4.051352141E0,-2.509472847E0,-3.538386583E0,-9.822237968E0
4.061065787E0,-2.169392824E0,-3.684348583E0,-9.817452431E0
4.070778756E0,-1.740778446E0,-3.854238987E0,-9.340981483E0
4.080492506E0,-1.563709617E0,-4.280460835E0,-9.226125717E0
4.090207037E0,-1.680957913E0,-4.689932346E0,-9.398708344E0
4.099920787E0,-1.726421595E0,-5.386542797E0,-8.649156570E0
4.109633652E0,-2.033001900E0,-6.250949860E0,-7.720442295E0
4.119347454E0,-2.397010088E0,-6.798906326E0,-8.088936806E0
4.129061985E0,-2.540579557E0,-7.182057381E0,-8.718548775E0
4.138775631E0,-3.174976587E0,-7.323233604E0,-8.067401886E0
4.148488600E0,-4.324129581E0,-7.253841877E0,-7.777870178E0
4.158202350E0,-4.525126934E0,-6.873383045E0,-8.749654770E0
4.167916881E0,-4.080061913E0,-6.578766823E0,-8.299804688E0
4.177630631E0,-3.490829229E0,-6.315556049E0,-8.045866013E0
4.187343495E0,-2.662613392E0,-6.090332031E0,-7.746763229E0
4.197057298E0,-1.836790442E0,-6.023332596E0,-7.054639339E0
4.206771829E0,-1.374676585E0,-6.394519329E0,-6.515954971E0
4.216485475E0,-9.245268703E-1,-6.341877460E0,-6.736393929E0
4.226198443E0,-9.939187169E-1,-6.253343105E0,-6.475276947E0
4.235912193E0,-1.518245935E0,-6.545267105E0,-6.140282154E0
4.245626725E0,-2.119143486E0,-6.375376701E0,-5.857629776E0
4.255340475E0,-2.401795626E0,-6.145366669E0,-5.625525951E0
4.265053339E0,-2.233999014E0,-6.593123913E0,-5.211268425E0
4.274767141E0,-2.097608089E0,-7.486244678E0,-5.544169903E0
4.284481673E0,-1.987538338E0,-7.725526810E0,-5.620740414E0
4.294195318E0,-1.829612017E0,-8.144570351E0,-4.818546772E0
4.303908287E0,-1.274178028E0,-8.190033913E0,-4.368695736E0
4.313622037E0,-4.671986103E-1,-7.924131393E0,-4.373481750E0
4.323336568E0,3.559323773E-2,-7.567600727E0,-3.940081596E0
4.333050318E0,5.718846321E-1,-6.983452797E0,-3.487539053E0
4.342763183E0,5.479564071E-1,-6.746264458E0,-3.729214191E0
4.352476985E0,-8.165507019E-2,-7.026523590E0,-4.066901207E0
4.362191464E0,-1.365105271E0,-7.943572998E0,-3.466003656E0
4.371905214E0,-2.138286114E0,-8.484351158E0,-2.673680305E0
4.381618131E0,-2.356033087E0,-8.767003059E0,-2.659323215E0
4.391331881E0,-2.667398930E0,-8.783752441E0,-3.351148129E0
4.401046412E0,-2.885145903E0,-8.539685249E0,-3.949652910E0
4.410760162E0,-2.562114954E0,-8.067999840E0,-3.908974886E0
4.420473027E0,-2.013859272E0,-7.653742313E0,-3.499503136E0
4.430186829E0,-1.237986565E0,-7.071987152E0,-3.253042459E0
4.439901308E0,-1.068096161E0,-7.067201614E0,-2.680858612E0
4.449615058E0,-7.211369276E-1,-7.392924786E0,-2.381456852E0
4.459327923E0,-8.479565382E-1,-8.022536278E0,-2.235494614E0
4.469041725E0,-1.137488008E0,-8.364709854E0,-2.276172638E0
4.478756256E0,-1.379462242E0,-8.530113220E0,-2.510669231E0
4.488469902E0,-1.434497118E0,-8.424530029E0,-2.625823736E0
4.498182870E0,-1.444068432E0,-8.278568268E0,-2.460419893E0
4.507896620E0,-1.647458434E0,-7.941180229E0,-2.180459738E0
4.517611152E0,-2.131107569E0,-7.445566654E0,-2.249851465E0
4.527324902E0,-2.538186550E0,-7.095915318E0,-2.233101845E0
4.537037766E0,-2.621935368E0,-6.825526714E0,-2.144567251E0
4.546751568E0,-2.940479994E0,-6.882954121E0,-2.161317110E0
4.556466100E0,-3.428615808E0,-6.940382004E0,-2.139781713E0
4.566179745E0,-3.940979004E0,-7.294519901E0,-1.921735644E0
4.575892714E0,-4.058526516E0,-8.079963684E0,-1.904985905E0
4.585606464E0,-3.749552965E0,-8.551649094E0,-1.634596944E0
4.595320995E0,-3.347259760E0,-8.759824753E0,-8.204390407E-1
4.605034745E0,-2.993122101E0,-8.405387878E0,-4.725824669E-2
4.614747610E0,-2.662613392E0,-8.240283012E0,3.191427290E-1
4.624461412E0,-2.428116798E0,-8.501399994E0,1.728814393E-1
4.634175943E0,-2.207678080E0,-9.119047165E0,6.759724021E-2
4.643889589E0,-2.135893345E0,-9.681659698E0,4.698905349E-1
4.653602558E0,-2.327319145E0,-1.050030422E1,9.272187948E-1
4.663316308E0,-2.420938253E0,-1.081167030E1,1.604686737E0
4.673030839E0,-2.550150633E0,-1.114427280E1,2.021337032E0
4.682744589E0,-2.300997972E0,-1.078774166E1,2.143370867E0
4.692457454E0,-2.097608089E0,-1.047159004E1,1.688435435E0
4.702171256E0,-1.752742529E0,-1.036391354E1,1.056431174E0
4.711885735E0,-1.594816327E0,-1.029452133E1,1.073180914E0
4.721599485E0,-1.633101463E0,-1.068215847E1,1.456331730E0
4.731312350E0,-1.853540182E0,-1.113709354E1,2.107478619E0
4.741026152E0,-2.140678883E0,-1.150588799E1,2.174477577E0
4.750740683E0,-2.531008244E0,-1.149392319E1,1.439581871E0
4.760454329E0,-2.889931440E0,-1.099591732E1,4.938187599E-1
4.770167298E0,-3.230011463E0,-1.037587738E1,-2.219343036E-1
4.779881048E0,-3.476472139E0,-9.839586258E0,-1.788634956E-1
4.789595579E0,-3.488436222E0,-9.432506561E0,2.521436810E-1
4.799309329E0,-3.270689487E0,-9.114261627E0,8.362914920E-1
4.809022193E0,-2.858824968E0,-8.951250076E0,1.202393413E0
4.818735995E0,-2.538186550E0,-8.807681084E0,1.346261859E0
4.828450527E0,-2.360818624E0,-8.676075935E0,1.305284739E0
4.838164173E0,-2.033001900E0,-8.594719887E0,1.154536963E0
4.847877141E0,-2.253141642E0,-8.817252159E0,1.058824062E0
4.857590891E0,-2.162214279E0,-8.731110573E0,1.192822099E0
4.867305423E0,-2.238784790E0,-8.999106407E0,1.073180914E0
4.877019173E0,-2.411366940E0,-9.329615593E0,1.188036442E0
4.886732037E0,-2.416152716E0,-9.650552750E0,1.372582912E0
4.896445839E0,-2.167000055E0,-9.908977509E0,1.360618830E0
4.906160318E0,-1.786242127E0,-1.016979504E1,1.178465128E0
4.915874068E0,-1.403390527E0,-1.038305569E1,8.985049129E-1
4.925586933E0,-1.111167073E0,-1.058166027E1,7.211369276E-1
4.935300735E0,-8.479565382E-1,-1.056730270E1,7.812566161E-1
4.945015266E0,-7.809575200E-1,-1.049312592E1,8.961120844E-1
4.954728912E0,-1.187737346E0,-1.061994553E1,7.860422134E-1
4.964441881E0,-1.623530149E0,-1.044048309E1,6.469594240E-1
4.974155631E0,-1.994716763E0,-1.022034359E1,5.344967842E-1
4.983870162E0,-2.267498493E0,-9.751050949E0,5.392823815E-1
4.993583912E0,-2.688934565E0,-9.372686386E0,4.531407952E-1
5.003296777E0,-3.119941711E0,-9.286544800E0,-1.794616925E-3
5.013010579E0,-3.390330553E0,-9.229117393E0,-1.956132501E-1
5.022725110E0,-3.490829229E0,-9.377471924E0,1.495514158E-2
5.032438756E0,-2.973979473E0,-9.772586823E0,9.798609018E-1
5.042151725E0,-2.950051308E0,-1.028255749E1,1.997408748E0
5.051865475E0,-2.897109985E0,-9.968798637E0,1.889731646E0
5.061580006E0,-2.691327333E0,-9.150154114E0,1.097109199E0
5.071293756E0,-2.583650351E0,-8.628219604E0,-1.118644550E-1
5.081006620E0,-2.619542599E0,-8.197212219E0,-1.316052437E0
5.090720423E0,-2.789433002E0,-7.567600727E0,-2.465205431E0
5.100434902E0,-2.598007202E0,-7.390532017E0,-3.039782047E0
5.110148652E0,-2.442473650E0,-7.469494820E0,-3.097209692E0
5.119861568E0,-2.351247311E0,-7.569993496E0,-3.078067303E0
5.129575318E0,-2.327319145E0,-7.459923744E0,-2.721536636E0
5.139289850E0,-2.459223509E0,-7.402495861E0,-2.055733681E0
5.149003495E0,-2.665006161E0,-7.569993496E0,-1.442872047E0
5.158716464E0,-2.940479994E0,-7.435995579E0,-1.392622828E0
5.168430214E0,-3.447758436E0,-7.043273449E0,-1.926521301E0
5.178144745E0,-4.127918243E0,-6.396912098E0,-3.116352320E0
5.187858495E0,-4.462913513E0,-6.064010620E0,-4.447659016E0
5.197571360E0,-4.654638290E0,-6.114260197E0,-3.971188307E0
5.207285162E0,-4.125525475E0,-7.014559746E0,-1.931306958E0
5.216999693E0,-2.906681299E0,-7.804490089E0,-4.160520434E-1
5.226713339E0,-1.719243050E0,-7.881060600E0,2.473580390E-1
5.236426308E0,-2.150250196E0,-7.363911629E0,7.091727853E-1
5.246140058E0,-3.096013308E0,-6.961917400E0,1.106680483E-1
5.255854589E0,-3.890729666E0,-6.408876419E0,-1.945663929E0
5.265568339E0,-4.254737854E0,-5.932405472E0,-5.055735111E0
5.275281204E0,-4.271487713E0,-6.099903107E0,-7.797012806E0
5.284995006E0,-4.494019985E0,-6.703193665E0,-8.232805252E0
5.294709485E0,-4.340879440E0,-7.495816231E0,-5.938985825E0
5.304423235E0,-3.541377544E0,-8.434102058E0,-2.676073074E0
5.314136100E0,-2.645863533E0,-9.719944954E0,-6.361917257E-1
5.323849902E0,-1.767099500E0,-9.932906151E0,-7.773682475E-1
5.333564433E0,-1.199701428E0,-9.286544800E0,-2.192423820E0
5.343278079E0,-7.618148923E-1,-8.673683167E0,-4.869094849E0
5.352991048E0,-1.032203913E0,-8.132605553E0,-7.358827114E0
5.362704798E0,-1.362712502E0,-7.754240990E0,-6.906284332E0
5.372419329E0,-1.015454054E0,-7.919345856E0,-4.936093807E0
5.382132975E0,1.648056656E-1,-8.582756042E0,-3.576073408E0
5.391845943E0,1.582253933E0,-8.982357025E0,-3.257827997E0
5.401559745E0,2.084746838E0,-9.054141998E0,-5.134698391E0
5.411274225E0,7.322037220E-1,-8.297710419E0,-7.287042141E0
5.420987975E0,-9.053842425E-1,-7.586743355E0,-8.017151833E0
5.430700839E0,-1.934896231E0,-7.124629498E0,-8.311768532E0
5.440414641E0,-2.128714800E0,-6.700800896E0,-6.824928284E0
5.450129173E0,-2.178964138E0,-6.399304867E0,-6.381957054E0
5.459842818E0,-1.908575177E0,-6.241079807E0,-7.330112934E0
5.469555787E0,-1.721635938E0,-5.970690727E0,-8.400302887E0
5.479269537E0,-2.195713997E0,-5.412863731E0,-8.565407753E0
5.488984068E0,-2.810968399E0,-5.020142078E0,-8.110472679E0
5.498697714E0,-3.646661758E0,-4.572684288E0,-8.222934723E0
5.508410683E0,-4.572983265E0,-4.230211258E0,-9.647562027E0
5.518124433E0,-4.855635166E0,-4.129712582E0,-9.927821159E0
5.527838964E0,-4.702494621E0,-4.742574692E0,-9.187840462E0
5.537552714E0,-3.608376503E0,-5.568397522E0,-8.790332794E0
5.547265579E0,-1.673779488E0,-5.867799282E0,-9.355637550E0
5.556979381E0,-1.585244983E-1,-5.930012703E0,-9.022735596E0
5.566693860E0,-9.361918271E-2,-5.652146339E0,-8.378767967E0
5.576407610E0,-9.293124676E-1,-5.204688549E0,-8.239983559E0
5.586120475E0,-2.705684185E0,-4.426422596E0,-9.065806389E0
5.595834277E0,-3.550948858E0,-3.195913792E0,-9.283554077E0
5.605548808E0,-4.467699051E0,-2.721835852E0,-1.038724327E1
5.615262454E0,-4.472484589E0,-2.305185556E0,-1.085653591E1
5.624975423E0,-3.110370398E0,-2.317149639E0,-1.050718307E1
5.634689173E0,-1.678565025E0,-1.872084618E0,-1.031545830E1
5.644403704E0,-8.742775917E-1,-1.371685624E0,-9.942177773E0
5.654117454E0,4.570291340E-1,-1.722832322E-1,-9.760024071E0
5.663830318E0,2.246262282E-1,-3.541377485E-1,-9.484849930E0
5.673544068E0,1.275673628E0,-8.880363107E-1,-1.006181908E1
5.683258600E0,8.685946465E-1,-2.120938063E0,-1.130189991E1
5.692972350E0,-5.294120312E-1,-2.087438583E0,-1.107697392E1
5.702685214E0,-1.281356573E0,-2.034796476E0,-1.100249767E1
5.712399016E0,-8.670991063E-1,-1.682752490E0,-1.070339489E1
5.722113495E0,-1.372283816E0,-2.247757673E0,-1.038245773E1
5.731827245E0,-6.729813814E-1,-2.501696110E0,-1.067228794E1
5.741540110E0,6.149554253E-1,-2.061117649E0,-1.131625652E1
5.751253912E0,5.120640397E-1,-2.242972136E0,-1.124925709E1
5.760968443E0,-2.015953064E-1,-2.618944407E0,-1.143111229E1
5.770682089E0,-1.175773263E0,-2.906382322E0,-1.185254765E1
5.780395058E0,-1.020239711E0,-2.606980324E0,-1.145025444E1
5.790108808E0,-6.876373887E-1,-1.891227245E0,-1.209422302E1
5.799823339E0,-1.298106313E-1,-1.014855862E0,-1.226680565E1
5.809536985E0,6.556333899E-1,-2.656033039E-1,-1.172572803E1
5.819249954E0,4.785645306E-1,-4.785645306E-1,-1.160369396E1
5.828963704E0,4.037888348E-2,-1.254437327E0,-1.112483025E1
5.838678235E0,-4.265206456E-1,-2.101795673E0,-1.146221828E1
5.848391985E0,-1.379462242E0,-2.767299414E0,-1.182861996E1
5.858104850E0,-1.448854089E0,-2.755335331E0,-1.187886906E1
5.867818652E0,-9.604191780E-1,-2.175973177E0,-1.173051357E1
5.877533131E0,-1.255035520E0,-1.721037745E0,-1.149093246E1
5.887246881E0,-1.601994753E0,-1.462612867E0,-1.135214901E1
5.896959745E0,-1.470389485E0,-1.374078393E0,-1.121336555E1
5.906673548E0,-1.573280931E0,-1.472184181E0,-1.114397335E1
5.916388027E0,-1.649851203E0,-1.508076429E0,-1.115115166E1
5.926101777E0,-1.551745534E0,-1.572682738E0,-1.103599739E1
5.935814641E0,-1.637887120E0,-1.599003673E0,-1.118465137E1
5.945528443E0,-2.004287958E0,-1.903191328E0,-1.126361465E1
5.955242975E0,-2.289033890E0,-2.779263496E0,-1.061486053E1
5.964956620E0,-1.769492388E0,-2.642872572E0,-1.134736347E1
5.974669589E0,-1.168594718E0,-2.274078846E0,-1.128754234E1
5.984383339E0,-8.479565382E-1,-1.850549221E0,-1.085653591E1
5.994097870E0,-8.407780528E-1,-1.551147223E0,-1.108893871E1
6.003811516E0,-8.359923959E-1,-1.364507079E0,-1.106979561E1
6.013524485E0,-9.388837814E-1,-1.967797518E0,-1.061725330E1
6.023238235E0,-1.087238789E0,-2.312364101E0,-1.077996540E1
6.032952766E0,-1.099202871E0,-2.245364904E0,-1.080389309E1
6.042666412E0,-1.168594718E0,-2.142473459E0,-1.139521980E1
6.052379381E0,-1.168594718E0,-2.152044773E0,-1.169222832E1
6.062093131E0,-1.266999602E0,-2.120938063E0,-1.128754234E1
6.071807662E0,-1.154237866E0,-2.508874655E0,-1.159143066E1
6.081521308E0,-9.269196987E-1,-2.865405083E0,-1.099292660E1
6.091234277E0,-7.474579811E-1,-3.104986429E0,-8.833703041E0
6.100948027E0,-6.825526357E-1,-3.262912750E0,-8.388339043E0
6.110662558E0,-5.796613097E-1,-3.662813187E0,-8.651549339E0
6.120376308E0,-1.082453132E0,-3.653241873E0,-8.220541954E0
6.130089173E0,-2.248355865E0,-4.440779686E0,-8.417053223E0
6.139802923E0,-2.502294302E0,-5.079962254E0,-9.075378418E0
6.149517454E0,-1.310070395E0,-5.913262844E0,-8.838488579E0
6.159231204E0,5.144568682E-1,-6.791728020E0,-8.718548775E0
6.168944068E0,9.858429432E-1,-6.698407650E0,-8.711369514E0
6.178657870E0,-1.123131156E0,-6.233901024E0,-8.931808472E0
6.188372350E0,-2.665006161E0,-5.817550182E0,-7.780262947E0
6.198086100E0,-2.595614433E0,-6.006583214E0,-7.430611610E0
6.207798964E0,-1.747956991E0,-6.205187321E0,-7.928617954E0
6.217512766E0,-1.477568030E0,-6.183651924E0,-7.911868095E0
6.227227245E0,-2.133500576E0,-6.305984974E0,-7.339684486E0
6.236940995E0,-1.420140266E0,-6.703193665E0,-7.136294365E0
6.246653860E0,-2.997010350E-1,-6.878168583E0,-6.966104984E0
6.256367662E0,-5.294120312E-1,-6.597909451E0,-7.138687134E0
6.266082141E0,-2.502294302E0,-5.937191010E0,-6.803392887E0
6.275795891E0,-2.686541557E0,-6.289235115E0,-5.910272121E0
6.285508756E0,-1.408176184E0,-6.169294834E0,-5.242375374E0
6.295222558E0,1.100997567E0,-6.914061069E0,-4.933701038E0
6.304937037E0,2.580360174E0,-7.603493214E0,-4.907380104E0
6.314650787E0,2.748156786E0,-8.173283577E0,-4.931308270E0
6.324363652E0,1.347458243E0,-8.431708336E0,-4.753940582E0
6.334077454E0,-8.647062778E-1,-8.369495392E0,-5.299803257E0
6.343791933E0,-3.534198999E0,-7.366304398E0,-5.390730381E0
6.353505683E0,-4.257130623E0,-7.572386265E0,-4.351946354E0
6.363218548E0,-2.997907639E0,-7.574779034E0,-3.695714474E0
6.372932350E0,-1.934896231E0,-7.284948349E0,-3.552145243E0
6.382646829E0,-1.025025368E0,-7.229913712E0,-3.719642878E0
6.392360579E0,-4.576273263E-1,-7.335197926E0,-3.298506021E0
6.402073443E0,-1.223330572E-1,-9.037391663E0,-3.094816923E0
6.411787245E0,-5.916253924E-1,-9.947262764E0,-2.034198284E0
6.421501725E0,-9.819545746E-1,-1.041176987E1,-1.395015597E0
6.431215475E0,-1.877468467E0,-1.008365345E1,-2.247458696E0
6.440928339E0,-2.708076954E0,-9.042177200E0,-4.167399883E0
6.450642141E0,-2.925823927E0,-8.149355888E0,-3.968795538E0
6.460356620E0,-3.241975546E0,-7.610671520E0,-2.276172638E0
6.470070370E0,-2.966800928E0,-7.124629498E0,-1.644168258E0
6.479783235E0,-2.241177559E0,-7.232306480E0,-2.000698805E0
6.489497037E0,-1.494317770E0,-7.730312824E0,-2.738286495E0
6.499211516E0,-1.324427366E0,-7.883453369E0,-3.070888758E0
6.508925266E0,-1.211665511E0,-8.020143509E0,-3.406183004E0
6.518638131E0,-1.599601984E0,-7.974679470E0,-3.763012648E0
6.528351881E0,-1.719243050E0,-8.142177582E0,-3.128316402E0
6.538066412E0,-1.221236825E0,-7.768597603E0,-2.326421738E0
6.547780162E0,-1.262213945E0,-7.088737011E0,-1.627418518E0
6.557493027E0,-1.432104349E0,-6.717550278E0,-1.534098387E0
6.567206777E0,-2.387438774E0,-6.145366669E0,-2.240280151E0
6.576921308E0,-3.170190811E0,-5.781657696E0,-3.224328518E0
6.586634954E0,-3.756731510E0,-5.542076111E0,-3.466003656E0
6.596347923E0,-4.819743156E0,-6.341877460E0,-2.936890602E0
6.606061673E0,-4.992026329E0,-6.595516682E0,-1.701596022E0
6.615776204E0,-5.315356255E0,-7.100701332E0,-4.486542568E-2
6.625489850E0,-5.176572800E0,-8.041678429E0,1.489532143E-1
6.635202818E0,-4.031906128E0,-9.142974854E0,-1.286142170E-1
6.644916568E0,-2.346461773E0,-1.003101158E1,7.776673418E-3
6.654631100E0,-7.977072597E-1,-1.107966614E1,6.828517914E-1
6.664344745E0,2.748754919E-1,-1.173559856E1,1.748256087E0
6.674057714E0,1.084247708E0,-1.224556923E1,2.313261271E0
6.683771464E0,1.239781260E0,-1.250907898E1,1.956730723E0
6.693485995E0,5.623133183E-1,-1.236760330E1,1.353440285E0
6.703199641E0,-1.163809061E0,-1.207567883E1,1.080359459E0
6.712912610E0,-2.729612350E0,-1.149870968E1,8.171489239E-1
6.722626360E0,-3.536591768E0,-1.117777157E1,3.454637825E-1
6.732340891E0,-3.620340586E0,-1.090977573E1,-1.214357466E-1
6.742054537E0,-3.057728291E0,-1.062473106E1,-3.768695518E-2
6.751767454E0,-2.598007202E0,-9.997511864E0,-1.214357466E-1
6.761481256E0,-2.365604401E0,-9.305686951E0,-5.380859971E-1
6.771195735E0,-2.375474691E0,-8.381459236E0,7.238288224E-2
6.780909485E0,-1.879861236E0,-8.436494827E0,-1.238285750E-1
6.790622350E0,-1.824826360E0,-8.259425163E0,-8.075776696E-2
6.800336152E0,-2.152642965E0,-8.319246292E0,1.058823988E-1
6.810050631E0,-2.387438774E0,-8.659325600E0,3.215355575E-1
6.819764381E0,-2.531008244E0,-9.092725754E0,6.661019921E-1
6.829477245E0,-2.724826813E0,-9.370293617E0,8.985049129E-1
6.839190995E0,-2.700898647E0,-9.525827408E0,8.003991842E-1
6.848905527E0,-2.365604401E0,-9.643374443E0,4.627120793E-1
6.858619277E0,-1.999502420E0,-1.013629627E1,3.095714152E-1
6.868332141E0,-1.625923038E0,-1.013629627E1,6.397809386E-1
6.878045891E0,-1.343569875E0,-1.035194874E1,8.793623447E-1
6.887760423E0,-1.202094316E0,-1.046680450E1,8.458628058E-1
6.897474068E0,-1.353141189E0,-1.051226807E1,6.756733060E-1
6.907187037E0,-1.592423439E0,-1.047876835E1,7.283154130E-1
6.916900787E0,-1.949253201E0,-1.032323551E1,8.769695163E-1
6.926615318E0,-2.238784790E0,-1.003818989E1,6.924230456E-1
6.936328964E0,-2.329711914E0,-9.719944954E0,4.722833633E-1
6.946041881E0,-2.483151674E0,-9.559326172E0,7.716853023E-1
6.955755683E0,-2.507079840E0,-9.394221306E0,1.006181955E0
6.965470162E0,-2.346461773E0,-9.257830620E0,7.450651526E-1
6.975183912E0,-2.305783749E0,-9.107083321E0,4.842474759E-1
6.984896777E0,-2.367997169E0,-8.991928101E0,2.330010980E-1
6.994610579E0,-2.351247311E0,-9.140582085E0,1.016949583E-2
7.004325058E0,-2.490330219E0,-9.121439934E0,6.999006122E-2
7.014038808E0,-2.365604401E0,-9.332008362E0,-1.381855011E-1
7.023751673E0,-2.365604401E0,-9.573683739E0,-4.974080026E-1
7.033465423E0,-2.442473650E0,-9.741479874E0,-6.002993584E-1
7.043179954E0,-2.456830740E0,-9.782157898E0,-5.811567903E-1
7.052893600E0,-2.473580360E0,-9.674481392E0,-4.734797776E-1
7.062606568E0,-2.540579557E0,-9.391828537E0,-9.834501147E-1
7.072320318E0,-2.765504837E0,-9.188439369E0,-1.749452472E0
7.082034850E0,-2.882753134E0,-8.841180801E0,-2.383849621E0
7.091748495E0,-2.676970243E0,-8.580363274E0,-2.628216505E0
7.101461412E0,-2.202892303E0,-8.510971069E0,-2.752643347E0
7.111175214E0,-1.637887120E0,-8.589934349E0,-2.640180588E0
7.120889745E0,-1.036989570E0,-9.095118523E0,-2.170888424E0
7.130603391E0,-1.087238789E0,-9.535398483E0,-1.378265858E0
7.140316308E0,-1.448854089E0,-9.518648148E0,-6.553342938E-1
7.150030110E0,-1.743171334E0,-9.336793900E0,-6.002993584E-1
7.159744589E0,-2.777468920E0,-8.484351158E0,-9.065806866E-1
7.169458339E0,-4.422235489E0,-6.976274490E0,-1.399801254E0
7.179171204E0,-5.418247700E0,-6.001797199E0,-1.794916034E0
7.188884954E0,-5.839683533E0,-5.367400169E0,-1.091127157E0
7.198599485E0,-5.561817169E0,-5.147260666E0,3.263211846E-1
7.208313131E0,-4.084847450E0,-5.707480431E0,7.235297561E-1
7.218026100E0,-1.767099500E0,-6.499803543E0,-7.597211748E-2
7.227739850E0,-2.303091735E-1,-7.419245720E0,-2.436491728E0
7.237454381E0,-2.829512656E-1,-7.510172844E0,-3.501895905E0
7.247168027E0,-7.091727853E-1,-7.172485828E0,-2.050948143E0
7.256880943E0,-6.634100676E-1,-7.675277710E0,-1.632204175E0
7.266594745E0,-1.226022482E0,-8.161319733E0,-3.044567823E0
7.276309225E0,-2.033001900E0,-8.249854088E0,-4.569693089E0
7.286022975E0,-2.444866419E0,-8.537292480E0,-4.852046013E0
7.295735839E0,-2.432902336E0,-9.226723671E0,-4.773082733E0
7.305449589E0,-2.145464659E0,-9.676874161E0,-4.196113586E0
7.315164120E0,-1.745564103E0,-9.629017830E0,-4.646263599E0
7.324877766E0,-1.302891970E0,-9.257830620E0,-5.419444084E0
7.334590735E0,-1.992024779E-1,-9.389435768E0,-4.418945312E0
7.344304485E0,8.877372146E-1,-9.717552185E0,-4.069293976E0
7.354019016E0,1.220638633E0,-9.640981674E0,-3.987937927E0
7.363732662E0,9.475577474E-1,-9.231510162E0,-4.186542511E0
7.373445579E0,1.480558962E-1,-8.781359673E0,-5.704489231E0
7.383159381E0,-2.183450609E-1,-8.472386360E0,-6.262315750E0
7.392873860E0,-4.073780477E-1,-8.333602905E0,-6.044569016E0
7.402587610E0,-3.595215976E-1,-8.022536278E0,-6.750751019E0
7.412300475E0,-2.111666054E-1,-7.591528893E0,-6.374778748E0
7.422014225E0,-3.260220885E-1,-7.129415035E0,-6.013462543E0
7.431728756E0,-7.713862062E-1,-6.356234074E0,-6.255137444E0
7.441442402E0,-1.295713425E0,-5.625824928E0,-5.927021503E0
7.451155370E0,-1.877468467E0,-5.384150028E0,-6.659823418E0
7.460869120E0,-2.040180445E0,-5.039284706E0,-7.636394501E0
7.470583652E0,-2.320140600E0,-5.137689114E0,-8.065009117E0
7.480297298E0,-2.360818624E0,-5.336293697E0,-7.614859104E0
7.490010214E0,-2.109572172E0,-5.365007401E0,-6.822535515E0
7.499724016E0,-1.594816327E0,-5.518147945E0,-7.734799385E0
7.509438495E0,-1.432104349E0,-4.888536453E0,-9.049057007E0
7.519152245E0,-1.298106313E0,-4.038785458E0,-9.451350212E0
7.528865110E0,-1.695314884E0,-3.859024763E0,-8.165507317E0
7.538578860E0,-2.226820469E0,-3.969094515E0,-7.773084164E0
7.548293391E0,-2.293819666E0,-4.325924397E0,-8.175078392E0
7.558007037E0,-1.685743570E0,-5.219045162E0,-8.577371597E0
7.567719954E0,-8.096713424E-1,-6.272485256E0,-8.462516785E0
7.577433756E0,4.208376706E-1,-6.995417118E0,-8.285447121E0
7.587148235E0,1.380957723E0,-6.573981285E0,-9.151947975E0
7.596861985E0,5.599204898E-1,-5.585147381E0,-9.628418922E0
7.606574850E0,-9.197412133E-1,-4.392923355E0,-9.822237968E0
7.616288600E0,-1.805384636E0,-3.186342478E0,-1.006660461E1
7.626003131E0,-3.189333439E0,-1.654038668E0,-9.307481766E0
7.635716777E0,-4.019941807E0,3.281157911E-1,-9.072985649E0
7.645429693E0,-3.411865950E0,1.496411443E0,-9.422636032E0
7.655143495E0,-2.973979473E0,1.645065546E0,-1.016471100E1
7.664857975E0,-2.475973129E0,6.394818425E-1,-1.043270683E1
7.674571725E0,-2.083251238E0,-1.189531922E0,-1.096421242E1
7.684284589E0,-1.489532113E0,-2.755335331E0,-1.109611702E1
7.693998391E0,-1.511067510E0,-3.964308977E0,-1.091635609E1
7.703712870E0,-1.637887120E0,-4.196712017E0,-1.084935665E1
7.713426516E0,-1.946860313E0,-4.022035599E0,-9.987641335E0
7.723139485E0,-1.671386600E0,-3.277269602E0,-1.103599739E1
7.732853235E0,-1.139880896E0,-2.796013355E0,-1.117747307E1
7.742567766E0,-1.044167995E0,-2.348555326E0,-1.061486053E1
7.752281412E0,-1.187737346E0,-2.008475542E0,-1.100489044E1
7.761994329E0,-2.195713997E0,-1.615753531E0,-1.101206875E1
7.771708131E0,-2.688934565E0,-1.520040631E0,-1.136411285E1
7.781422610E0,-3.165405273E0,-9.215358496E-1,-1.176401329E1
7.791136256E0,-2.648256540E0,-1.029212832E0,-1.162283707E1
7.800849225E0,-2.030609131E0,-1.230509043E0,-1.148375416E1
7.810562975E0,-1.683350682E0,-1.644467354E0,-1.182144070E1
7.820277506E0,-1.578066587E0,-1.776371717E0,-1.153400326E1
7.829991152E0,-1.453639746E0,-2.003689766E0,-1.154118156E1
7.839704068E0,-1.534995675E0,-2.003689766E0,-1.172572803E1
7.849417870E0,-1.688136339E0,-1.929512382E0,-1.096660519E1
7.859132350E0,-2.504687071E0,-1.328614831E0,-1.142154026E1
7.868846100E0,-2.791825771E0,-5.838487148E-1,-1.172094250E1
7.878558964E0,-2.526222467E0,-1.339980662E-1,-1.163480091E1
7.888272714E0,-2.464009047E0,-1.148554832E-1,-1.160130119E1
7.897987245E0,-2.641077995E0,-2.895315289E-1,-1.131386375E1
7.907700891E0,-2.789433002E0,-5.455635786E-1,-1.196022511E1
7.917413808E0,-2.540579557E0,-1.187139153E0,-1.154596710E1
7.927127610E0,-2.167000055E0,-1.424327731E0,-1.124447155E1
7.936842089E0,-1.771885157E0,-1.558325768E0,-1.120618629E1
7.946555839E0,-1.647458434E0,-1.613360643E0,-1.117508030E1
7.956268704E0,-1.568495274E0,-1.541576028E0,-1.117986584E1
7.965982454E0,-1.570888042E0,-1.364507079E0,-1.108415222E1
7.975696985E0,-1.592423439E0,-1.350150228E0,-1.030349445E1
7.985410631E0,-1.882254124E0,-1.151246786E0,-1.107936668E1
7.995123548E0,-2.416152716E0,-1.323829174E0,-1.101206875E1
8.004837350E0,-2.490330219E0,-1.618146300E0,-1.153400326E1
8.014551829E0,-2.214856386E0,-2.022832394E0,-1.105065346E1
8.024265579E0,-1.910967946E0,-2.389233351E0,-1.014317513E1
8.033978443E0,-1.628315806E0,-2.278864384E0,-1.057657528E1
8.043692193E0,-1.578066587E0,-2.044367790E0,-1.011685371E1
8.053406725E0,-1.863111496E0,-1.670788407E0,-1.071775150E1
8.063120370E0,-2.016252279E0,-1.692323804E0,-1.046859932E1
8.072833287E0,-1.896611094E0,-2.003689766E0,-9.939785004E0
8.082547089E0,-1.580459356E0,-2.187937260E0,-1.024845982E1
8.092261568E0,-1.410568953E0,-2.417947292E0,-1.001635551E1
8.101975318E0,-1.530210137E0,-2.276471615E0,-1.052154064E1
8.111688183E0,-1.839183331E0,-2.290828466E0,-1.034656525E1
8.121401933E0,-2.708076954E0,-2.089831591E0,-1.032024384E1
8.131116464E0,-3.675375462E0,-2.233400822E0,-1.023170948E1
8.140830110E0,-3.883551121E0,-2.530410051E0,-1.026999474E1
8.150543027E0,-3.632304668E0,-2.654836655E0,-1.011685371E1
8.160256829E0,-3.582055569E0,-2.602194548E0,-9.331410408E0
8.169971308E0,-2.933301449E0,-2.954238653E0,-7.253542900E0
8.179684954E0,-2.552543640E0,-3.243770123E0,-7.411468983E0
8.189397923E0,-2.782254457E0,-3.277269602E0,-1.019342422E1
8.199111673E0,-3.718446493E0,-3.325126171E0,-1.061964607E1
8.208826204E0,-4.558626175E0,-3.868596077E0,-8.546265602E0
8.218539850E0,-5.035097122E0,-4.498207569E0,-7.255935669E0
8.228252766E0,-4.922634602E0,-4.893322468E0,-7.871190071E0
8.237966516E0,-4.350450516E0,-5.410470963E0,-8.486444473E0
8.247681048E0,-3.550948858E0,-5.664110184E0,-8.474480629E0
8.257394693E0,-2.875574589E0,-5.901299000E0,-8.338089943E0
8.267107662E0,-2.052144527E0,-6.313163280E0,-7.926225185E0
8.276821412E0,-1.613958836E0,-6.392126560E0,-7.856832981E0
8.286535891E0,-1.491924882E0,-6.875775814E0,-7.686942577E0
8.296249641E0,-1.391426325E0,-7.474280834E0,-7.133901596E0
8.305962506E0,-1.381855130E0,-7.687242031E0,-6.743572235E0
8.315676256E0,-1.230808139E0,-7.799704552E0,-6.456134796E0
8.325390787E0,-1.056132078E0,-7.792526245E0,-6.257530212E0
8.335104433E0,-8.790631890E-1,-7.651349545E0,-6.147460461E0
8.344817350E0,-1.170987606E0,-7.782954693E0,-5.589633465E0
8.354531152E0,-1.274178028E0,-7.878667831E0,-5.338088036E0
8.364245631E0,-1.750349760E0,-7.869096279E0,-5.263910770E0
8.373959277E0,-1.942074656E0,-8.010572433E0,-5.326124191E0
8.383672245E0,-1.604387641E0,-7.680063248E0,-5.108377457E0
8.393385995E0,-9.987043738E-1,-7.366304398E0,-4.876273632E0
8.403100527E0,-3.643072546E-1,-6.854240417E0,-5.094020367E0
8.412814173E0,1.648056656E-1,-6.075974941E0,-5.022235394E0
8.422527089E0,3.825525343E-1,-5.949155331E0,-3.999902248E0
8.432240839E0,-1.079761237E-1,-6.368198395E0,-3.164208889E0
8.441955370E0,-4.145565331E-1,-6.755835533E0,-3.023032188E0
8.451669016E0,-3.643072546E-1,-7.591528893E0,-3.384647608E0
8.461381933E0,-2.350948304E-1,-7.912167072E0,-4.064508438E0
8.471095735E0,1.360917836E-1,-7.763812065E0,-4.047758579E0
8.480810214E0,-1.055833027E-1,-7.591528893E0,-3.006282568E0
8.490523964E0,-6.681957245E-1,-7.380960464E0,-2.156531334E0
8.500236829E0,-1.585245013E0,-6.995417118E0,-1.967199326E0
8.509950579E0,-1.887039781E0,-6.686443806E0,-2.264208317E0
8.519665110E0,-1.781456470E0,-6.605087757E0,-2.690429926E0
8.529378756E0,-1.566102386E0,-6.748657227E0,-3.365504980E0
8.539091673E0,-1.245165110E0,-6.655336857E0,-4.246362686E0
8.548805423E0,-1.511067510E0,-6.454339981E0,-4.181756496E0
8.558519954E0,-2.413759947E0,-6.368198395E0,-3.858725548E0
8.568233600E0,-3.531806231E0,-6.578766823E0,-3.839582920E0
8.577946516E0,-4.561018944E0,-7.033702374E0,-3.803690672E0
8.587660318E0,-4.996811867E0,-7.323233604E0,-3.039782047E0
8.597374798E0,-4.740779877E0,-7.869096279E0,-2.180459738E0
8.607088548E0,-4.149453640E0,-8.075178146E0,-1.708774447E0
8.616801412E0,-3.768695593E0,-8.067999840E0,-1.380658627E0
8.626515162E0,-3.536591768E0,-8.063214302E0,-9.667003751E-1
8.636229693E0,-3.622733593E0,-7.672884941E0,-8.898309469E-1
8.645943339E0,-3.594019651E0,-7.785347462E0,-1.045663476E0
8.655656256E0,-3.368795156E0,-8.264211655E0,-6.098706722E-1
8.665370006E0,-3.136691332E0,-9.046963692E0,6.999006122E-2
8.675084537E0,-3.017050266E0,-9.784550667E0,2.641077936E-1
8.684798183E0,-2.777468920E0,-1.042134094E1,-1.716850251E-1
8.694511100E0,-2.473580360E0,-1.080209827E1,-3.050848842E-2
8.704224902E0,-2.035394669E0,-1.152263737E1,-4.758726060E-1
8.713939381E0,-1.544566989E0,-1.182652569E1,9.391828626E-2
8.723653027E0,-1.123131156E0,-1.209482098E1,5.919244885E-1
8.733365995E0,-1.161416292E0,-1.202064323E1,9.535398483E-1
8.743079745E0,-1.728814363E0,-1.152981567E1,9.631111026E-1
8.752794225E0,-2.473580360E0,-1.080209827E1,7.378866673E-1
8.762507975E0,-2.997907639E0,-9.997511864E0,5.919244885E-1
8.772220839E0,-3.442972660E0,-9.358329773E0,3.023929596E-1
8.781934589E0,-3.457329512E0,-9.171689034E0,1.585244983E-1
8.791649120E0,-3.639483213E0,-9.023035049E0,4.962115884E-1
8.801362766E0,-3.766302824E0,-9.205188751E0,8.003991842E-1
8.811075683E0,-3.931407690E0,-9.181260109E0,8.913264275E-1
8.820789433E0,-3.799802303E0,-9.303294182E0,8.530412912E-1
8.830503964E0,-3.344866991E0,-9.413364410E0,8.937192559E-1
8.840217610E0,-2.789433002E0,-9.434899330E0,9.870393276E-1
8.849930527E0,-2.243570328E0,-9.636196136E0,1.116251707E0
8.859644329E0,-1.506281853E0,-9.772586823E0,1.465902925E0
8.869358808E0,-1.020239711E0,-9.971191406E0,1.714756489E0
8.879072558E0,-8.096713424E-1,-1.019162941E1,1.983051777E0
8.888785423E0,-6.876373887E-1,-1.024905777E1,2.014158487E0
8.898499173E0,-6.610172391E-1,-1.027059269E1,1.662114382E0
8.908213652E0,-8.335995674E-1,-1.029691410E1,1.173679471E0
8.917927402E0,-1.163809061E0,-1.025384331E1,1.037288666E0
8.927640266E0,-1.556531072E0,-1.010279655E1,9.487541914E-1
8.937354016E0,-1.949253201E0,-9.825228691E0,6.637091637E-1
8.947068548E0,-2.233999014E0,-9.544969559E0,3.287140131E-1
8.956782193E0,-2.516651154E0,-9.320044518E0,9.631111473E-2
8.966495110E0,-2.578864574E0,-8.903393745E0,2.665006220E-1
8.976208860E0,-2.820539713E0,-9.044570923E0,4.842474759E-1
8.985923391E0,-2.894717216E0,-9.298508644E0,7.956135273E-1
8.995637037E0,-2.938086987E0,-9.427721024E0,1.700399637E0
9.005349954E0,-2.940479994E0,-9.580862045E0,2.332403898E0
9.015063756E0,-2.765504837E0,-9.810872078E0,2.258226395E0
9.024778235E0,-2.490330219E0,-9.959226608E0,1.750648856E0
9.034491881E0,-2.233999014E0,-9.964012146E0,1.006181955E0
9.044204850E0,-2.171785593E0,-9.913763046E0,5.775675774E-1
9.053918600E0,-2.257927179E0,-9.856335640E0,2.928216755E-1
9.063633079E0,-2.401795626E0,-9.861121178E0,-2.093719877E-2
9.073346829E0,-2.387438774E0,-1.002144051E1,-2.219343036E-1
9.083059693E0,-2.214856386E0,-1.010279655E1,-1.668993831E-1
9.092773443E0,-2.102393866E0,-1.028255749E1,-7.725825906E-1
9.102487923E0,-2.042573214E0,-9.834799767E0,-1.656132340E0
9.112201673E0,-1.927717686E0,-9.446864128E0,-2.029412746E0
9.121914537E0,-1.733600020E0,-9.379864693E0,-1.646561027E0
9.131628287E0,-1.666600943E0,-9.358329773E0,-1.074377418E0
9.141342818E0,-1.721635938E0,-9.245866776E0,-5.285146832E-1
9.151056464E0,-1.961217284E0,-8.843573570E0,-2.333002165E-2
9.160769381E0,-2.250748873E0,-8.101499557E0,3.649054468E-2
9.170483131E0,-2.885145903E0,-7.816454411E0,-4.423730969E-1
9.180197662E0,-3.261118174E0,-7.332805157E0,-7.510471940E-1
9.189911308E0,-3.483650684E0,-7.062416077E0,-1.045663476E0
9.199624225E0,-3.833301783E0,-7.086344242E0,-1.507777333E0
9.209338027E0,-3.536591768E0,-7.727920055E0,-1.332802176E0
9.219052506E0,-2.171785593E0,-8.441280365E0,-1.117448211E0
9.228766152E0,-1.374676585E0,-8.340781212E0,-1.507777333E0
9.238479068E0,-1.405783296E0,-8.151748657E0,-2.101496458E0
9.248192870E0,-2.126322031E0,-7.811668396E0,-2.508276224E0
9.257907350E0,-3.134298563E0,-7.256234646E0,-3.221935749E0
9.267620995E0,-4.010370731E0,-6.880561352E0,-3.830011845E0
9.277333964E0,-4.443770885E0,-6.636194706E0,-3.408575773E0
9.287047714E0,-4.386343002E0,-6.602694988E0,-2.615953445E0
9.296762193E0,-3.826123476E0,-6.770192623E0,-2.304886341E0
9.306475943E0,-2.727219582E0,-7.103094101E0,-2.752643347E0
9.316188808E0,-1.752742529E0,-7.426424026E0,-2.659323215E0
9.325902558E0,-9.867402315E-1,-7.842775345E0,-1.763809443E0
9.335617037E0,-6.035895348E-1,-8.173283577E0,-2.302493572E0
9.345330787E0,-5.605186820E-1,-8.134998322E0,-3.887439489E0
9.355043652E0,-9.987043738E-1,-7.996214867E0,-4.552943230E0
9.364757402E0,-1.925324917E0,-8.072785378E0,-4.890630245E0
9.374471881E0,-2.870789051E0,-8.015357971E0,-4.986343384E0
9.384185631E0,-3.546163082E0,-8.125427246E0,-4.069293976E0
9.393898495E0,-3.933800459E0,-8.187641144E0,-2.273779631E0
9.403612245E0,-4.187738895E0,-7.926524162E0,-1.344766378E0
9.413326777E0,-3.783052683E0,-7.385746002E0,-1.979163408E0
9.423040423E0,-2.708076954E0,-6.703193665E0,-3.849154234E0
9.432753339E0,-1.511067510E0,-6.377769470E0,-6.384349823E0
9.442467089E0,-8.001000881E-1,-6.219544411E0,-7.612466335E0
9.452181620E0,-8.455637097E-1,-6.435197353E0,-7.904689789E0
9.461895266E0,-4.959124923E-1,-6.952346325E0,-7.837690353E0
9.471608183E0,4.737788737E-1,-7.799704552E0,-6.856035233E0
9.481321933E0,1.457528114E0,-9.013463974E0,-5.105984211E0
9.491036464E0,2.788834810E0,-1.046201897E1,-3.253042459E0
9.500750110E0,3.835096598E0,-1.109880829E1,-4.466801643E0
9.510463027E0,3.294019461E0,-1.050748253E1,-6.923034191E0
9.520176829E0,1.404886007E0,-9.092725754E0,-6.386742592E0
9.529891308E0,-3.332005441E-1,-8.084749222E0,-5.369194984E0
9.539604954E0,-1.630708575E0,-7.167700291E0,-6.542276382E0
9.549317870E0,-2.588435888E0,-5.953940868E0,-8.821739197E0
9.559031673E0,-2.815753937E0,-5.848656654E0,-8.424231529E0
9.568746152E0,-2.889931440E0,-5.637789249E0,-7.358827114E0
9.578459798E0,-3.026621580E0,-5.290830135E0,-7.571788311E0
9.588172714E0,-2.284248352E0,-4.991427898E0,-8.848059654E0
9.597886516E0,-1.604387641E0,-5.231009483E0,-9.163912773E0
9.607600995E0,-9.628120065E-1,-5.896512985E0,-8.390731812E0
9.617314641E0,1.405783277E-2,-6.272485256E0,-8.627620697E0
9.627027610E0,7.585247755E-1,-6.138188362E0,-9.099306107E0
9.636741360E0,1.170389414E0,-6.145366669E0,-9.345767021E0
9.646455839E0,1.182353497E0,-6.138188362E0,-9.252447128E0
9.656169589E0,9.044869542E-1,-6.090332031E0,-8.953344345E0
9.665882454E0,1.504487246E-1,-5.788836002E0,-9.271589279E0
9.675596204E0,-9.317052960E-1,-5.355436325E0,-8.694620132E0
9.685310683E0,-1.314856052E0,-4.673182487E0,-8.086544037E0
9.695024329E0,-1.570888042E0,-4.833501816E0,-8.031509399E0
9.704737298E0,-1.132702470E0,-4.718646049E0,-8.740083694E0
9.714451048E0,-7.187440991E-1,-4.469493389E0,-1.030827999E1
9.724165527E0,-4.360919297E-1,-4.299602985E0,-1.081107140E1
9.733879277E0,-1.298106313E-1,-3.468994617E0,-9.492028236E0
9.743592141E0,9.302098304E-2,-2.465803623E0,-9.326624870E0
9.753305891E0,4.498506486E-1,-1.505683661E0,-9.135198593E0
9.763020370E0,1.096211910E0,-1.213759303E0,-8.836095810E0
9.772734120E0,1.457528114E0,-1.551147223E0,-9.434600830E0
9.782446985E0,1.316351533E0,-2.008475542E0,-1.029631615E1
9.792160735E0,4.689932466E-1,-3.181556702E0,-1.038724327E1
9.801875214E0,-1.103988528E0,-3.909274101E0,-1.003789139E1
9.811588964E0,-2.049751759E0,-4.117748737E0,-1.006181908E1
9.821301829E0,-2.564507723E0,-4.543671131E0,-1.029631615E1
9.831015579E0,-2.054537296E0,-3.942773581E0,-1.037288570E1
9.840730058E0,-1.484746456E0,-3.066701412E0,-1.048325539E1
9.850443808E0,-1.139880896E0,-2.144866467E0,-1.036092186E1
9.860156673E0,-1.130309582E0,-1.723430514E0,-1.120857906E1
9.869870423E0,-1.369890928E0,-2.137687922E0,-1.077278709E1
9.879584902E0,-1.908575177E0,-2.030010939E0,-1.068903828E1
9.889298652E0,-1.786242127E0,-2.429911375E0,-1.114636612E1
9.899011516E0,-1.314856052E0,-2.578266382E0,-1.079192924E1
9.908725266E0,-5.581258535E-1,-2.343769789E0,-1.166830063E1
9.918439798E0,-3.499503136E-1,-1.599003673E0,-1.097139072E1
9.928153443E0,1.767697781E-1,-1.680359721E0,-1.125882912E1
9.937866360E0,3.945166469E-1,-1.917548299E0,-1.160130119E1
9.947580110E0,2.150549293E-1,-2.295614243E0,-1.137846947E1
9.957294641E0,-7.447660714E-2,-2.516052961E0,-1.135454178E1
9.967008287E0,-8.404789865E-2,-2.367697954E0,-1.191476154E1
9.976721204E0,-5.054837838E-2,-2.108973980E0,-1.150289631E1
9.986434954E0,-2.542374134E-1,-1.658824325E0,-1.223569870E1
9.996149485E0,-1.848455518E-1,-1.551147223E0,-1.168026447E1
1.000586313E1,-5.533402413E-2,-1.591825247E0,-1.140718365E1
1.001557605E1,-7.477570791E-3,-1.805085540E0,-1.168265724E1
1.002528980E1,-1.513460279E-1,-2.264507532E0,-1.136172009E1
1.003500433E1,-3.786641955E-1,-2.437089920E0,-1.193868923E1
1.004471798E1,-2.662015259E-1,-2.276471615E0,-1.105065346E1
1.005443089E1,-9.840483218E-2,-1.881655931E0,-1.133061314E1
1.006414464E1,-7.686942816E-2,-1.570289850E0,-1.087807083E1
1.007385917E1,-5.341976285E-1,-1.479362607E0,-1.089721298E1
1.008357282E1,-1.120738268E0,-1.670788407E0,-1.080150032E1
1.009328574E1,-1.599601984E0,-1.756929994E0,-1.084457111E1
1.010299948E1,-1.764706731E0,-2.070688963E0,-1.115593719E1
1.011271402E1,-1.613958836E0,-2.370090723E0,-1.110568810E1
1.012242766E1,-1.429711580E0,-2.628515720E0,-1.054307556E1
1.013214058E1,-1.209272742E0,-2.800798893E0,-1.095224857E1
1.014185433E1,-9.317052960E-1,-2.755335331E0,-1.039442158E1
1.015156886E1,-8.958129883E-1,-2.630908489E0,-1.009771156E1
1.016128251E1,-1.250249863E0,-2.499303341E0,-1.083500004E1
1.017099542E1,-1.702493310E0,-2.281257391E0,-1.054546833E1
1.018070917E1,-2.229213476E0,-2.348555326E0,-1.007617569E1
1.019042370E1,-2.526222467E0,-2.461018085E0,-9.915857315E0
1.020013735E1,-2.315355062E0,-2.633301258E0,-9.783952713E0
1.020985027E1,-1.927717686E0,-2.994916677E0,-1.019342422E1
1.021956402E1,-1.170987606E0,-3.703491211E0,-1.004267693E1
1.022927855E1,-6.705885530E-1,-4.004986763E0,-9.635597229E0
1.023899219E1,-4.336991012E-1,-3.954737663E0,-9.285946846E0
1.024870511E1,-3.092723191E-1,-4.117748737E0,-9.262018204E0
1.025841891E1,-6.155536175E-1,-4.112963200E0,-9.496813774E0
1.026813339E1,-8.240283132E-1,-4.502993107E0,-9.664311409E0
1.027784704E1,-9.101698995E-1,-5.024927616E0,-9.027522087E0
1.028755995E1,-1.005882859E0,-5.288437366E0,-8.962915421E0
1.029727376E1,-8.958129883E-1,-5.597111225E0,-8.984451294E0
1.030698824E1,-1.005882859E0,-6.028118610E0,-8.551051140E0
1.031670188E1,-1.221236825E0,-5.750551224E0,-8.256733894E0
1.032641480E1,-1.010668516E0,-6.308377743E0,-8.395517349E0
1.033612860E1,-1.216451168E0,-6.313163280E0,-8.503194809E0
1.034584308E1,-1.274178028E0,-6.325127602E0,-8.417053223E0
1.035555673E1,-1.276570916E0,-6.349055767E0,-7.253542900E0
1.036526964E1,-1.147059321E0,-6.461518288E0,-6.753143787E0
1.037498344E1,-1.008275628E0,-6.241079807E0,-7.950153351E0
1.038469792E1,-1.149452209E0,-5.822335720E0,-7.856832981E0
1.039441157E1,-1.204487085E0,-6.099903107E0,-6.858428001E0
1.040412454E1,-1.307677627E0,-6.308377743E0,-6.173781395E0
1.041383829E1,-1.877468467E0,-7.028916359E0,-5.974878311E0
1.042355277E1,-1.951645970E0,-7.873881817E0,-5.809773445E0
1.043326641E1,-2.169392824E0,-7.804490089E0,-5.663811207E0
1.044297938E1,-1.446461320E0,-8.312067986E0,-6.221638203E0
1.045269313E1,-5.844469070E-1,-8.257032394E0,-6.410670757E0
1.046240761E1,4.666004181E-1,-7.651349545E0,-5.989534378E0
1.047212136E1,1.316351533E0,-6.930810928E0,-4.998307228E0
1.048183422E1,1.565504193E0,-6.897311211E0,-4.605585575E0
1.049154798E1,7.609176040E-1,-7.026523590E0,-4.399802685E0
1.050126245E1,-7.307082415E-1,-7.052844524E0,-4.471587181E0
1.051097620E1,-1.745564103E0,-7.203592777E0,-4.368695736E0
1.052068907E1,-2.040180445E0,-7.308876991E0,-4.176970959E0
1.053040282E1,-1.508674622E0,-7.320840836E0,-4.395017147E0
1.054011730E1,-7.785646915E-1,-7.122236729E0,-4.907380104E0
1.054983105E1,-5.485545993E-1,-6.911668301E0,-4.430909157E0
1.055954391E1,-3.619144261E-1,-6.916453838E0,-3.506681681E0
1.056925766E1,-2.662015259E-1,-7.558029652E0,-2.652144909E0
1.057897214E1,-3.858426511E-1,-8.283353806E0,-2.424527645E0
1.058868589E1,-6.876373887E-1,-8.597112656E0,-2.723929405E0
1.059839876E1,-9.149555564E-1,-8.668897629E0,-2.709572554E0
1.060811251E1,-1.310070395E0,-8.585148811E0,-2.625823736E0
1.061782698E1,-2.310569286E0,-8.087141991E0,-3.353540897E0
1.062754074E1,-3.663411379E0,-7.174878597E0,-4.169792652E0
1.063725360E1,-4.424628258E0,-6.396912098E0,-4.279862404E0
1.064696735E1,-3.744767427E0,-6.684051037E0,-3.494717360E0
1.065668188E1,-2.336890459E0,-8.020143509E0,-2.446063042E0
1.066639553E1,-1.355534077E0,-9.291330338E0,-1.665703654E0
1.067610844E1,-1.252642632E0,-9.779765129E0,-1.732702732E0
1.068582219E1,-1.817647934E0,-9.681659698E0,-2.065604210E0
1.069553672E1,-2.174178362E0,-9.477970123E0,-2.285743713E0
1.070525037E1,-2.442473650E0,-9.068798065E0,-2.307279348E0
1.071496329E1,-2.712862730E0,-8.508578300E0,-2.063211441E0
1.072467704E1,-3.103191853E0,-7.934001446E0,-1.632204175E0
1.073439157E1,-3.562912941E0,-7.562815189E0,-9.185447693E-1
1.074410521E1,-3.546163082E0,-7.380960464E0,-4.136592150E-1
1.075381813E1,-3.739981890E0,-7.696813107E0,-7.701897621E-1
1.076353188E1,-3.608376503E0,-8.120641708E0,-1.337587833E0
1.077324641E1,-3.129513025E0,-8.340781212E0,-1.282552958E0
1.078296006E1,-2.799004316E0,-8.556434631E0,-7.319046259E-1
1.079267298E1,-2.837289333E0,-8.338388443E0,-4.256233275E-1
1.080238678E1,-3.021835804E0,-8.199604988E0,-5.476573110E-1
1.081210126E1,-2.995514870E0,-8.130212784E0,-4.423730969E-1
1.082181490E1,-2.564507723E0,-8.431708336E0,-2.195414752E-1
1.083152782E1,-2.064108610E0,-8.836395264E0,1.752742529E-1
1.084124162E1,-1.508674622E0,-9.303294182E0,-2.123630047E-1
1.085095610E1,-1.039382339E0,-9.942477226E0,5.084748194E-2
1.086066975E1,-8.168498278E-1,-1.028734303E1,9.439685345E-1
1.087038266E1,-1.075274706E0,-1.078295612E1,1.520937920E0
1.088009646E1,-1.264606714E0,-1.088824081E1,1.633400559E0
1.088981094E1,-1.676172256E0,-1.106530952E1,1.123430252E0
1.089952459E1,-2.308176517E0,-1.118255711E1,8.099704385E-1
1.090923751E1,-2.499901533E0,-1.136949635E1,8.362914920E-1
1.091895131E1,-2.382653236E0,-1.151067352E1,1.087537885E0
1.092866579E1,-2.385046005E0,-1.131924725E1,9.320043921E-1
1.093837943E1,-2.511865616E0,-1.083559799E1,2.258226424E-1
1.094809235E1,-2.598007202E0,-1.031127071E1,-5.644070506E-1
1.095780615E1,-2.715255499E0,-9.703194618E0,-8.252246976E-1
1.096752063E1,-2.605185747E0,-9.300901413E0,-6.936194897E-1
1.097723428E1,-2.507079840E0,-9.054141998E0,-2.386840582E-1
1.098694725E1,-2.650649309E0,-8.869894028E0,4.411766827E-1
1.099666100E1,-2.918645382E0,-8.790931702E0,1.042074203E0
1.100637548E1,-2.990729094E0,-8.793324471E0,1.226321578E0
1.101608912E1,-2.686541557E0,-8.893822670E0,1.200000525E0
1.102580209E1,-2.322533369E0,-9.054141998E0,1.051645517E0
1.103551584E1,-2.147857428E0,-9.229117393E0,9.272187948E-1
1.104523032E1,-2.111965179E0,-9.353543282E0,6.804589629E-1
1.105494407E1,-2.066501379E0,-9.506684303E0,3.741776347E-1
1.106465693E1,-2.126322031E0,-9.660123825E0,2.880360186E-1
1.107437068E1,-2.135893345E0,-9.698409081E0,5.656034350E-1
1.108408516E1,-2.193320990E0,-9.643374443E0,7.450651526E-1
1.109379891E1,-2.336890459E0,-9.552147865E0,7.884350419E-1
1.110351178E1,-2.480758905E0,-9.463613510E0,7.740781307E-1
1.111322553E1,-2.538186550E0,-9.341579437E0,9.224331379E-1
1.112294001E1,-2.523829699E0,-9.415757179E0,1.070788145E0
1.113265376E1,-2.329711914E0,-9.660123825E0,1.331904888E0
1.114236662E1,-1.903789520E0,-9.899406433E0,1.264606714E0
1.115208037E1,-1.690529227E0,-9.844371796E0,9.583254457E-1
1.116179490E1,-1.700100541E0,-9.885049820E0,4.555336237E-1
1.117150855E1,-1.642672777E0,-9.703194618E0,6.281159073E-2
1.118122146E1,-1.544566989E0,-9.473184586E0,-1.645065546E-1
1.119093521E1,-1.657029629E0,-9.540184021E0,-4.016951025E-1
1.120064975E1,-1.759921074E0,-9.674481392E0,-2.865405083E-1
1.121036339E1,-1.798206210E0,-9.719944954E0,9.870393574E-2
1.122007631E1,-1.815255046E0,-1.000469017E1,5.105685592E-1
1.122979006E1,-2.126322031E0,-1.041176987E1,2.353939265E-1
1.123950459E1,-2.329711914E0,-1.034477043E1,3.526422381E-1
1.124921824E1,-2.293819666E0,-9.477970123E0,1.013360381E0
1.125893115E1,-2.588435888E0,-9.497113228E0,8.506484628E-1
1.126864490E1,-2.722434044E0,-9.504291534E0,2.688934505E-1
1.127835943E1,-2.662613392E0,-9.482755661E0,-4.208376706E-1
1.128807308E1,-2.624328136E0,-9.523433685E0,-1.158126116E0
1.129778600E1,-2.373081923E0,-9.633803368E0,-1.591526151E0
1.130749975E1,-1.975574136E0,-9.765408516E0,-1.644168258E0
1.131721428E1,-1.453639746E0,-9.820443153E0,-1.718345761E0
1.132692792E1,-1.094417214E0,-9.573683739E0,-2.168495417E0
1.133664084E1,-1.199701428E0,-8.795717239E0,-2.905783892E0
1.134635464E1,-1.872682810E0,-7.759026527E0,-3.159423113E0
1.135606912E1,-3.155833960E0,-6.902096748E0,-2.426920414E0
1.136578277E1,-4.877170563E0,-6.255735874E0,-1.127019525E0
1.137549568E1,-6.323332787E0,-5.750551224E0,-6.984050870E-1
1.138520948E1,-6.967301369E0,-5.460720539E0,-7.582256794E-1
1.139492396E1,-6.579364777E0,-5.298008442E0,-1.692024708E0
1.140463761E1,-4.958526611E0,-5.649753571E0,-2.472383976E0
1.141435053E1,-3.069692373E0,-6.492625237E0,-2.271386862E0
1.142406433E1,-1.391426325E0,-7.579565048E0,-1.526919961E0
1.143377881E1,-3.212364316E-1,-8.235497475E0,-1.531705618E0
1.144349245E1,-3.930211067E-1,-8.450851440E0,-2.324028969E0
1.145320537E1,-1.458425403E0,-8.230711937E0,-3.561716557E0
1.146291917E1,-3.141477108E0,-7.890631676E0,-4.837689400E0
1.147263365E1,-5.001597404E0,-7.641777992E0,-4.983950615E0
1.148234730E1,-6.189035892E0,-7.596314430E0,-4.160221100E0
1.149206021E1,-6.105287075E0,-7.519744396E0,-3.260220766E0
1.150177402E1,-5.312963486E0,-7.275377274E0,-2.987139940E0
1.151148850E1,-3.261118174E0,-7.265805721E0,-2.546561480E0
1.152120214E1,-1.467996716E0,-7.261020184E0,-1.703988791E0
1.153091511E1,3.538386524E-1,-7.512565613E0,-1.636989832E0
1.154062886E1,9.499505758E-1,-7.830811024E0,-3.585644722E0
1.155034334E1,1.491027594E0,-8.173283577E0,-5.869594097E0
1.156005699E1,1.220638633E0,-8.448458672E0,-5.065306664E0
1.156976990E1,3.681955934E-1,-9.059226990E0,-3.614358664E0
1.157948370E1,-2.446661144E-1,-9.629017830E0,-5.091627598E0
1.158919818E1,-1.166201949E0,-9.231510162E0,-5.611168861E0
1.159891183E1,-2.001895189E0,-9.080761909E0,-5.362016678E0
1.160862474E1,-2.653042078E0,-8.850751877E0,-6.585646152E0
1.161833855E1,-2.336890459E0,-8.570791245E0,-8.009973526E0
1.162805303E1,-1.961217284E0,-8.204390526E0,-6.858428001E0
1.163776667E1,-2.267498493E0,-7.522137165E0,-5.328516960E0
1.164747959E1,-2.169392824E0,-7.859525204E0,-4.940879822E0
1.165719339E1,-1.613958836E0,-8.075178146E0,-5.084448814E0
1.166690787E1,-1.513460279E-1,-7.751848221E0,-6.286244392E0
1.167662162E1,1.728216171E0,-7.648956776E0,-7.303792000E0
1.168633449E1,2.676073074E0,-7.656135082E0,-7.203293324E0
1.169604824E1,2.750549555E0,-7.857132435E0,-7.165008068E0
1.170576271E1,1.809572101E0,-6.926024914E0,-8.153543472E0
1.171547636E1,2.362912335E-2,-6.054439545E0,-8.536693573E0
1.172518933E1,-9.867402315E-1,-5.254937649E0,-8.148757935E0
1.173490308E1,-1.556531072E0,-4.792823792E0,-8.345268250E0
1.174461756E1,-1.606780410E0,-4.785645485E0,-8.598907471E0
1.175433131E1,-6.948158741E-1,-4.191926003E0,-9.554242134E0
1.176404417E1,-6.996015310E-1,-4.134498596E0,-9.678668022E0
1.177375792E1,-9.317052960E-1,-3.396910906E0,-8.484051704E0
1.178347240E1,-1.338784218E0,-2.975774050E0,-8.184649467E0
1.179318615E1,-1.317248821E0,-2.528017044E0,-9.362815857E0
1.180289902E1,-8.766704202E-1,-2.434697151E0,-1.086849976E1
1.181261277E1,1.145563871E-1,-2.422732830E0,-1.054546833E1
1.182232724E1,2.318046987E-1,-2.662015200E0,-9.736096382E0
1.183204100E1,3.658027649E-1,-2.439482689E0,-8.874381065E0
1.184175386E1,1.005284667E0,-2.422732830E0,-9.549455643E0
1.185146761E1,9.332008362E-1,-2.781656265E0,-1.104826069E1
1.186118209E1,8.087740541E-1,-2.257328987E0,-1.088046360E1
1.187089584E1,-7.594220638E-1,-2.793620348E0,-1.003071213E1
1.188060870E1,-2.018645048E0,-2.108973980E0,-9.719346046E0
1.189032245E1,-1.899003863E0,-1.606182218E0,-1.065553856E1
1.190003693E1,-3.212364316E-1,-1.668395638E0,-1.082064342E1
1.190975068E1,1.036391258E0,-1.986940145E0,-1.078235817E1
1.191946355E1,1.263709426E0,-2.274078846E0,-1.043031406E1
1.192917730E1,9.212366939E-1,-3.045166016E0,-1.094267750E1
1.193889178E1,1.313061416E-1,-3.720241070E0,-1.113440228E1
1.194860553E1,-5.772684813E-1,-3.985844374E0,-1.115115166E1
1.195831839E1,-1.604387641E0,-3.317947626E0,-1.099053383E1
1.196803214E1,-1.439282775E0,-2.453839540E0,-1.136411285E1
1.197774662E1,-1.685743570E0,-9.047860503E-1,-1.143829060E1
1.198746037E1,-1.601994753E0,2.691925503E-3,-1.158185959E1
1.199717324E1,-1.283749342E0,9.601201117E-2,-1.130907822E1
1.200688699E1,-5.653043389E-1,-5.455635786E-1,-1.172572803E1
1.201660146E1,-6.418746710E-1,-1.182353497E0,-1.189801121E1
1.202631521E1,-9.173483849E-1,-2.087438583E0,-1.165633678E1
1.203602808E1,-1.456032634E0,-2.327019930E0,-1.168026447E1
1.204574183E1,-2.356033087E0,-1.800299883E0,-1.243908882E1
1.205545631E1,-2.521436930E0,-1.182353497E0,-1.197697449E1
1.206517006E1,-1.709671736E0,-5.575276613E-1,-1.160369396E1
1.207488292E1,-8.192426562E-1,-7.896314561E-2,-1.188365459E1
1.208459667E1,-3.068794906E-1,-3.278166950E-1,-1.152203941E1
1.209431115E1,-3.164508045E-1,-7.612167001E-1,-1.180708408E1
1.210402490E1,-6.251249313E-1,-1.297508121E0,-1.160847950E1
1.211373777E1,-9.652048349E-1,-1.577468276E0,-1.176879883E1
1.212345152E1,-9.364909530E-1,-1.778764486E0,-1.151964664E1
1.213316600E1,-7.067800164E-1,-1.735394597E0,-1.168983555E1
1.214287974E1,-7.067800164E-1,-1.567897081E0,-1.177119160E1
1.215259261E1,-6.083751321E-1,-1.465005636E0,-1.163001537E1
1.216230636E1,-4.145565331E-1,-1.493719578E0,-1.141196918E1
1.217202084E1,-7.686942816E-2,-1.642074585E0,-1.104108143E1
1.218173459E1,3.993022740E-1,-2.094617128E0,-1.062682438E1
1.219144745E1,5.503492355E-1,-2.477767944E0,-1.053589725E1
1.220116120E1,3.849453330E-1,-2.599801779E0,-1.110808086E1
1.221087568E1,1.528415531E-1,-2.621337175E0,-1.064836025E1
1.222058943E1,5.473581702E-2,-2.532802820E0,-1.119900799E1
1.223030230E1,-3.810569942E-1,-2.499303341E0,-1.071296597E1
1.224001605E1,-8.623134494E-1,-2.530410051E0,-9.606884003E0
1.224973053E1,-1.125523925E0,-2.377269268E0,-1.059571743E1
1.225944428E1,-1.099202871E0,-2.319542408E0,-1.004985523E1
1.226915714E1,-1.398604870E0,-2.343769789E0,-9.362815857E0
1.227887089E1,-1.781456470E0,-2.238186598E0,-9.791131020E0
1.228858542E1,-1.848754644E0,-2.039582253E0,-8.972486496E0
1.229829907E1,-1.403390527E0,-2.702693224E0,-9.056235313E0
1.230801198E1,-8.407780528E-1,-3.310769320E0,-9.752845764E0
1.231772574E1,-8.599206209E-1,-3.870988846E0,-1.058136082E1
1.232744021E1,-1.154237866E0,-4.352245331E0,-9.831809044E0
1.233715396E1,-1.513460279E0,-4.969892502E0,-8.680263519E0
1.234686683E1,-1.333998680E0,-5.577968597E0,-9.252447128E0
1.235658058E1,-8.024929166E-1,-6.016154289E0,-8.680263519E0
1.236629506E1,-3.427718580E-1,-6.303592205E0,-8.115258217E0
1.237600881E1,-2.398804724E-1,-6.023332596E0,-8.407481194E0
1.238572167E1,-2.829512656E-1,-5.748157978E0,-8.328517914E0
1.239543542E1,-4.480560422E-1,-5.800800323E0,-7.945367813E0
1.240514990E1,-8.575277925E-1,-5.812764645E0,-8.055437088E0
1.241486365E1,-1.247856975E0,-5.683252811E0,-8.318946838E0
1.242457652E1,-1.508674622E0,-5.580361366E0,-8.318946838E0
1.243429027E1,-1.786242127E0,-5.393721104E0,-8.543871880E0
1.244400474E1,-2.133500576E0,-5.118247509E0,-8.421838760E0
1.245371850E1,-2.693720102E0,-5.101497650E0,-7.349255562E0
1.246343136E1,-2.257927179E0,-5.362614632E0,-7.270292282E0
1.247314511E1,-1.601994753E0,-5.886941910E0,-7.277471066E0
1.248285959E1,-9.867402315E-1,-6.437590122E0,-6.635895252E0
1.249257334E1,-3.523431420E-1,-7.136593342E0,-6.305386543E0
1.250228620E1,-7.208377868E-2,-7.380960464E0,-6.573681831E0
1.251199995E1,-2.757728100E-1,-7.213163853E0,-6.875177860E0
1.252171443E1,-7.307082415E-1,-6.772585392E0,-7.315756321E0
1.253142808E1,-1.075274706E0,-6.169294834E0,-7.208079338E0
1.254114100E1,-1.463211060E0,-5.903691769E0,-6.501598358E0
1.255085480E1,-1.613958836E0,-6.495018005E0,-5.857629776E0
1.256056928E1,-1.479960799E0,-7.033702374E0,-5.735595703E0
1.257028292E1,-1.384247899E0,-7.471887589E0,-5.831308842E0
1.257999589E1,-1.223629713E0,-7.818847179E0,-5.627918720E0
1.258970964E1,-8.934201598E-1,-8.072785378E0,-5.000699997E0
1.259942412E1,-7.618148923E-1,-8.003393173E0,-4.579264164E0
1.260913777E1,-6.948158741E-1,-7.735098362E0,-4.404588223E0
1.261885068E1,-4.121637046E-1,-7.361518860E0,-4.962415218E0
1.262856448E1,-3.451646566E-1,-7.495816231E0,-5.213661671E0
1.263827896E1,-7.666005492E-1,-8.060821533E0,-4.900201797E0
1.264799261E1,-8.431708813E-1,-8.355138779E0,-3.832404613E0
1.265770553E1,-7.067800164E-1,-8.661719322E0,-3.830011845E0
1.266741933E1,-2.757728100E-1,-8.757431984E0,-4.112364769E0
1.267713381E1,-3.858426586E-2,-8.460422516E0,-3.693321705E0
1.268684745E1,-3.188436031E-1,-7.984251022E0,-3.343969584E0
1.269656037E1,-6.753742099E-1,-7.715955734E0,-3.075674295E0
1.270627412E1,-1.010668516E0,-7.672884941E0,-2.769393206E0
1.271598865E1,-1.022632599E0,-7.770990849E0,-3.312862873E0
1.272570230E1,-1.094417214E0,-8.005785942E0,-3.288934708E0
1.273541521E1,-1.271785259E0,-8.455636978E0,-2.692822695E0
1.274512896E1,-1.298106313E0,-8.956035614E0,-2.615953445E0
1.275484350E1,-9.675976634E-1,-9.090332985E0,-2.874677420E0
1.276455714E1,-6.972087026E-1,-8.941679001E0,-3.276970625E0
1.277427006E1,-9.556335211E-1,-8.664112091E0,-3.511467218E0
1.278398381E1,-1.700100541E0,-8.268997192E0,-3.078067303E0
1.279369834E1,-2.571686029E0,-7.953144073E0,-2.652144909E0
1.280341198E1,-2.947658300E0,-7.711170197E0,-2.831606388E0
1.281312490E1,-3.416651726E0,-7.222734928E0,-2.644966364E0
1.282283865E1,-3.687339783E0,-6.954739094E0,-2.939283609E0
1.283255318E1,-3.531806231E0,-6.875775814E0,-3.061317444E0
1.284226683E1,-3.486043453E0,-6.837490559E0,-2.642573595E0
1.285197975E1,-3.646661758E0,-6.964310169E0,-2.072782516E0
1.286169350E1,-3.940979004E0,-7.404888630E0,-1.962413669E0
1.287140803E1,-4.046263218E0,-7.806882858E0,-1.680060625E0
1.288112167E1,-3.962514400E0,-7.847560883E0,-1.098305583E0
1.289083459E1,-3.548556089E0,-7.928916931E0,-5.261218548E-1
1.290054834E1,-2.938086987E0,-8.123034477E0,-3.296113312E-1
1.291026282E1,-2.317747831E0,-8.462815285E0,-4.112663865E-1
1.291997657E1,-1.781456470E0,-9.131011009E0,-4.040879309E-1
1.292968943E1,-1.448854089E0,-9.844371796E0,-1.932204217E-1
1.293940318E1,-1.372283816E0,-1.016979504E1,3.239283562E-1
1.294911766E1,-1.362712502E0,-1.046680450E1,7.450651526E-1
1.295883141E1,-1.032203913E0,-1.033280659E1,8.626125455E-1
1.296854428E1,-1.175773263E0,-1.022512913E1,7.692924738E-1
1.297825803E1,-1.125523925E0,-1.002622604E1,9.463613629E-1
1.298797251E1,-1.005882859E0,-9.803693771E0,1.247856975E0
1.299768615E1,-1.068096161E0,-9.382257462E0,1.812862277E0
1.300739912E1,-1.604387641E0,-1.033041382E1,1.810469389E0
1.301711287E1,-2.243570328E0,-1.130219841E1,1.334297776E0
1.302682735E1,-2.293819666E0,-1.170209885E1,1.690828323E0
1.303654100E1,-1.829612017E0,-1.128305626E1,1.319940805E0
1.304625391E1,-1.721635938E0,-1.129262733E1,1.561316848E-1
1.305596771E1,-1.781456470E0,-1.104855919E1,-7.342974544E-1
1.306568219E1,-2.064108610E0,-1.068694401E1,-1.122233868E0
1.307539584E1,-2.425724030E0,-1.034237766E1,-1.141376376E0
1.308510876E1,-2.818146944E0,-9.942477226E0,-7.582256794E-1
1.309482256E1,-2.940479994E0,-9.767801285E0,-3.176472187E-1
1.310453704E1,-2.892324448E0,-9.636196136E0,7.776673418E-3
1.311425068E1,-2.889931440E0,-9.521040916E0,-1.794616925E-3
1.312396360E1,-2.913859844E0,-9.384650230E0,-1.645065546E-1
1.313367735E1,-2.875574589E0,-9.387042999E0,-2.506481707E-1
1.314339188E1,-2.765504837E0,-9.403793335E0,-7.597211748E-2
1.315310553E1,-2.767897606E0,-9.286544800E0,2.497508675E-1
1.316281844E1,-2.858824968E0,-9.157332420E0,4.028915167E-1
1.317253219E1,-2.870789051E0,-9.078369141E0,5.608177781E-1
1.318224672E1,-2.806182861E0,-9.066405296E0,7.331010103E-1
1.319196037E1,-2.715255499E0,-9.104690552E0,9.966106415E-1
1.320167329E1,-2.542972326E0,-9.195617676E0,1.240678549E0
1.321138704E1,-2.202892303E0,-9.403793335E0,1.389332652E0
1.322110157E1,-1.910967946E0,-9.691230774E0,1.317547917E0
1.323081521E1,-1.704886079E0,-1.008126068E1,1.006181955E0
1.324052813E1,-1.575673699E0,-1.045723343E1,8.937192559E-1
1.325024188E1,-1.520638824E0,-1.067976570E1,5.943173170E-1
1.325995641E1,-1.623530149E0,-1.072762203E1,3.888336942E-2
1.326967006E1,-1.891825438E0,-1.063908768E1,-4.878367186E-1
1.327938298E1,-2.133500576E0,-1.049073315E1,-9.329017401E-1
1.328909672E1,-2.181356907E0,-1.030169964E1,-1.253839016E0
1.329881120E1,-1.700100541E0,-1.030887794E1,-1.380658627E0
1.330852485E1,-2.009073734E0,-1.034716320E1,-1.373480201E0
1.331823782E1,-2.190928221E0,-1.035194874E1,-1.639382601E0
1.332795157E1,-2.365604401E0,-1.017697334E1,-1.806880236E0
1.333766605E1,-2.016252279E0,-1.010758209E1,-1.785344839E0
1.334737969E1,-1.549352646E0,-9.736694336E0,-1.720738530E0
1.335709266E1,-1.520638824E0,-9.327222824E0,-1.629811287E0
1.336680641E1,-1.456032634E0,-9.027820587E0,-1.976770639E0
1.337652089E1,-1.322034478E0,-8.499007225E0,-3.372683525E0
1.338623454E1,-1.420140266E0,-7.885846138E0,-4.921737194E0
1.339594745E1,-1.738385677E0,-7.127022266E0,-4.741976261E0
1.340566126E1,-2.284248352E0,-6.554838657E0,-2.386242390E0
1.341537574E1,-2.818146944E0,-5.927619934E0,-2.985046208E-1
1.342508938E1,-3.452543974E0,-5.884549141E0,-6.361917257E-1
1.343480230E1,-3.115155935E0,-5.740979671E0,-2.038984060E0
1.344451605E1,-2.938086987E0,-5.855835438E0,-2.010270119E0
1.345423058E1,-2.868396044E0,-5.891727448E0,-6.912266612E-1
1.346394422E1,-2.877967358E0,-5.956333637E0,3.765704632E-1
1.347365714E1,-2.885145903E0,-6.131010056E0,8.434699476E-2
1.348337089E1,-3.186940670E0,-5.925227165E0,-1.541276932E0
1.349308542E1,-3.510270834E0,-5.482255936E0,-3.051746130E0
1.350279907E1,-3.682554007E0,-5.537290573E0,-3.947260141E0
1.351251199E1,-3.464508057E0,-6.138188362E0,-4.193720818E0
1.352222574E1,-3.268296719E0,-7.071987152E0,-4.023830414E0
1.353194027E1,-2.755933523E0,-7.996214867E0,-3.707678795E0
1.354165391E1,-2.128714800E0,-8.716753960E0,-3.726821184E0
1.355136683E1,-1.534995675E0,-9.126225471E0,-4.117150307E0
1.356108058E1,-1.221236825E0,-9.470791817E0,-3.964009762E0
1.357079506E1,-1.355534077E0,-9.808479309E0,-4.155435562E0
1.358050881E1,-1.192523003E0,-9.719944954E0,-4.936093807E0
1.359022167E1,-7.689933777E-1,-9.568898201E0,-4.677370071E0
1.359993542E1,-5.509474277E-1,-9.600004196E0,-3.399004459E0
1.360964990E1,-8.288139701E-1,-9.904191971E0,-3.995116472E0
1.361936365E1,-8.814560175E-1,-9.727123260E0,-5.692524910E0
1.362907652E1,-8.144569993E-1,-9.229117393E0,-7.404290676E0
1.363879027E1,-8.407780528E-1,-9.083154678E0,-7.983652592E0
1.364850474E1,-1.326820135E0,-8.905786514E0,-7.684549809E0
1.365821839E1,-1.899003863E0,-8.656932831E0,-6.987640381E0
1.366793131E1,-1.889432549E0,-8.484351158E0,-5.637490273E0
1.367764511E1,-1.539781332E0,-8.395816803E0,-4.277469635E0
1.368735959E1,-2.207378894E-1,-8.273782730E0,-2.831606388E0
1.369707324E1,1.072283626E0,-7.957930088E0,-3.650250912E0
1.370678615E1,1.301994562E0,-7.292127132E0,-6.393921375E0
1.371649995E1,9.403793216E-1,-6.361020088E0,-8.048258781E0
1.372621443E1,3.320041299E-2,-5.827121258E0,-7.921439171E0
1.373592808E1,-9.939187169E-1,-5.575575829E0,-6.803392887E0
1.374564100E1,-1.922932148E0,-5.118247509E0,-6.276672840E0
1.375535474E1,-2.507079840E0,-4.646861553E0,-6.925426960E0
1.376506928E1,-2.538186550E0,-4.203890324E0,-6.834499836E0
1.377478292E1,-2.009073734E0,-4.139284134E0,-6.631109715E0
1.378449584E1,-1.707278967E0,-3.964308977E0,-7.703692436E0
1.379420959E1,-1.724028707E0,-3.543172121E0,-8.919844627E0
1.380392407E1,-1.592423439E0,-3.571886063E0,-9.070592880E0
1.381363782E1,-1.151844978E0,-4.081856251E0,-8.206185341E0
1.382335068E1,-6.155536175E-1,-4.634897232E0,-8.088936806E0
1.383306443E1,3.320041299E-2,-4.974678040E0,-8.919844627E0
1.384277891E1,2.916252613E-1,-5.355436325E0,-1.000199890E1
1.385249266E1,1.719841212E-1,-5.683252811E0,-9.879665375E0
1.386220553E1,-2.374876440E-1,-6.025725842E0,-9.369994164E0
1.387191928E1,-8.790631890E-1,-6.138188362E0,-9.295517921E0
1.388163376E1,-1.985145450E0,-5.745765209E0,-9.664311409E0
1.389134740E1,-2.645863533E0,-5.187938690E0,-9.293125153E0
1.390106032E1,-2.466402054E0,-4.957928658E0,-9.001200676E0
1.391077412E1,-2.245963097E0,-4.541278362E0,-9.168698311E0
1.392048860E1,-2.028216362E0,-3.806382656E0,-9.554242134E0
1.393020224E1,-9.508479238E-1,-3.361018419E0,-1.001396275E1
1.393991516E1,9.302098304E-2,-2.889632463E0,-1.055264664E1
1.394962891E1,4.208376706E-1,-2.652443886E0,-1.053111172E1
1.395934344E1,-2.901297435E-2,-2.757728100E0,-1.066989517E1
1.396905709E1,7.148557901E-2,-2.743371248E0,-1.125882912E1
1.397877001E1,-6.083751321E-1,-3.289233923E0,-1.096181965E1
1.398848376E1,-9.364909530E-1,-3.495315790E0,-1.050479031E1
1.399819829E1,-1.915753603E0,-3.437588930E0,-1.014556789E1
1.400791193E1,-2.533401012E0,-3.784847260E0,-1.063400269E1
1.401762485E1,-2.399402857E0,-3.339483023E0,-1.094985580E1
1.402733860E1,-1.501496196E0,-3.186342478E0,-1.154118156E1
1.403705308E1,-9.317052960E-1,-2.003689766E0,-1.011206818E1
1.404676683E1,-3.308077157E-1,-1.141675472E0,-1.076082230E1
1.405647969E1,-6.490531564E-2,-2.464607358E-1,-1.093310547E1
1.406619344E1,-5.700899959E-1,4.576273263E-2,-1.111525917E1
1.407590792E1,-9.053842425E-1,-3.062812984E-1,-1.078475094E1
1.408562167E1,-1.202094316E0,-1.264008522E0,-1.171615696E1
1.409533454E1,-2.210070848E0,-1.642074585E0,-1.095224857E1
1.410504829E1,-2.607578516E0,-2.484946251E0,-1.153400326E1
1.411476277E1,-2.722434044E0,-2.425125837E0,-1.126600742E1
1.412447641E1,-2.595614433E0,-1.711466432E0,-1.095224857E1
1.413418933E1,-2.033001900E0,-7.707880139E-1,-1.123729324E1
1.414390313E1,-1.513460279E0,-1.986042857E-1,-1.154118156E1
1.415361761E1,-1.118345499E0,-2.344966233E-1,-1.140957642E1
1.416333126E1,-7.402794957E-1,-6.487540603E-1,-1.183101273E1
1.417304417E1,-7.474579811E-1,-1.240080357E0,-1.223091316E1
1.418275798E1,-5.916253924E-1,-1.742573142E0,-1.229551888E1
1.419247245E1,-3.906283081E-1,-2.018046856E0,-1.201765251E1
1.420218610E1,-3.403790295E-1,-1.955833435E0,-1.166590786E1
1.421189902E1,-5.078766346E-1,-1.620539188E0,-1.170419312E1
1.422161277E1,-4.983053207E-1,-1.484148264E0,-1.155314636E1
1.423132730E1,-5.126622319E-1,-1.596610904E0,-1.115115166E1
1.424104094E1,-4.576273263E-1,-1.512862086E0,-1.160847950E1
1.425075386E1,2.602194622E-2,-2.049153566E0,-1.073210907E1
1.426046761E1,1.145563871E-1,-2.583052158E0,-1.095224857E1
1.427018214E1,4.755735025E-2,-3.016452074E0,-1.119661522E1
1.427989579E1,-1.199402362E-1,-3.155235767E0,-1.099771214E1
1.428960870E1,-4.648058116E-1,-3.064308405E0,-1.044945621E1
1.429932245E1,-7.713862062E-1,-2.829512835E0,-1.042792130E1
1.430903698E1,-1.010668516E0,-2.714657307E0,-1.027238750E1
1.431875063E1,-1.355534077E0,-2.580659151E0,-1.056700420E1
1.432846355E1,-1.822433591E0,-2.283650160E0,-1.058375359E1
1.433817730E1,-2.267498493E0,-2.305185556E0,-9.683454514E0
1.434789183E1,-2.401795626E0,-2.278864384E0,-1.030110168E1
1.435760548E1,-2.380260229E0,-2.520838737E0,-1.028435135E1
1.436731839E1,-2.373081923E0,-2.403590441E0,-9.834201813E0
1.437703214E1,-2.202892303E0,-1.998904228E0,-9.994820595E0
1.438674667E1,-1.757528186E0,-1.967797518E0,-9.944570541E0
1.439646032E1,-1.824826360E0,-1.723430514E0,-9.630811691E0
1.440617324E1,-1.611566067E0,-2.175973177E0,-9.480064392E0
1.441588698E1,-1.776670814E0,-2.513660192E0,-9.487242699E0
1.442560152E1,-1.700100541E0,-2.978166819E0,-8.965308189E0
1.443531516E1,-1.482353687E0,-3.555136204E0,-9.324232101E0
1.444502808E1,-1.252642632E0,-4.122534275E0,-9.413064957E0
1.445474183E1,-1.029811025E0,-4.929214478E0,-9.039485931E0
1.446445636E1,-1.082453132E0,-5.231009483E0,-9.149555206E0
1.447417001E1,-1.336391449E0,-5.209474087E0,-9.850952148E0
1.448388292E1,-1.853540182E0,-5.197509766E0,-9.530313492E0
1.449359667E1,-2.181356907E0,-4.991427898E0,-9.171091080E0
1.450331120E1,-2.375474691E0,-4.936393261E0,-8.596514702E0
1.451302485E1,-2.724826813E0,-4.800002098E0,-8.069794655E0
1.452273777E1,-2.743969440E0,-4.706682205E0,-8.184649467E0
1.453245152E1,-2.248355865E0,-4.718646049E0,-8.165507317E0
1.454216605E1,-1.664208174E0,-5.173581600E0,-7.224828720E0
1.455187969E1,-1.460818172E0,-5.656931877E0,-7.454539776E0
1.456159261E1,-1.585245013E0,-5.884549141E0,-8.283054352E0
1.457130636E1,-1.353141189E0,-5.831906796E0,-7.775477409E0
1.458102089E1,-1.089631557E0,-5.877370834E0,-7.078567505E0
1.459073454E1,-9.221340418E-1,-5.630610943E0,-7.662715435E0
1.460044745E1,-9.891330600E-1,-5.463113308E0,-7.804191113E0
1.461016120E1,-1.434497118E0,-5.446363449E0,-6.482455730E0
1.461987574E1,-1.479960799E0,-6.147759438E0,-5.527420521E0
1.462958938E1,-1.616351724E0,-6.820741177E0,-6.006283760E0
1.463930230E1,-1.647458434E0,-7.603493214E0,-6.154638767E0
1.464901610E1,-2.140678883E0,-8.613862038E0,-5.371587753E0
1.465873058E1,-1.683350682E0,-9.947262764E0,-4.864309311E0
1.466844423E1,-8.766704202E-1,-1.052423191E1,-5.419444084E0
1.467815719E1,-1.055833027E-1,-1.028495026E1,-5.903093338E0
1.468787094E1,3.658027649E-1,-9.796515465E0,-5.283053398E0
1.469758542E1,1.504487246E-1,-9.346364975E0,-4.686941147E0
1.470729917E1,-3.858426586E-2,-8.350353241E0,-5.158626556E0
1.471701204E1,-6.394818425E-1,-7.469494820E0,-5.251946449E0
1.472672579E1,-1.463211060E0,-7.045666218E0,-4.555335999E0
1.473644032E1,-1.966002941E0,-7.253841877E0,-3.961616993E0
1.474615396E1,-2.052144527E0,-8.178069115E0,-3.434896946E0
1.475586688E1,-2.018645048E0,-8.786145210E0,-3.377469063E0
1.476558063E1,-1.982752681E0,-8.999106407E0,-3.339184046E0
1.477529516E1,-1.712064624E0,-8.862715721E0,-3.013461113E0
1.478500881E1,-1.360319614E0,-8.515756607E0,-2.970390320E0
1.479472172E1,-1.032203913E0,-8.142177582E0,-3.123530865E0
1.480443553E1,-9.388837814E-1,-8.134998322E0,-3.034996510E0
1.481415001E1,-1.190130115E0,-8.429315567E0,-2.656930447E0
1.482386365E1,-1.092024446E0,-8.484351158E0,-2.580060959E0
1.483357662E1,-8.024929166E-1,-8.151748657E0,-2.910569668E0
1.484329037E1,-4.145565331E-1,-7.766204834E0,-3.377469063E0
1.485300485E1,-2.446661144E-1,-7.335197926E0,-3.717249870E0
1.486271860E1,-8.883354068E-2,-6.933203697E0,-3.387040377E0
1.487243146E1,-4.097708687E-2,-6.760621071E0,-2.967997313E0
1.488214521E1,1.645065658E-2,-6.707979202E0,-2.680858612E0
1.489185975E1,1.456630826E-1,-6.585945129E0,-2.798106909E0
1.490157339E1,-2.805584669E-1,-6.743871689E0,-2.948854923E0
1.491128631E1,-8.670991063E-1,-7.124629498E0,-2.896212816E0
1.492100006E1,-1.333998680E0,-7.270591736E0,-2.556132793E0
1.493071459E1,-1.592423439E0,-7.208378315E0,-2.050948143E0
1.494042824E1,-1.820040703E0,-7.131807804E0,-1.203589797E0
1.495014120E1,-2.423331022E0,-7.253841877E0,-4.902295470E-1
1.495985495E1,-3.596412420E0,-7.725526810E0,-1.118644550E-1
1.496956943E1,-4.630710125E0,-8.106285095E0,-2.913261652E-1
1.497928318E1,-4.764708042E0,-7.438388348E0,-4.064807594E-1
1.498899605E1,-5.023132801E0,-7.395317554E0,-5.979065299E-1
1.499870980E1,-4.975276470E0,-7.904988766E0,-1.244267821E0
1.500842433E1,-4.606482506E0,-8.414958954E0,-1.512562990E0
1.501813798E1,-4.029513359E0,-8.927322388E0,-1.289731383E0
1.502785089E1,-3.064906597E0,-9.607182503E0,-1.081555843E0
1.503756469E1,-1.855933070E0,-1.026819992E1,-1.060020447E0
1.504727917E1,-8.862416744E-1,-1.086670494E1,-7.055835724E-1
1.505699292E1,-2.614158690E-1,-1.137428284E1,9.391828626E-2
1.506670579E1,-5.054837838E-2,-1.169252777E1,1.255035520E0
1.507641954E1,-2.279163599E-1,-1.189143085E1,2.337189436E0
