"Time (s)","Gyroscope x (rad/s)","Gyroscope y (rad/s)","Gyroscope z (rad/s)"
1.804760480E-1,1.910577536E0,-4.949389994E-1,4.352286831E-2
1.901897980E-1,1.922794461E0,-5.291464329E-1,-4.566083103E-2
1.999042770E-1,1.978992462E0,-5.083776116E-1,-4.077405483E-2
2.096179750E-1,2.068176031E0,-4.619532526E-1,7.635590737E-4
2.193308910E-1,2.103605270E0,-4.839437306E-1,6.062658876E-2
2.290446410E-1,2.087723255E0,-5.548020005E-1,1.119377613E-1
2.387591200E-1,2.084058046E0,-5.975613594E-1,1.094943732E-1
2.484728700E-1,2.112157106E0,-5.767925382E-1,4.352286831E-2
2.581857350E-1,2.147586346E0,-4.986040890E-1,-2.489202656E-2
2.678994850E-1,2.196454048E0,-3.849864900E-1,-5.909947306E-2
2.776139640E-1,2.290524483E0,-2.078407854E-1,-5.787777901E-2
2.873277140E-1,2.421245813E0,-1.114796288E-2,-3.344388679E-2
2.970405790E-1,2.572736025E0,1.293469071E-1,2.275406010E-2
3.067543290E-1,2.685131788E0,2.052446753E-1,8.261708915E-2
3.164688600E-1,2.744994879E0,2.223484069E-1,1.327065676E-1
3.261825060E-1,2.755990028E0,1.869192570E-1,1.705790907E-1
3.358954230E-1,2.733999729E0,1.466033459E-1,1.815743446E-1
3.456091730E-1,2.707122326E0,1.747023165E-1,1.461452097E-1
3.553236520E-1,2.720561028E0,1.820324808E-1,1.082726792E-1
3.650374020E-1,2.751103401E0,1.305686086E-1,8.139539510E-2
3.747502660E-1,2.753546715E0,6.581879407E-2,6.429167092E-2
3.844640160E-1,2.698570490E0,-3.558185324E-2,3.497100621E-2
3.941784950E-1,2.566627502E0,-2.640387416E-1,1.786728203E-2
4.038922450E-1,2.442014694E0,-4.998257756E-1,6.872031838E-3
4.136051100E-1,2.407807112E0,-6.610894203E-1,-5.543438718E-2
4.233188600E-1,2.439571142E0,-7.893673778E-1,-1.898207814E-1
4.330333390E-1,2.470113516E0,-8.699992299E-1,-3.657447994E-1
4.427470890E-1,2.503099442E0,-9.579612017E-1,-4.769189954E-1
4.524599540E-1,2.516537905E0,-9.897252917E-1,-4.940227270E-1
4.621737040E-1,2.521424770E0,-9.286405444E-1,-4.561502039E-1
4.718881830E-1,2.515316248E0,-8.956547976E-1,-4.048390090E-1
4.816019330E-1,2.507986069E0,-9.017632604E-1,-3.229855001E-1
4.913147980E-1,2.496990919E0,-9.445225596E-1,-2.338017821E-1
5.010285480E-1,2.484773874E0,-9.799517393E-1,-1.751604527E-1
5.107430790E-1,2.475000381E0,-9.494093657E-1,-1.336228400E-1
5.204567250E-1,2.443236351E0,-9.042066336E-1,-1.275143623E-1
5.301696410E-1,2.355274200E0,-9.347490072E-1,-1.299577504E-1
5.398833910E-1,2.198897362E0,-9.713998437E-1,-1.336228400E-1
5.495979230E-1,2.018086672E0,-9.982771277E-1,-1.556133330E-1
5.593115680E-1,1.936233044E0,-1.069135427E0,-1.983726472E-1
5.690244850E-1,1.887365341E0,-1.089904189E0,-2.496838123E-1
5.787382350E-1,1.801846743E0,-1.010494113E0,-2.460187376E-1
5.884527660E-1,1.694337606E0,-8.761076927E-1,-1.409530044E-1
5.981664120E-1,1.602710485E0,-7.600467205E-1,8.093725890E-3
6.078793290E-1,1.533073902E0,-6.635328531E-1,1.180462316E-1
6.175930790E-1,1.458550572E0,-6.085565686E-1,1.791309565E-1
6.273076100E-1,1.343711257E0,-5.438067913E-1,1.901262105E-1
6.370212560E-1,1.215433359E0,-4.350759685E-1,1.632489264E-1
6.467341730E-1,1.143200636E0,-2.554868758E-1,1.107160673E-1
6.564479750E-1,1.118766785E0,-3.191677108E-2,4.963133857E-2
6.661624540E-1,1.102884769E0,2.028012872E-1,1.786728203E-2
6.758761000E-1,1.058903694E0,3.640649617E-1,1.053711493E-2
6.855890680E-1,9.672766328E-1,4.092676640E-1,1.908897609E-2
6.953028180E-1,8.292251825E-1,3.787252903E-1,1.786728203E-2
7.050172980E-1,6.911736727E-1,2.773246467E-1,-7.788302377E-3
7.147310480E-1,5.506787896E-1,2.296785712E-1,-2.611372061E-2
7.244439120E-1,4.187358022E-1,1.954711229E-1,-2.244863659E-2
7.341576620E-1,3.100049794E-1,1.502684206E-1,-2.733541466E-2
7.438721930E-1,2.244863659E-1,1.281252056E-1,-5.176930502E-2
7.535858390E-1,1.316375881E-1,1.232384369E-1,-8.597674966E-2
7.632987560E-1,4.245388508E-2,1.368297935E-1,-1.152974218E-1
7.730125060E-1,-4.184303805E-2,1.232384369E-1,-1.275143623E-1
7.827270370E-1,-1.249182671E-1,3.161134571E-2,-1.128540337E-1
7.924406830E-1,-1.921114624E-1,-6.368082762E-2,-8.475505561E-2
8.021536520E-1,-2.519744933E-1,-1.308740228E-1,-5.787777901E-2
8.118674020E-1,-2.935121059E-1,-1.589729935E-1,-4.810422286E-2
8.215818810E-1,-2.983988822E-1,-1.186570823E-1,-5.787777901E-2
8.312956310E-1,-2.446443290E-1,-5.024218559E-2,-5.909947306E-2
8.410084950E-1,-1.798945218E-1,2.672456764E-2,-5.421269313E-2
8.507222450E-1,-1.420219839E-1,9.880454093E-2,-3.710897267E-2
8.604367770E-1,-1.261399537E-1,1.490467340E-1,3.206948051E-3
8.701504230E-1,-1.408002973E-1,1.747023165E-1,4.107947648E-2
8.798633910E-1,-1.835595965E-1,1.930277348E-1,5.818320066E-2
8.895771410E-1,-2.483094037E-1,1.600419879E-1,4.718795046E-2
8.992916730E-1,-3.155026138E-1,1.317902952E-1,5.650337320E-3
9.090053180E-1,-3.741439581E-1,1.527118087E-1,-7.009471953E-2
9.187182350E-1,-4.132381678E-1,1.380514801E-1,-1.470614821E-1
9.284320370E-1,-4.425588250E-1,1.183516532E-1,-2.020377368E-1
9.381465160E-1,-4.963133931E-1,1.293469071E-1,-2.289150059E-1
9.478602660E-1,-5.854970813E-1,1.392731816E-1,-2.166980654E-1
9.575731310E-1,-7.027797699E-1,8.292251825E-2,-1.776038408E-1
9.672869330E-1,-8.567132950E-1,-6.001574174E-2,-1.104106456E-1
9.770014120E-1,-1.026528835E0,-2.786990702E-1,-2.733541466E-2
9.867151620E-1,-1.168245435E0,-4.338542521E-1,2.031067200E-2
9.964280270E-1,-1.242768764E0,-4.705050886E-1,3.497100621E-2
1.006141777E0,-1.274532795E0,-4.472928941E-1,2.641914412E-2
1.015856308E0,-1.307518601E0,-3.837648034E-1,7.635590737E-4
1.025569954E0,-1.336839199E0,-2.958027720E-1,-1.389677543E-2
1.035282923E0,-1.373490095E0,-1.528645307E-1,-2.000524849E-2
1.044996673E0,-1.456565261E0,2.794626169E-2,8.093725890E-3
1.054711204E0,-1.620272398E0,1.637070626E-1,9.849911928E-2
1.064424954E0,-1.829182148E0,1.783674061E-1,2.157817930E-1
1.074137818E0,-1.984337330E0,7.925742865E-2,3.100049794E-1
1.083851568E0,-2.051530600E0,-1.603474095E-2,3.503209054E-1
1.093566100E0,-2.052752256E0,-2.092151903E-2,3.136700690E-1
1.103279850E0,-1.977007151E0,4.627167806E-2,2.267770469E-1
1.112992714E0,-1.887823462E0,2.272351831E-1,1.534753740E-1
1.122706464E0,-1.906148911E0,5.033381581E-1,1.327065676E-1
1.132420995E0,-2.061304092E0,8.295305967E-1,1.681357026E-1
1.142134745E0,-2.243336678E0,1.099525094E0,2.536543310E-1
1.151847610E0,-2.344737291E0,1.242463350E0,3.649812341E-1
1.161561412E0,-2.369171143E0,1.363411069E0,4.712686539E-1
1.171275943E0,-2.297091007E0,1.568655729E0,5.616740584E-1
1.180989589E0,-2.150487661E0,1.771457076E0,6.642963886E-1
1.190702558E0,-2.045422077E0,1.927833915E0,7.693621516E-1
1.200416308E0,-1.995332599E0,1.909508586E0,8.145648241E-1
1.210130839E0,-1.969676971E0,1.506349325E0,7.388197780E-1
1.219844485E0,-1.974563718E0,9.773555994E-1,5.555655956E-1
1.229557454E0,-1.992889166E0,7.183563709E-1,3.393256664E-1
1.239271204E0,-1.973342061E0,7.391251922E-1,1.327065676E-1
1.248985735E0,-1.931804419E0,9.260444641E-1,-6.765133142E-2
1.258699485E0,-1.904927135E0,1.213142633E0,-2.374668717E-1
1.268412350E0,-1.935469508E0,1.335312128E0,-3.083251417E-1
1.278126152E0,-2.084516287E0,1.155722976E0,-2.936648130E-1
1.287840683E0,-2.276322365E0,8.148702383E-1,-2.447970361E-1
1.297554329E0,-2.397269964E0,4.947862923E-1,-1.947075576E-1
1.307267298E0,-2.430255890E0,2.993151546E-1,-1.458397806E-1
1.316981100E0,-2.358175755E0,1.734806150E-1,-1.079672500E-1
1.326695579E0,-2.228676319E0,3.527642787E-2,-1.055238619E-1
1.336409329E0,-2.154152870E0,-1.113269106E-1,-1.372879148E-1
1.346122245E0,-2.200577259E0,-1.455343664E-1,-1.556133330E-1
1.355835995E0,-2.366727591E0,-6.261184346E-3,-1.262926757E-1
1.365550527E0,-2.507222652E0,2.602209449E-1,-3.100049868E-2
1.375264277E0,-2.493783951E0,6.059604883E-1,5.696150661E-2
1.384977141E0,-2.288539171E0,9.126058221E-1,5.573981255E-2
1.394690943E0,-2.014879704E0,9.675820470E-1,-2.122694254E-2
1.404405475E0,-1.840177417E0,7.684458494E-1,-1.018587798E-1
1.414119120E0,-1.834068894E0,5.118899941E-1,-1.495048702E-1
1.423832089E0,-1.890266895E0,3.127537966E-1,-1.666085869E-1
1.433545891E0,-1.904927135E0,2.638860047E-1,-1.507265568E-1
1.443260370E0,-1.801083088E0,3.689517379E-1,-8.353336155E-2
1.452974120E0,-1.621494055E0,4.825693369E-1,2.519745007E-2
1.462687037E0,-1.496881247E0,4.996730685E-1,1.571404636E-1
1.472400839E0,-1.461452127E0,4.092676640E-1,2.585411072E-1
1.482115318E0,-1.476112366E0,2.846548259E-1,2.990097404E-1
1.491829068E0,-1.489551067E0,1.942494214E-1,2.806843221E-1
1.501541985E0,-1.449235082E0,1.637070626E-1,1.974563748E-1
1.511255735E0,-1.333174109E0,1.856975704E-1,6.184828654E-2
1.520970266E0,-1.232995152E0,1.893626451E-1,-1.397313178E-1
1.530684016E0,-1.221999884E0,1.869192570E-1,-3.779617548E-1
1.540396933E0,-1.264759302E0,1.502684206E-1,-6.027535200E-1
1.550110683E0,-1.313627005E0,1.429382563E-1,-7.957812548E-1
1.559825214E0,-1.357608080E0,1.256818175E-1,-8.849649429E-1
1.569538964E0,-1.432131410E0,3.894151375E-2,-8.251019120E-1
1.579251881E0,-1.528645277E0,-1.259872466E-1,-6.174138784E-1
1.588965631E0,-1.489551067E0,7.437065244E-2,-3.486410677E-1
1.598680162E0,-1.390593767E0,4.141544402E-1,-1.043021679E-1
1.608393912E0,-1.416249394E0,4.190412164E-1,1.094943732E-1
1.618106829E0,-1.526201844E0,1.110214889E-1,2.672456801E-1
1.627820579E0,-1.604390383E0,-1.944021434E-1,2.609844804E-1
1.637535110E0,-1.623937488E0,-3.397837877E-1,1.840177327E-1
1.647248860E0,-1.598281860E0,-4.509579837E-1,1.473668963E-1
1.656961777E0,-1.583621502E0,-5.816792846E-1,1.559187621E-1
1.666675527E0,-1.534753680E0,-6.500942111E-1,1.644706279E-1
1.676390058E0,-1.476112366E0,-6.207735538E-1,1.033858955E-1
1.686103808E0,-1.391815424E0,-5.218162537E-1,3.741439432E-2
1.695816725E0,-1.317292094E0,-4.521796703E-1,3.008422814E-2
1.705530475E0,-1.198787689E0,-3.764346242E-1,2.397575416E-2
1.715245006E0,-1.088835239E0,-2.689255178E-1,2.641914412E-2
1.724958756E0,-9.691091776E-1,-1.626380831E-1,1.664558798E-2
1.734671673E0,-8.542698622E-1,-6.856760383E-2,-2.489202656E-2
1.744385475E0,-7.601994276E-1,-1.603474095E-2,-6.154286116E-2
1.754100006E0,-6.429167390E-1,3.649812192E-2,-7.742489129E-2
1.763813652E0,-5.451811552E-1,1.085781008E-1,-5.421269313E-2
1.773526620E0,-4.547757804E-1,9.636115283E-2,-1.511846948E-2
1.783240423E0,-4.059080184E-1,3.771981969E-2,2.397575416E-2
1.792954954E0,-3.399364948E-1,-2.458660305E-2,4.718795046E-2
1.802668704E0,-2.397575527E-1,2.183778957E-2,5.818320066E-2
1.812381568E0,-1.493521482E-1,9.025268257E-2,1.908897609E-2
1.822095370E0,-4.550812021E-2,1.256818175E-1,-2.611372061E-2
1.831809902E0,4.245388508E-2,1.795890927E-1,-7.253811508E-2
1.841523652E0,1.194206402E-1,1.942494214E-1,-1.128540337E-1
1.851236568E0,1.915006191E-1,2.064663768E-1,-1.458397806E-1
1.860950318E0,2.782409191E-1,2.052446753E-1,-1.666085869E-1
1.870664850E0,3.759764731E-1,2.028012872E-1,-1.690519750E-1
1.880378600E0,4.810422063E-1,2.235700935E-1,-1.543916464E-1
1.890091516E0,6.032116413E-1,2.040229887E-1,-1.238492802E-1
1.899805318E0,7.253811359E-1,1.893626451E-1,-8.231166750E-2
1.909519850E0,8.426637650E-1,2.089097649E-1,-5.421269313E-2
1.919233495E0,9.660549164E-1,2.296785712E-1,-4.443913698E-2
1.928946464E0,1.049130201E0,2.199050188E-1,-3.100049868E-2
1.938660266E0,1.115101695E0,2.076880634E-1,-1.389677543E-2
1.948374798E0,1.183516622E0,1.771457046E-1,1.175880991E-2
1.958088548E0,1.214211583E0,1.380514801E-1,4.840964451E-2
1.967801412E0,1.249640822E0,8.292251825E-2,8.628217876E-2
1.977515214E0,1.253305912E0,1.450762246E-2,1.009425074E-1
1.987229745E0,1.228871942E0,-5.757235363E-2,1.265980899E-1
1.996943495E0,1.227650285E0,-1.614163816E-1,1.656923145E-1
2.006656412E0,1.255749226E0,-2.469350100E-1,2.328855246E-1
2.016370214E0,1.308282137E0,-3.458922505E-1,2.721324563E-1
2.026084745E0,1.320499063E0,-5.242596865E-1,2.622061968E-1
2.035798391E0,1.319277406E0,-6.390989423E-1,2.170034945E-1
2.045511360E0,1.335159421E0,-6.342121959E-1,1.546970755E-1
2.055225162E0,1.353484869E0,-6.171084642E-1,1.119377613E-1
2.064939693E0,1.432894945E0,-5.511369109E-1,7.773031294E-2
2.074653443E0,1.524522066E0,-5.254813433E-1,1.021642014E-1
2.084366308E0,1.627144337E0,-5.193728805E-1,1.840177327E-1
2.094080110E0,1.746870399E0,-4.937172830E-1,2.609844804E-1
2.103794641E0,1.858044624E0,-4.582881629E-1,3.185568452E-1
2.113508391E0,1.935011387E0,-3.507790267E-1,3.368822634E-1
2.123221308E0,1.955780268E0,-3.019112647E-1,2.953446507E-1
2.132935110E0,1.944784999E0,-3.800997138E-1,2.733541429E-1
2.142649641E0,1.970440507E0,-4.521796703E-1,2.929012477E-1
2.152363287E0,2.047407389E0,-4.876088202E-1,3.038965166E-1
2.162076256E0,2.112157106E0,-5.315898061E-1,2.770192325E-1
2.171790058E0,2.165911674E0,-5.780141950E-1,2.121167034E-1
2.181504589E0,2.229439735E0,-5.670189857E-1,1.082726792E-1
2.191218339E0,2.284415960E0,-5.034908652E-1,-1.145338640E-2
2.200931204E0,2.319845200E0,-4.607315361E-1,-7.498150319E-2
2.210645006E0,2.305184841E0,-4.790569544E-1,-3.955236077E-2
2.220359537E0,2.289302826E0,-5.816792846E-1,2.275406010E-2
2.230073287E0,2.325953722E0,-7.380561829E-1,-2.244863659E-2
2.239786204E0,2.372378111E0,-8.675557971E-1,-1.043021679E-1
2.249500006E0,2.422467470E0,-9.506310225E-1,-1.079672500E-1
2.259214537E0,2.493325710E0,-8.919897079E-1,-4.199574888E-2
2.268928183E0,2.554410458E0,-7.136223316E-1,4.352286831E-2
2.278641152E0,2.569070816E0,-6.024481058E-1,9.605573118E-2
2.288354954E0,2.506764412E0,-6.427640319E-1,7.040014863E-2
2.298069485E0,2.411472321E0,-7.820371985E-1,-4.932591692E-2
2.307783235E0,2.377264738E0,-9.921686649E-1,-2.252499312E-1
2.317496100E0,2.446901321E0,-1.108229637E0,-3.107685447E-1
2.327209902E0,2.566627502E0,-1.025154471E0,-2.704526186E-1
2.336924433E0,2.635042429E0,-8.712208867E-1,-2.020377368E-1
2.346638183E0,2.616716862E0,-7.942541242E-1,-1.800472289E-1
2.356351100E0,2.543415308E0,-7.722636461E-1,-1.971509457E-1
2.366064902E0,2.460340023E0,-7.881456614E-1,-2.142546773E-1
2.375779433E0,2.406585455E0,-8.223531246E-1,-2.044811249E-1
2.385493079E0,2.389481783E0,-8.528954983E-1,-1.592784226E-1
2.395206048E0,2.426132679E0,-8.773293495E-1,-8.231166750E-2
2.404919850E0,2.494547606E0,-8.932114244E-1,-2.901524538E-3
2.414634381E0,2.553188801E0,-8.907679915E-1,2.275406010E-2
2.424348131E0,2.549523830E0,-8.431219459E-1,-1.267508045E-2
2.434060995E0,2.421245813E0,-7.014053464E-1,-5.176930502E-2
2.443774798E0,2.228218079E0,-5.425850749E-1,-7.742489129E-2
2.453489329E0,2.057180882E0,-4.155288339E-1,-1.201841980E-1
2.463203079E0,1.976549029E0,-2.713688910E-1,-1.837123185E-1
2.472915995E0,1.994874477E0,-1.443126649E-1,-2.509055138E-1
2.482629798E0,2.065732718E0,-1.259872466E-1,-3.034383655E-1
2.492344329E0,2.146364450E0,-1.565296054E-1,-3.852919042E-1
2.502057975E0,2.206227541E0,-2.273878902E-1,-5.147915483E-1
2.511770943E0,2.253873587E0,-3.116848171E-1,-6.345176101E-1
2.521484745E0,2.267312288E0,-3.165715933E-1,-6.601731777E-1
2.531199277E0,2.218444586E0,-2.640387416E-1,-6.247440577E-1
2.540913027E0,2.106048584E0,-2.322746664E-1,-5.551074743E-1
2.550625891E0,1.974105597E0,-1.504211426E-1,-4.671454430E-1
2.560339693E0,1.870261550E0,3.512371797E-3,-3.217637837E-1
2.570054225E0,1.804290056E0,1.624853760E-1,-2.081461996E-1
2.579767975E0,1.766417503E0,2.675510943E-1,-1.446180940E-1
2.589480891E0,1.740761995E0,3.359659910E-1,-9.330692142E-2
2.599194641E0,1.700446010E0,4.019374847E-1,-2.855710872E-2
2.608909173E0,1.628366113E0,4.789042473E-1,7.162184268E-2
2.618622923E0,1.512305140E0,5.570927262E-1,1.803526580E-1
2.628335839E0,1.349819779E0,6.462764144E-1,2.414373755E-1
2.638049641E0,1.155417562E0,6.853706241E-1,2.672456801E-1
2.647764173E0,9.623898268E-1,6.193991303E-1,2.560977042E-1
2.657477818E0,8.035695553E-1,4.703523815E-1,1.925695986E-1
2.667190787E0,6.923953891E-1,3.200839758E-1,8.628217876E-2
2.676904589E0,6.166502833E-1,2.064663768E-1,-4.199574888E-2
2.686619120E0,5.421269536E-1,1.759240031E-1,-1.727170646E-1
2.696332870E0,4.700469673E-1,2.137965411E-1,-2.948864996E-1
2.706045735E0,4.101839364E-1,2.199050188E-1,-3.791834414E-1
2.715759537E0,3.478775024E-1,1.417165697E-1,-4.023956358E-1
2.725474068E0,2.819060087E-1,-3.802524135E-2,-3.950654566E-1
2.735187818E0,1.829487532E-1,-2.383831441E-1,-3.437542915E-1
2.744900735E0,2.412846684E-2,-3.605526090E-1,-2.399102598E-1
2.754614485E0,-1.139230132E-1,-5.059342384E-1,-1.372879148E-1
2.764329016E0,-2.238755226E-1,-6.281036735E-1,-6.154286116E-2
2.774042766E0,-2.678565085E-1,-7.111788988E-1,-2.733541466E-2
2.783755683E0,-2.531961799E-1,-7.062921524E-1,-2.489202656E-2
2.793469485E0,-1.908897758E-1,-6.061131954E-1,-2.611372061E-2
2.803184016E0,-1.139230132E-1,-5.071559548E-1,-2.122694254E-2
2.812897662E0,-6.994201243E-2,-4.839437306E-1,-4.123218823E-3
2.822610631E0,-8.215895295E-2,-5.303681493E-1,2.886253223E-2
2.832324433E0,-1.432436854E-1,-5.438067913E-1,7.650861889E-2
2.842038964E0,-2.079934925E-1,-4.937172830E-1,1.058292910E-1
2.851752714E0,-2.226538211E-1,-4.118637741E-1,1.021642014E-1
2.861465579E0,-2.043284029E-1,-3.251234591E-1,8.506047726E-2
2.871179381E0,-1.908897758E-1,-2.163926363E-1,6.795676053E-2
2.880893912E0,-1.969982386E-1,-6.856760383E-2,4.963133857E-2
2.890607662E0,-2.287622988E-1,1.073564067E-1,3.252761811E-2
2.900320527E0,-2.727433145E-1,2.797680497E-1,2.519745007E-2
2.910034329E0,-2.910687327E-1,3.921639323E-1,1.053711493E-2
2.919748860E0,-2.837385535E-1,4.642439187E-1,-6.566607859E-3
2.929462610E0,-2.886253297E-1,4.996730685E-1,-5.344913341E-3
2.939175527E0,-3.313846290E-1,4.593571424E-1,2.519745007E-2
2.948889277E0,-4.340069890E-1,3.982724249E-1,7.528692484E-2
2.958603808E0,-5.512896776E-1,3.542914093E-1,9.972081333E-2
2.968317558E0,-6.465818286E-1,3.090887070E-1,1.070509851E-1
2.978030475E0,-7.162184119E-1,2.834331393E-1,9.239064902E-2
2.987744225E0,-7.528692484E-1,2.956500649E-1,4.352286831E-2
2.997458756E0,-7.626428008E-1,3.005368412E-1,-7.788302377E-3
3.007172506E0,-7.663078904E-1,3.054236174E-1,-2.122694254E-2
3.016885423E0,-8.102889061E-1,3.042019308E-1,3.863608837E-2
3.026599225E0,-9.092461467E-1,1.942494214E-1,1.327065676E-1
3.036313756E0,-1.043632507E0,-1.137702987E-1,1.937913001E-1
3.046027402E0,-1.185349107E0,-5.706840754E-1,1.986780763E-1
3.055740370E0,-1.289193153E0,-9.323056340E-1,1.351499557E-1
3.065454173E0,-1.373490095E0,-1.049588323E0,4.352286831E-2
3.075168704E0,-1.507876515E0,-9.604045749E-1,-3.955236077E-2
3.084882350E0,-1.801083088E0,-7.270609736E-1,-1.043021679E-1
3.094595318E0,-2.277544022E0,-5.181511641E-1,-1.018587798E-1
3.104309120E0,-2.766221762E0,-4.680617154E-1,-3.222219273E-2
3.114023652E0,-3.113183022E0,-5.548020005E-1,9.239064902E-2
3.123737298E0,-3.298880577E0,-7.038487792E-1,2.560977042E-1
3.133450266E0,-3.362408638E0,-7.918107510E-1,4.114056230E-1
3.143164068E0,-3.319649458E0,-7.062921524E-1,4.993676245E-1
3.152878600E0,-3.158385754E0,-4.607315361E-1,5.360184908E-1
3.162592245E0,-2.881061077E0,-1.870719790E-1,5.580089688E-1
3.172305214E0,-2.548760176E0,-3.313846514E-2,5.335750580E-1
3.182019016E0,-2.244558334E0,-2.596100792E-3,4.639385045E-1
3.191733548E0,-1.995332599E0,-6.123743951E-2,3.698680103E-1
3.201447193E0,-1.810856700E0,-1.394258887E-1,3.038965166E-1
3.211160162E0,-1.781535983E0,-7.101099193E-2,2.733541429E-1
3.220873964E0,-1.988002419E0,3.237490356E-1,2.745758295E-1
3.230588495E0,-2.253110170E0,9.529217482E-1,3.014531136E-1
3.240302141E0,-2.334963560E0,1.474585295E0,3.319954872E-1
3.250015110E0,-2.206685781E0,1.776343822E0,3.210002482E-1
3.259728912E0,-2.003884315E0,2.050003290E0,1.937913001E-1
3.269443443E0,-1.865832925E0,2.272351742E0,4.107947648E-2
3.279157089E0,-1.818186879E0,2.285790443E0,7.635590737E-4
3.288870058E0,-1.797418118E0,2.130635262E0,5.085303262E-2
3.298583860E0,-1.786422849E0,1.952267885E0,1.327065676E-1
3.308298391E0,-1.804748178E0,1.727476001E0,2.658712566E-1
3.318012037E0,-1.848729253E0,1.639514089E0,4.309527278E-1
3.327725006E0,-1.820630312E0,1.716480851E0,5.799994469E-1
3.337438808E0,-1.752215385E0,1.683495045E0,6.642963886E-1
3.347153339E0,-1.796196342E0,1.497797489E0,6.288672686E-1
3.356866985E0,-2.002662659E0,1.141062737E0,5.115845799E-1
3.366579954E0,-2.282430887E0,6.682668924E-1,4.272876680E-1
3.376293756E0,-2.481566906E0,1.171299592E-1,3.943018913E-1
3.386008235E0,-2.487675428E0,-3.642176688E-1,3.539859951E-1
3.395721985E0,-2.343515396E0,-4.094203711E-1,3.051182032E-1
3.405434902E0,-2.126053810E0,-5.512896553E-2,3.002314270E-1
3.415148704E0,-1.882936716E0,3.652866483E-1,3.527642787E-1
3.424863183E0,-1.665475011E0,7.391251922E-1,4.065188468E-1
3.434576933E0,-1.533532023E0,1.001789451E0,4.065188468E-1
3.444289850E0,-1.539640546E0,9.920159578E-1,3.723114133E-1
3.454003600E0,-1.681357026E0,7.965448499E-1,2.953446507E-1
3.463718131E0,-1.865832925E0,4.862344265E-1,1.595838517E-1
3.473431881E0,-1.989224076E0,1.954711229E-1,3.863608837E-2
3.483144798E0,-1.983115673E0,1.939439960E-2,-1.145338640E-2
3.492858548E0,-1.887823462E0,2.061609551E-2,-4.321744293E-2
3.502573079E0,-1.738776684E0,1.380514801E-1,-5.299099907E-2
3.512286829E0,-1.597060204E0,1.649287641E-1,7.635590737E-4
3.521999693E0,-1.544527292E0,1.183516532E-1,5.207473040E-2
3.531713495E0,-1.539640546E0,1.380514801E-1,8.750387281E-2
3.541428027E0,-1.515206575E0,2.370087355E-1,1.058292910E-1
3.551141777E0,-1.450456858E0,3.909422457E-1,8.139539510E-2
3.560854641E0,-1.405254126E0,5.876350403E-1,5.650337320E-3
3.570568443E0,-1.373490095E0,7.317950130E-1,-1.030804738E-1
3.580282975E0,-1.374711752E0,6.291726828E-1,-2.032594234E-1
3.589996620E0,-1.429687977E0,3.457395434E-1,-2.692309320E-1
3.599709589E0,-1.449235082E0,1.856975704E-1,-2.887780368E-1
3.609423391E0,-1.366159916E0,2.235700935E-1,-2.338017821E-1
3.619137923E0,-1.262315869E0,2.785463631E-1,-1.360662282E-1
3.628851568E0,-1.206117868E0,2.211267054E-1,-3.466558084E-2
3.638564537E0,-1.201231122E0,5.115845799E-2,8.093725890E-3
3.648278339E0,-1.263537526E0,-1.479777545E-1,-6.642963737E-2
3.657992818E0,-1.333174109E0,-2.799207568E-1,-1.837123185E-1
3.667706568E0,-1.385707021E0,-3.739912212E-1,-2.496838123E-1
3.677419433E0,-1.406475782E0,-4.643966258E-1,-3.327590525E-1
3.687133235E0,-1.306296825E0,-5.169295073E-1,-4.915793240E-1
3.696847766E0,-1.237882018E0,-5.535803437E-1,-5.624375939E-1
3.706561516E0,-1.167023659E0,-6.085565686E-1,-5.392253995E-1
3.716274381E0,-1.121821046E0,-7.026270628E-1,-4.243861437E-1
3.725988183E0,-1.055849433E0,-7.062921524E-1,-4.390464723E-1
3.735702714E0,-9.312366247E-1,-5.987830162E-1,-5.441122055E-1
3.745416360E0,-7.956285477E-1,-4.204156399E-1,-5.172349215E-1
3.755129329E0,-7.162184119E-1,-2.725905776E-1,-3.290939629E-1
3.764843131E0,-6.490252018E-1,-1.870719790E-1,-1.678302884E-1
3.774557610E0,-5.549547076E-1,-9.422318637E-2,-6.398624927E-2
3.784271360E0,-4.474456310E-1,-2.596100792E-3,-5.344913341E-3
3.793984277E0,-3.460449576E-1,8.903098851E-2,4.963133857E-2
3.803698027E0,-2.409792393E-1,1.085781008E-1,1.058292910E-1
3.813412558E0,-1.505738497E-1,6.581879407E-2,1.632489264E-1
3.823126308E0,-6.994201243E-2,1.084253844E-2,1.864611208E-1
3.832839173E0,-6.413896102E-3,-1.847812906E-2,1.791309565E-1
3.842552975E0,5.955760926E-2,-1.603474095E-2,1.498102844E-1
3.852267506E0,1.499630064E-1,4.734066315E-3,1.314848661E-1
3.861981152E0,2.586938143E-1,6.948387623E-2,1.253764033E-1
3.871694120E0,3.710896969E-1,1.404948682E-1,1.033858955E-1
3.881407923E0,4.724903405E-1,2.040229887E-1,6.551336497E-2
3.891122402E0,5.714476109E-1,2.675510943E-1,3.008422814E-2
3.900836152E0,6.667397618E-1,3.005368412E-1,2.031067200E-2
3.910549016E0,7.595885396E-1,2.883199155E-1,1.908897609E-2
3.920262818E0,8.658760190E-1,2.602209449E-1,1.786728203E-2
3.929977350E0,9.562813640E-1,2.687727809E-1,1.175880991E-2
3.939691100E0,1.028361320E0,3.054236174E-1,1.985253533E-3
3.949403964E0,1.091889501E0,3.213056624E-1,-1.511846948E-2
3.959117766E0,1.137092113E0,3.249707520E-1,-1.023169141E-2
3.968832245E0,1.189625025E0,3.151971996E-1,1.542389300E-2
3.978545995E0,1.212989926E0,2.467822880E-1,5.818320066E-2
3.988258912E0,1.227650285E0,8.780929446E-2,1.009425074E-1
3.997972662E0,1.220320106E0,-6.978929788E-2,1.119377613E-1
4.007687193E0,1.214211583E0,-1.797417998E-1,8.872556686E-2
4.017400943E0,1.230093718E0,-2.396048307E-1,6.184828654E-2
4.027113808E0,1.243532300E0,-2.921377122E-1,4.963133857E-2
4.036827610E0,1.272853017E0,-3.788780272E-1,5.573981255E-2
4.046542141E0,1.292400122E0,-4.338542521E-1,7.773031294E-2
4.056255787E0,1.341267824E0,-5.267030597E-1,1.302631795E-1
4.065968756E0,1.393800735E0,-6.109999418E-1,1.473668963E-1
4.075682506E0,1.463437319E0,-6.500942111E-1,1.058292910E-1
4.085397037E0,1.544069171E0,-6.342121959E-1,5.696150661E-2
4.095110787E0,1.607597232E0,-6.281036735E-1,6.872031838E-3
4.104823652E0,1.700446010E0,-6.525375843E-1,-5.176930502E-2
4.114537454E0,1.834832430E0,-7.111788988E-1,-1.067455560E-1
4.124251985E0,1.944784999E0,-7.343910933E-1,-1.458397806E-1
4.133965631E0,2.003426313E0,-6.549809575E-1,-1.666085869E-1
4.143678600E0,2.021751642E0,-6.195518374E-1,-1.531699449E-1
4.153392350E0,2.010756493E0,-6.061131954E-1,-7.742489129E-2
4.163106881E0,1.950893402E0,-5.071559548E-1,2.397575416E-2
4.172820631E0,1.893473744E0,-4.570664763E-1,1.229330078E-1
4.182533495E0,1.876370072E0,-4.424061179E-1,2.047865391E-1
4.192247298E0,1.919129372E0,-3.959817290E-1,2.499892414E-1
4.201961829E0,2.018086672E0,-3.703261614E-1,2.402156889E-1
4.211675475E0,2.134147644E0,-3.984251320E-1,1.693574041E-1
4.221388443E0,2.214779377E0,-3.947600424E-1,7.406523079E-2
4.231102193E0,2.277085781E0,-3.568875194E-1,-1.389677543E-2
4.240816725E0,2.340614080E0,-2.860292196E-1,-6.398624927E-2
4.250530475E0,2.372378111E0,-2.261662036E-1,-4.321744293E-2
4.260243339E0,2.361382723E0,-1.956238300E-1,3.252761811E-2
4.269957141E0,2.356496096E0,-2.041756958E-1,7.650861889E-2
4.279671673E0,2.362604380E0,-1.882936656E-1,6.673506647E-2
4.289385318E0,2.385816574E0,-1.443126649E-1,5.085303262E-2
4.299098287E0,2.466448545E0,-1.186570823E-1,3.985778242E-2
4.308812037E0,2.577622652E0,-5.879404768E-2,-5.344913341E-3
4.318526568E0,2.674136639E0,4.749337584E-2,-9.575030953E-2
4.328240318E0,2.766985416E0,1.661504507E-1,-1.971509457E-1
4.337953183E0,2.829291821E0,2.455606014E-1,-2.912214398E-1
4.347666985E0,2.813409805E0,2.406738251E-1,-3.791834414E-1
4.357381464E0,2.753546715E0,1.490467340E-1,-4.744756222E-1
4.367095214E0,2.713230848E0,-2.092151903E-2,-5.526640415E-1
4.376808131E0,2.719339371E0,-1.919587553E-1,-5.856497884E-1
4.386521881E0,2.720561028E0,-3.544441164E-1,-5.697677732E-1
4.396236412E0,2.672914982E0,-5.438067913E-1,-5.050179958E-1
4.405950162E0,2.591061354E0,-6.476507783E-1,-3.914003670E-1
4.415663027E0,2.506764412E0,-6.794148684E-1,-2.631224692E-1
4.425376829E0,2.423689127E0,-6.818582416E-1,-1.605001241E-1
4.435091308E0,2.324732065E0,-6.940752268E-1,-9.697200358E-2
4.444805058E0,2.231883287E0,-7.649334669E-1,-8.475505561E-2
4.454517923E0,2.148808002E0,-7.930324674E-1,-1.348445266E-1
4.464231725E0,2.077949762E0,-7.710419297E-1,-2.118112892E-1
4.473946256E0,2.011978149E0,-7.527165413E-1,-2.802261710E-1
4.483659902E0,1.946006656E0,-7.246175408E-1,-3.156553209E-1
4.493372870E0,1.894695520E0,-6.977402568E-1,-3.315373361E-1
4.503086620E0,1.851936221E0,-6.977402568E-1,-3.461976945E-1
4.512801152E0,1.828724027E0,-6.867450476E-1,-3.510844707E-1
4.522514902E0,1.787186384E0,-6.403206587E-1,-3.327590525E-1
4.532227766E0,1.713884711E0,-6.281036735E-1,-2.924431264E-1
4.541941568E0,1.632031202E0,-6.378772259E-1,-2.594573796E-1
4.551656100E0,1.557507753E0,-5.963396430E-1,-2.228065431E-1
4.561369745E0,1.492758036E0,-5.352548957E-1,-1.580567211E-1
4.571082714E0,1.428008199E0,-4.973823726E-1,-5.421269313E-2
4.580796464E0,1.340046167E0,-4.326325655E-1,4.596625641E-2
4.590510995E0,1.233758807E0,-3.251234591E-1,1.143811494E-1
4.600224745E0,1.154195905E0,-2.506000996E-1,1.546970755E-1
4.609937610E0,1.119988441E0,-2.005106062E-1,1.742441803E-1
4.619651412E0,1.115101695E0,-9.666658193E-2,1.754658818E-1
4.629365943E0,1.105328083E0,8.658760041E-2,1.632489264E-1
4.639079589E0,1.067455530E0,2.516690791E-1,1.388150454E-1
4.648792558E0,1.019809484E0,2.968717813E-1,8.017370105E-2
4.658506308E0,9.758284688E-1,3.176405728E-1,3.374931216E-2
4.668220839E0,9.501729012E-1,3.591781855E-1,2.153236605E-2
4.677934589E0,9.074136019E-1,4.043808877E-1,4.474456236E-2
4.687647454E0,8.121214509E-1,3.884988427E-1,7.528692484E-2
4.697361256E0,6.215370893E-1,2.846548259E-1,9.239064902E-2
4.707075735E0,3.735330999E-1,1.343863904E-1,6.306997687E-2
4.716789485E0,1.511846930E-1,-2.092151903E-2,1.542389300E-2
4.726502350E0,9.468132630E-3,-1.064401343E-1,-2.977880463E-2
4.736216152E0,-3.695625812E-2,-1.516428292E-1,-7.620319724E-2
4.745930683E0,-4.062134400E-2,-1.931804419E-1,-1.189625040E-1
4.755644329E0,-7.727217674E-2,-2.432699203E-1,-1.458397806E-1
4.765357298E0,-1.688992679E-1,-3.116848171E-1,-1.446180940E-1
4.775071048E0,-2.874036431E-1,-3.691044450E-1,-1.140757278E-1
4.784785579E0,-3.863608837E-1,-4.155288339E-1,-5.909947306E-2
4.794499329E0,-4.376720488E-1,-4.472928941E-1,4.428642802E-3
4.804212193E0,-4.327852726E-1,-4.509579837E-1,5.573981255E-2
4.813925995E0,-3.802524209E-1,-3.813214004E-1,7.406523079E-2
4.823640527E0,-2.959555089E-1,-2.432699203E-1,7.162184268E-2
4.833354173E0,-1.969982386E-1,-5.512896553E-2,6.062658876E-2
4.843067141E0,-9.926267713E-2,1.930277348E-1,3.130592033E-2
4.852780891E0,-2.840439789E-2,4.129327536E-1,2.153236605E-2
4.862495423E0,1.557660475E-2,5.473191738E-1,1.298050396E-2
4.872209173E0,2.168507688E-2,6.071822047E-1,4.428642802E-3
4.881922037E0,4.581354558E-3,5.839699507E-1,1.985253533E-3
4.891635839E0,-2.596100792E-2,4.984513521E-1,1.053711493E-2
4.901350318E0,-7.238540053E-2,4.129327536E-1,2.153236605E-2
4.911064068E0,-1.432436854E-1,3.579564989E-1,2.886253223E-2
4.920776933E0,-2.336490750E-1,3.298575282E-1,2.275406010E-2
4.930490735E0,-3.301629424E-1,3.261924386E-1,-2.901524538E-3
4.940205266E0,-4.303418994E-1,3.017585576E-1,-3.588727489E-2
4.949918912E0,-5.390726924E-1,2.333436459E-1,-7.009471953E-2
4.959631881E0,-6.453601122E-1,1.514901221E-1,-8.719844371E-2
4.969345631E0,-7.406523228E-1,6.826218218E-2,-8.353336155E-2
4.979060162E0,-8.127322793E-1,-7.482878864E-3,-6.765133142E-2
4.988773912E0,-8.506048322E-1,-7.345438004E-2,-4.566083103E-2
4.998486777E0,-8.713735938E-1,-1.052184403E-1,-9.009997360E-3
5.008200579E0,-9.177979827E-1,-8.933641016E-2,4.840964451E-2
5.017915110E0,-9.972081780E-1,-4.413371533E-2,1.156028435E-1
5.027628756E0,-1.113269091E0,-6.612421572E-2,1.632489264E-1
5.037341725E0,-1.215891480E0,-2.579302490E-1,1.388150454E-1
5.047055475E0,-1.268424392E0,-5.792359114E-1,9.605573118E-2
5.056770006E0,-1.307518601E0,-9.103151560E-1,8.261708915E-2
5.066483756E0,-1.357608080E0,-1.138772011E0,9.727742523E-2
5.076196620E0,-1.434574842E0,-1.236507535E0,1.388150454E-1
5.085910423E0,-1.549414039E0,-1.227955699E0,1.962346882E-1
5.095624902E0,-1.731446505E0,-1.137550354E0,2.658712566E-1
5.105338652E0,-1.978228807E0,-1.087460876E0,3.087832928E-1
5.115051568E0,-2.247001648E0,-1.130220175E0,3.210002482E-1
5.124765318E0,-2.491340637E0,-1.202300072E0,3.381039500E-1
5.134479850E0,-2.652604103E0,-1.287818789E0,3.600944579E-1
5.144193495E0,-2.685590029E0,-1.328134656E0,3.527642787E-1
5.153906464E0,-2.574415684E0,-1.221847177E0,3.454341292E-1
5.163620214E0,-2.393604994E0,-9.347490072E-1,3.869717419E-1
5.173334745E0,-2.227454424E0,-5.071559548E-1,4.895940721E-1
5.183048495E0,-2.183473587E0,-2.947338112E-2,6.447492838E-1
5.192761360E0,-2.299534559E0,3.323009014E-1,7.999044657E-1
5.202475162E0,-2.476680279E0,4.312581718E-1,9.257390499E-1
5.212189693E0,-2.584189415E0,3.323009014E-1,9.147437811E-1
5.221903339E0,-2.564642191E0,2.968717813E-1,7.620319724E-1
5.231616308E0,-2.441251040E0,3.897205591E-1,5.262449384E-1
5.241330058E0,-2.261662006E0,5.045598149E-1,3.710896969E-1
5.251044589E0,-2.128497362E0,6.279509664E-1,3.515425920E-1
5.260758339E0,-2.150487661E0,7.941014171E-1,4.566083252E-1
5.270471204E0,-2.323968410E0,1.087308168E0,6.410841942E-1
5.280185006E0,-2.563420534E0,1.488023877E0,8.487722874E-1
5.289899485E0,-2.780882120E0,1.885074615E0,1.076007485E0
5.299613235E0,-2.851740360E0,2.191720009E0,1.248266339E0
5.309326100E0,-2.717354059E0,2.333436489E0,1.272700310E0
5.319039902E0,-2.488897085E0,2.200271845E0,1.172521353E0
5.328754433E0,-2.261662006E0,1.984031916E0,9.868237376E-1
5.338468079E0,-2.069855928E0,1.832541823E0,7.632536292E-1
5.348181048E0,-1.995332599E0,1.725032687E0,5.726693273E-1
5.357894798E0,-2.053973913E0,1.668834686E0,4.883723855E-1
5.367609329E0,-2.115058661E0,1.528339863E0,4.981459379E-1
5.377322975E0,-2.089403152E0,1.294996142E0,4.834856093E-1
5.387035943E0,-1.974563718E0,1.092194915E0,3.686463237E-1
5.396749745E0,-1.819408536E0,1.000567794E0,1.498102844E-1
5.406464225E0,-1.770540833E0,9.981244206E-1,-8.719844371E-2
5.416177975E0,-1.898818731E0,9.138274789E-1,-2.325800955E-1
5.425890839E0,-2.089403152E0,6.328377724E-1,-2.704526186E-1
5.435604641E0,-2.248223305E0,3.603998721E-1,-2.374668717E-1
5.445319173E0,-2.272657156E0,1.171299592E-1,-1.739387512E-1
5.455032818E0,-2.190803766E0,-4.413371533E-2,-1.189625040E-1
5.464745787E0,-2.101619959E0,-7.589777559E-2,-1.055238619E-1
5.474459537E0,-2.027096510E0,1.817270555E-2,-1.055238619E-1
5.484174068E0,-1.961125135E0,1.380514801E-1,-7.986827940E-2
5.493887714E0,-1.880493283E0,2.699944973E-1,-3.222219273E-2
5.503600683E0,-1.798639774E0,4.202629030E-1,3.374931216E-2
5.513314433E0,-1.759545565E0,5.949652195E-1,1.046075895E-1
5.523028964E0,-1.715564489E0,7.672241330E-1,1.840177327E-1
5.532742714E0,-1.609277129E0,8.576295376E-1,2.463241518E-1
5.542455579E0,-1.454121947E0,8.429692388E-1,2.353289127E-1
5.552169381E0,-1.294079900E0,8.625163436E-1,1.473668963E-1
5.561883860E0,-1.135259628E0,9.077190161E-1,5.650337320E-3
5.571597610E0,-9.959864616E-1,9.675820470E-1,-1.397313178E-1
5.581310475E0,-9.483403563E-1,9.981244206E-1,-2.240282297E-1
5.591024277E0,-1.011868477E0,9.321529269E-1,-1.898207814E-1
5.600738808E0,-1.112047434E0,8.307522535E-1,-9.697200358E-2
5.610452454E0,-1.287971497E0,6.914790869E-1,6.673506647E-2
5.620165423E0,-1.410140872E0,6.523848772E-1,2.646495700E-1
5.629879173E0,-1.384485364E0,7.904363275E-1,4.187358022E-1
5.639593704E0,-1.329509020E0,8.454126120E-1,5.079194903E-1
5.649307454E0,-1.333174109E0,7.317950130E-1,5.079194903E-1
5.659020318E0,-1.413805962E0,5.558710098E-1,4.297310412E-1
5.668734068E0,-1.507876515E0,3.103103936E-1,4.016320705E-1
5.678448600E0,-1.524980187E0,1.637070626E-1,2.585411072E-1
5.688162350E0,-1.463895440E0,1.514901221E-1,8.139539510E-2
5.697875214E0,-1.422357798E0,1.036913246E-1,4.718795046E-2
5.707589016E0,-1.382041931E0,8.399149403E-3,9.727742523E-2
5.717303495E0,-1.309961915E0,-6.612421572E-2,1.143811494E-1
5.727017245E0,-1.217113137E0,-1.724116355E-1,1.852394342E-1
5.736730110E0,-1.093721986E0,-2.347180545E-1,2.487675399E-1
5.746443912E0,-1.003316641E0,-2.273878902E-1,2.487675399E-1
5.756158443E0,-9.202414155E-1,-2.383831441E-1,2.011214644E-1
5.765872089E0,-8.359444737E-1,-2.493783981E-1,1.449235082E-1
5.775585058E0,-7.663078904E-1,-2.408265322E-1,1.290414780E-1
5.785298808E0,-6.624638438E-1,-1.650814712E-1,1.033858955E-1
5.795013339E0,-5.610632300E-1,-8.567132801E-2,6.184828654E-2
5.804726985E0,-4.608842432E-1,5.955760833E-3,1.420219894E-2
5.814439954E0,-3.240544796E-1,1.466033459E-1,-5.299099907E-2
5.824153704E0,-2.104368806E-1,2.076880634E-1,-1.238492802E-1
5.833868235E0,-1.053711548E-1,2.235700935E-1,-1.776038408E-1
5.843581985E0,-8.857285604E-3,2.663294077E-1,-2.081461996E-1
5.853294850E0,7.788302749E-2,2.675510943E-1,-2.142546773E-1
5.863008652E0,1.841704547E-1,2.858765125E-1,-2.240282297E-1
5.872723131E0,3.038965166E-1,3.371876776E-1,-2.484621257E-1
5.882436881E0,3.979669809E-1,3.494046330E-1,-2.655658424E-1
5.892149745E0,4.761554301E-1,3.518480062E-1,-2.594573796E-1
5.901863548E0,5.690042377E-1,3.836120665E-1,-2.460187376E-1
5.911578027E0,6.667397618E-1,4.117110670E-1,-2.338017821E-1
5.921291777E0,7.705838084E-1,4.569137394E-1,-2.130329758E-1
5.931004641E0,8.768712282E-1,5.289937258E-1,-1.910424829E-1
5.940718443E0,9.538379908E-1,5.338805318E-1,-1.678302884E-1
5.950432975E0,1.007592559E0,4.752391577E-1,-1.104106456E-1
5.960146620E0,1.073564053E0,3.530697227E-1,-4.199574888E-2
5.969859589E0,1.111436605E0,2.345653474E-1,-2.901524538E-3
5.979573339E0,1.168856263E0,1.685938388E-1,4.428642802E-3
5.989287870E0,1.243532300E0,1.710372269E-1,7.635590737E-4
5.999001516E0,1.278961420E0,1.759240031E-1,-5.344913341E-3
6.008714485E0,1.272853017E0,1.256818175E-1,-2.367033064E-2
6.018428235E0,1.289956689E0,4.138490185E-2,-2.977880463E-2
6.028142766E0,1.310725451E0,-4.413371533E-2,-1.267508045E-2
6.037856412E0,1.338824511E0,-1.052184403E-1,2.886253223E-2
6.047569381E0,1.353484869E0,-1.577513069E-1,8.017370105E-2
6.057283131E0,1.373031974E0,-2.273878902E-1,1.424801201E-1
6.066997662E0,1.446333647E0,-2.982461751E-1,2.377723008E-1
6.076711308E0,1.547734261E0,-2.554868758E-1,3.295520842E-1
6.086424277E0,1.636917949E0,-1.834068894E-1,4.028537571E-1
6.096138027E0,1.706554532E0,-3.239017725E-1,3.955236077E-1
6.105852558E0,1.688229084E0,-6.500942111E-1,3.222219348E-1
6.115566308E0,1.673568726E0,-8.785510659E-1,2.243336588E-1
6.125279173E0,1.772526026E0,-8.980981708E-1,1.827960461E-1
6.134992923E0,1.895917177E0,-8.809944391E-1,2.218902707E-1
6.144707454E0,1.980214119E0,-8.357917666E-1,2.634278834E-1
6.154421204E0,2.073062897E0,-7.246175408E-1,2.084516287E-1
6.164134068E0,2.150029659E0,-5.719057322E-1,1.542389300E-2
6.173847870E0,2.131704330E0,-5.657972693E-1,-2.069245130E-1
6.183562350E0,2.038855553E0,-7.172874212E-1,-2.899997234E-1
6.193276100E0,2.026638508E0,-8.296833038E-1,-2.301367074E-1
6.202988964E0,2.097496748E0,-7.857022882E-1,-1.605001241E-1
6.212702766E0,2.162246466E0,-6.623111367E-1,-1.446180940E-1
6.222417245E0,2.187902212E0,-6.415423155E-1,-1.421747059E-1
6.232130995E0,2.222109556E0,-6.867450476E-1,-1.116323397E-1
6.241843860E0,2.266090631E0,-6.073349118E-1,-1.152974218E-1
6.251557662E0,2.278307676E0,-5.010474920E-1,-1.824906170E-1
6.261272141E0,2.209892750E0,-4.851654470E-1,-2.142546773E-1
6.270985891E0,2.121930599E0,-6.036698222E-1,-1.104106456E-1
6.280698756E0,2.141477823E0,-6.989619732E-1,3.985778242E-2
6.290412558E0,2.274642467E0,-6.134433746E-1,1.473668963E-1
6.300127037E0,2.427354336E0,-4.729484916E-1,7.528692484E-2
6.309840787E0,2.526311636E0,-4.778352678E-1,-1.678302884E-1
6.319553652E0,2.564184189E0,-6.452074051E-1,-4.830274582E-1
6.329267454E0,2.582509518E0,-8.406785131E-1,-7.456917763E-1
6.338981933E0,2.547080278E0,-9.481876493E-1,-8.299887180E-1
6.348695683E0,2.459118366E0,-1.014159203E0,-6.613948941E-1
6.358408548E0,2.402920485E0,-9.982771277E-1,-4.439332485E-1
6.368122350E0,2.345500708E0,-9.787300229E-1,-3.205420971E-1
6.377836829E0,2.263647318E0,-1.043479800E0,-2.594573796E-1
6.387550579E0,2.208671093E0,-1.100899458E0,-2.399102598E-1
6.397263443E0,2.274642467E0,-1.083795786E0,-2.411319613E-1
6.406977245E0,2.473778725E0,-8.993198872E-1,-3.449759781E-1
6.416691725E0,2.683910131E0,-7.918107510E-1,-5.001311898E-1
6.426405475E0,2.843952179E0,-8.101361990E-1,-6.308525205E-1
6.436118339E0,2.828070164E0,-9.481876493E-1,-6.675033569E-1
6.445832141E0,2.630155563E0,-1.031262875E0,-6.161921620E-1
6.455546620E0,2.442014694E0,-1.049588323E0,-5.477772951E-1
6.465260370E0,2.385816574E0,-1.034927964E0,-4.500417113E-1
6.474973235E0,2.393146753E0,-1.008050680E0,-3.547495604E-1
6.484687037E0,2.421245813E0,-9.384140968E-1,-3.290939629E-1
6.494401516E0,2.446901321E0,-7.918107510E-1,-3.559712470E-1
6.504115266E0,2.426132679E0,-6.757497787E-1,-3.559712470E-1
6.513828131E0,2.317401886E0,-6.671979427E-1,-3.437542915E-1
6.523541881E0,2.119487286E0,-7.918107510E-1,-3.009949923E-1
6.533256412E0,1.937454820E0,-9.396358132E-1,-2.606790662E-1
6.542970162E0,1.826280594E0,-9.701781869E-1,-2.606790662E-1
6.552683027E0,1.773747683E0,-9.152019024E-1,-2.521272004E-1
6.562396777E0,1.748092175E0,-8.138012886E-1,-2.411319613E-1
6.572111308E0,1.662573576E0,-7.062921524E-1,-1.727170646E-1
6.581824954E0,1.504974961E0,-5.645755529E-1,-9.941539168E-2
6.591537923E0,1.320499063E0,-4.472928941E-1,-2.122694254E-2
6.601251673E0,1.144422293E0,-3.910949528E-1,1.278197914E-1
6.610966204E0,1.061347127E0,-2.958027720E-1,2.658712566E-1
6.620679850E0,1.066233873E0,-2.628170252E-1,4.101839364E-1
6.630392818E0,1.054016948E0,-3.019112647E-1,5.201364160E-1
6.640106568E0,9.880454540E-1,-3.593308926E-1,5.433486104E-1
6.649821100E0,9.294040799E-1,-2.786990702E-1,4.798205197E-1
6.659534745E0,9.159654379E-1,-7.101099193E-2,3.368822634E-1
6.669247714E0,9.342908859E-1,1.685938388E-1,1.644706279E-1
6.678961464E0,9.147437811E-1,3.310792148E-1,-3.222219273E-2
6.688675995E0,7.962393761E-1,3.457395434E-1,-2.301367074E-1
6.698389641E0,5.836645365E-1,2.455606014E-1,-3.706315756E-1
6.708102610E0,3.381039500E-1,8.292251825E-2,-3.742966652E-1
6.717816360E0,1.181989461E-1,-5.146388337E-2,-2.704526186E-1
6.727530891E0,-5.894676223E-2,-1.284306347E-1,-1.128540337E-1
6.737244537E0,-1.835595965E-1,-1.785201132E-1,3.130592033E-2
6.746957454E0,-2.226538211E-1,-2.286095917E-1,1.094943732E-1
6.756671256E0,-2.092151791E-1,-1.968455315E-1,1.168245375E-1
6.766385735E0,-1.774511337E-1,-1.382041872E-1,9.605573118E-2
6.776099485E0,-1.224748790E-1,-1.296523362E-1,7.650861889E-2
6.785812350E0,-5.405998230E-2,1.068982761E-3,3.206948051E-3
6.795526152E0,1.313321572E-2,1.441599578E-1,-7.742489129E-2
6.805240631E0,6.688777357E-2,2.382304370E-1,-1.177408099E-1
6.814954381E0,8.765657991E-2,2.638860047E-1,-1.372879148E-1
6.824667245E0,9.009996802E-2,2.296785712E-1,-1.470614821E-1
6.834380995E0,8.032641560E-2,1.783674061E-1,-1.311794519E-1
6.844095527E0,4.856235534E-2,1.514901221E-1,-1.018587798E-1
6.853809277E0,-1.130067464E-2,1.588202864E-1,-7.498150319E-2
6.863522141E0,-9.437590092E-2,1.722589284E-1,-2.855710872E-2
6.873235891E0,-1.750077456E-1,1.624853760E-1,1.985253533E-3
6.882950423E0,-2.434226274E-1,1.330119967E-1,5.650337320E-3
6.892664068E0,-3.008422852E-1,9.758284688E-2,-6.566607859E-3
6.902377037E0,-3.448232710E-1,9.880454093E-2,-2.122694254E-2
6.912090787E0,-3.558185399E-1,1.466033459E-1,-4.199574888E-2
6.921805318E0,-3.472666740E-1,1.759240031E-1,-5.299099907E-2
6.931518964E0,-3.509317636E-1,1.698155403E-1,-4.199574888E-2
6.941231881E0,-3.741439581E-1,1.649287641E-1,-2.244863659E-2
6.950945683E0,-3.949127495E-1,1.183516532E-1,8.093725890E-3
6.960660162E0,-4.169032574E-1,1.939439960E-2,3.619270027E-2
6.970373912E0,-4.559974670E-1,-7.834116369E-2,4.963133857E-2
6.980086777E0,-5.085303187E-1,-1.663031727E-1,6.306997687E-2
6.989800579E0,-5.500679612E-1,-1.858502775E-1,8.139539510E-2
6.999515058E0,-5.757235289E-1,-1.467560530E-1,9.239064902E-2
7.009228808E0,-5.854970813E-1,-1.076618284E-1,1.094943732E-1
7.018941673E0,-6.074876189E-1,-2.947338112E-2,1.131594554E-1
7.028655423E0,-6.710157394E-1,4.504998401E-2,1.094943732E-1
7.038369954E0,-7.846332788E-1,6.093201414E-2,1.094943732E-1
7.048083600E0,-9.275715351E-1,1.084253844E-2,1.156028435E-1
7.057796568E0,-1.064401388E0,-9.666658193E-2,1.229330078E-1
7.067510318E0,-1.206117868E0,-1.797417998E-1,1.388150454E-1
7.077224850E0,-1.382041931E0,-2.237228155E-1,1.742441803E-1
7.086938495E0,-1.583621502E0,-2.579302490E-1,2.255553454E-1
7.096651412E0,-1.760767221E0,-2.347180545E-1,2.745758295E-1
7.106365214E0,-1.902483821E0,-8.322793990E-2,3.063398898E-1
7.116079745E0,-2.034426689E0,1.417165697E-1,3.063398898E-1
7.125793391E0,-2.156596184E0,3.139754832E-1,2.353289127E-1
7.135506308E0,-2.260440350E0,3.310792148E-1,1.107160673E-1
7.145220110E0,-2.326411724E0,2.162399292E-1,-3.344388679E-2
7.154934589E0,-2.347180605E0,8.047912270E-2,-1.678302884E-1
7.164648339E0,-2.339850426E0,7.559234649E-2,-2.154763639E-1
7.174361204E0,-2.319081545E0,2.541124523E-1,-1.165191159E-1
7.184074954E0,-2.301977873E0,4.508052766E-1,7.406523079E-2
7.193789485E0,-2.260440350E0,5.302154422E-1,3.051182032E-1
7.203503131E0,-2.170034885E0,5.485408306E-1,4.957025647E-1
7.213216100E0,-2.068634272E0,6.255075932E-1,5.751127005E-1
7.222929850E0,-2.020988226E0,8.246437907E-1,5.140279531E-1
7.232644381E0,-2.088181257E0,1.169161677E0,3.943018913E-1
7.242358027E0,-2.193247080E0,1.417165637E0,3.307738006E-1
7.252070943E0,-2.211572409E0,1.486802220E0,2.243336588E-1
7.261784745E0,-2.207907438E0,1.455038190E0,1.542389300E-2
7.271499225E0,-2.266548872E0,1.309656501E0,-1.409530044E-1
7.281212975E0,-2.316638231E0,1.164274931E0,-1.641651988E-1
7.290925839E0,-2.249444962E0,1.105633497E0,-5.054761097E-2
7.300639589E0,-2.077186108E0,1.133732557E0,1.681357026E-1
7.310354120E0,-1.858502746E0,1.238798261E0,4.040754735E-1
7.320067766E0,-1.758323789E0,1.348750710E0,5.775560737E-1
7.329780735E0,-1.805969954E0,1.346307397E0,6.484143734E-1
7.339494485E0,-1.841399074E0,1.220472813E0,5.506787896E-1
7.349209016E0,-1.864611268E0,1.106855273E0,3.173351586E-1
7.358922662E0,-1.901262045E0,9.455915689E-1,4.107947648E-2
7.368635579E0,-1.931804419E0,7.098045349E-1,-1.885990947E-1
7.378349381E0,-1.998997688E0,5.900784731E-1,-3.009949923E-1
7.388063860E0,-2.036870241E0,6.145123243E-1,-3.254288733E-1
7.397777610E0,-2.016101360E0,6.780404449E-1,-2.851129472E-1
7.407490475E0,-2.019766569E0,7.941014171E-1,-2.350234836E-1
7.417204225E0,-2.039313555E0,8.197570443E-1,-2.228065431E-1
7.426918756E0,-2.066190958E0,6.927008033E-1,-2.338017821E-1
7.436632402E0,-2.112615347E0,5.070032477E-1,-2.301367074E-1
7.446345370E0,-2.130940676E0,2.993151546E-1,-2.069245130E-1
7.456059120E0,-2.139492512E0,1.575985998E-1,-1.360662282E-1
7.465773652E0,-2.146822691E0,1.539335102E-1,-2.367033064E-2
7.475487298E0,-2.124832153E0,3.213056624E-1,1.290414780E-1
7.485200214E0,-2.041756868E0,5.351021886E-1,2.953446507E-1
7.494914016E0,-1.970898628E0,4.569137394E-1,4.040754735E-1
7.504628495E0,-2.018544674E0,1.061347127E-1,4.211791754E-1
7.514342245E0,-2.119945526E0,-1.846285909E-1,3.979669809E-1
7.524055110E0,-2.161483049E0,-2.762556672E-1,3.881934285E-1
7.533768860E0,-2.072299242E0,-2.334963679E-1,4.382829070E-1
7.543483391E0,-1.924474239E0,-5.879404768E-2,5.274665952E-1
7.553197037E0,-1.857281089E0,3.283303976E-2,5.983248949E-1
7.562909954E0,-1.906148911E0,-1.088835225E-1,5.897729993E-1
7.572623756E0,-2.011214495E0,-4.448495209E-1,4.834856093E-1
7.582338235E0,-2.129719019E0,-8.846595287E-1,2.867927849E-1
7.592051985E0,-2.239671469E0,-1.165649295E0,7.040014863E-2
7.601764850E0,-2.289761066E0,-1.231620789E0,-2.977880463E-2
7.611478600E0,-2.204242229E0,-1.042258143E0,-1.145338640E-2
7.621193131E0,-2.023431540E0,-6.097782850E-1,6.062658876E-2
7.630906777E0,-1.882936716E0,-3.629959822E-1,1.779092699E-1
7.640619693E0,-1.816965222E0,-3.251234591E-1,3.014531136E-1
7.650333495E0,-1.737555027E0,-2.066190839E-1,3.869717419E-1
7.660047975E0,-1.665475011E0,-1.527118147E-4,4.370612204E-1
7.669761725E0,-1.598281860E0,1.343863904E-1,4.346178174E-1
7.679474589E0,-1.523758531E0,2.028012872E-1,3.991886973E-1
7.689188391E0,-1.419914484E0,2.675510943E-1,3.417690396E-1
7.698902870E0,-1.350277901E0,2.174616307E-1,2.672456801E-1
7.708616516E0,-1.329509020E0,8.903098851E-2,1.950129867E-1
7.718329485E0,-1.302631736E0,-6.612421572E-2,1.510319859E-1
7.728043235E0,-1.290414810E0,-1.345391124E-1,9.361234307E-2
7.737757766E0,-1.219556570E0,-7.467607409E-2,3.985778242E-2
7.747471412E0,-1.132816195E0,-6.490252167E-2,1.985253533E-3
7.757184329E0,-1.049741030E0,-8.322793990E-2,-2.244863659E-2
7.766898131E0,-1.004538298E0,-2.053973973E-1,4.428642802E-3
7.776612610E0,-9.495620728E-1,-2.567085624E-1,5.085303262E-2
7.786326256E0,-9.006943107E-1,-2.396048307E-1,1.082726792E-1
7.796039225E0,-8.066238165E-1,-1.479777545E-1,1.351499557E-1
7.805752975E0,-7.003363967E-1,-6.856760383E-2,1.314848661E-1
7.815467506E0,-6.074876189E-1,-3.924693540E-2,1.192679256E-1
7.825181152E0,-5.292991400E-1,-9.055810422E-2,1.082726792E-1
7.834894068E0,-4.535540938E-1,-1.259872466E-1,7.650861889E-2
7.844607870E0,-3.936910629E-1,-1.760767251E-1,2.519745007E-2
7.854322350E0,-3.057290614E-1,-2.212794125E-1,-3.710897267E-2
7.864036100E0,-2.336490750E-1,-2.469350100E-1,-7.131642103E-2
7.873748964E0,-1.310267299E-1,-2.041756958E-1,-7.986827940E-2
7.883462714E0,-3.054236295E-4,-1.736333370E-1,-9.086353332E-2
7.893177245E0,1.230857223E-1,-1.247655526E-1,-1.091889441E-1
7.902890891E0,2.305948436E-1,-8.811471611E-2,-1.104106456E-1
7.912603808E0,3.063398898E-1,-4.779879749E-2,-9.330692142E-2
7.922317610E0,3.930802047E-1,-5.039489828E-3,-7.986827940E-2
7.932032089E0,4.773771465E-1,1.206423342E-2,-8.842013776E-2
7.941745839E0,5.323534012E-1,8.399149403E-3,-1.128540337E-1
7.951458704E0,5.812211633E-1,-3.817795310E-3,-1.409530044E-1
7.961172454E0,6.423059106E-1,-7.482878864E-3,-1.812689304E-1
7.970886985E0,7.168292403E-1,-1.114796288E-2,-2.350234836E-1
7.980600631E0,8.267817497E-1,-2.596100792E-3,-2.961082160E-1
7.990313548E0,9.098569751E-1,8.536590636E-2,-3.376458287E-1
8.000027350E0,9.978190064E-1,1.832541823E-1,-3.449759781E-1
8.009741829E0,1.076007485E0,2.968717813E-1,-3.388675153E-1
8.019455579E0,1.161526084E0,3.787252903E-1,-3.474193811E-1
8.029168443E0,1.249640822E0,4.043808877E-1,-3.657447994E-1
8.038882193E0,1.302173615E0,4.385883212E-1,-3.804051280E-1
8.048596725E0,1.363258362E0,4.483618736E-1,-3.938437700E-1
8.058310370E0,1.395022392E0,4.569137394E-1,-3.804051280E-1
8.068023287E0,1.440225124E0,4.410317242E-1,-3.474193811E-1
8.077737089E0,1.492758036E0,3.555130959E-1,-3.217637837E-1
8.087451568E0,1.515970230E0,2.736595869E-1,-3.058817685E-1
8.097165318E0,1.536738992E0,1.856975704E-1,-2.838912606E-1
8.106878183E0,1.509861708E0,7.314895838E-2,-2.533488870E-1
8.116591933E0,1.478097677E0,-3.924693540E-2,-2.215848416E-1
8.126306464E0,1.452442050E0,-1.577513069E-1,-1.397313178E-1
8.136020110E0,1.443890214E0,-2.848075330E-1,-1.389677543E-2
8.145733027E0,1.458550572E0,-3.568875194E-1,1.327065676E-1
8.155446829E0,1.486649513E0,-4.546230733E-1,2.770192325E-1
8.165161308E0,1.523300409E0,-6.476507783E-1,3.820849657E-1
8.174874954E0,1.612484097E0,-8.809944391E-1,3.833066523E-1
8.184587923E0,1.655243397E0,-1.114338160E0,3.148917556E-1
8.194301673E0,1.651578307E0,-1.089904189E0,2.316638231E-1
8.204016204E0,1.712663054E0,-9.152019024E-1,2.072299272E-1
8.213729850E0,1.894695520E0,-8.101361990E-1,2.292204350E-1
8.223442766E0,2.109713793E0,-8.247964978E-1,2.609844804E-1
8.233156516E0,2.252651930E0,-8.577822447E-1,2.867927849E-1
8.242871048E0,2.330840349E0,-8.150229454E-1,2.831276953E-1
8.252584693E0,2.368712902E0,-7.404996157E-1,2.560977042E-1
8.262297662E0,2.383373260E0,-6.281036735E-1,2.108950168E-1
8.272011412E0,2.421245813E0,-5.022691488E-1,1.217113137E-1
8.281725891E0,2.456675053E0,-3.898732662E-1,2.886253223E-2
8.291439641E0,2.484773874E0,-3.507790267E-1,-7.131642103E-2
8.301152506E0,2.538528442E0,-3.507790267E-1,-1.898207814E-1
8.310866256E0,2.625268698E0,-2.725905776E-1,-2.838912606E-1
8.320580787E0,2.697348833E0,-1.650814712E-1,-3.400892019E-1
8.330294433E0,2.723004341E0,-4.413371533E-2,-3.791834414E-1
8.340007350E0,2.692461967E0,6.704048812E-2,-4.158342779E-1
8.349721152E0,2.653367758E0,1.244601309E-1,-4.451549351E-1
8.359435631E0,2.632598877E0,1.771457046E-1,-4.756973088E-1
8.369149277E0,2.642372608E0,2.480039895E-1,-4.708105326E-1
8.378862245E0,2.664363146E0,3.078670204E-1,-4.304946065E-1
8.388575995E0,2.698570490E0,3.029802442E-1,-3.901786804E-1
8.398290527E0,2.725447655E0,2.394521236E-1,-3.742966652E-1
8.408004173E0,2.707122326E0,1.637070626E-1,-3.755183518E-1
8.417717089E0,2.675358295E0,9.147437662E-2,-3.816268146E-1
8.427430839E0,2.697348833E0,-1.603474095E-2,-4.121691883E-1
8.437145370E0,2.779202223E0,-1.259872466E-1,-4.475983381E-1
8.446859016E0,2.872051001E0,-2.273878902E-1,-4.781406820E-1
8.456571933E0,2.925805569E0,-3.202366829E-1,-5.123481154E-1
8.466285735E0,2.906258583E0,-3.727695346E-1,-5.514423847E-1
8.476000214E0,2.829291821E0,-3.898732662E-1,-6.088619828E-1
8.485713964E0,2.752325058E0,-4.424061179E-1,-6.687250137E-1
8.495426829E0,2.704679012E0,-5.511369109E-1,-7.029324770E-1
8.505140579E0,2.682688475E0,-6.635328531E-1,-6.540647149E-1
8.514855110E0,2.681466818E0,-7.343910933E-1,-5.551074743E-1
8.524568756E0,2.676579952E0,-8.015843034E-1,-4.781406820E-1
8.534281673E0,2.602056503E0,-9.323056340E-1,-4.524851143E-1
8.543995423E0,2.455453157E0,-1.044701576E0,-4.647020400E-1
8.553709954E0,2.291746140E0,-1.107007980E0,-4.671454430E-1
8.563423600E0,2.124374151E0,-1.161984205E0,-4.207210541E-1
8.573136516E0,1.957001925E0,-1.171757698E0,-3.303156495E-1
8.582850318E0,1.795738220E0,-1.111894727E0,-2.008160353E-1
8.592564798E0,1.682120681E0,-1.110673070E0,-4.810422286E-2
8.602278548E0,1.624701023E0,-1.163205862E0,6.673506647E-2
8.611991412E0,1.588050127E0,-1.158319116E0,1.327065676E-1
8.621705162E0,1.557507753E0,-1.043479800E0,1.876828223E-1
8.631419693E0,1.528187156E0,-8.724426031E-1,2.402156889E-1
8.641133339E0,1.464658976E0,-6.806365848E-1,3.075616062E-1
8.650846256E0,1.357149839E0,-5.010474920E-1,3.539859951E-1
8.660560006E0,1.247197390E0,-3.532224298E-1,3.613161445E-1
8.670274537E0,1.156639338E0,-2.469350100E-1,3.368822634E-1
8.679988183E0,1.058903694E0,-1.785201132E-1,3.051182032E-1
8.689701100E0,9.403993487E-1,-1.455343664E-1,2.733541429E-1
8.699414902E0,8.353336453E-1,-1.418692768E-1,2.377723008E-1
8.709129381E0,7.156075835E-1,-7.345438004E-2,1.730224788E-1
8.718843027E0,6.447492838E-1,-3.817795310E-3,8.872556686E-2
8.728555995E0,6.190937161E-1,6.704048812E-2,-2.122694254E-2
8.738269745E0,5.995466113E-1,9.636115283E-2,-1.324011385E-1
8.747984225E0,5.494571328E-1,7.681404054E-2,-1.995943487E-1
8.757697975E0,4.553866386E-1,4.504998401E-2,-2.203631550E-1
8.767410839E0,3.307738006E-1,1.068982761E-3,-2.057028115E-1
8.777124589E0,1.939440072E-1,-3.802524135E-2,-1.605001241E-1
8.786839120E0,8.154810965E-2,-4.169032723E-2,-1.226275861E-1
8.796552766E0,3.268032894E-2,-2.702999115E-2,-7.620319724E-2
8.806265683E0,2.901524492E-2,-1.481304597E-2,-2.977880463E-2
8.815979433E0,4.856235534E-2,1.450762246E-2,2.764083818E-2
8.825693964E0,5.955760926E-2,4.504998401E-2,8.750387281E-2
8.835407610E0,5.222744122E-2,7.925742865E-2,1.278197914E-1
8.845120527E0,2.901524492E-2,1.269035190E-1,1.498102844E-1
8.854834329E0,-1.863084175E-2,1.759240031E-1,1.595838517E-1
8.864548808E0,-6.994201243E-2,2.101314515E-1,1.400367320E-1
8.874262558E0,-1.200314835E-1,2.504473627E-1,1.021642014E-1
8.883975423E0,-1.530172378E-1,2.919849753E-1,5.451811850E-2
8.893689173E0,-1.762294322E-1,3.188622594E-1,-1.679830020E-3
8.903403652E0,-1.969982386E-1,3.323009014E-1,-6.276455522E-2
8.913117402E0,-2.189887464E-1,3.518480062E-1,-1.226275861E-1
8.922830266E0,-2.141019702E-1,3.738385141E-1,-1.690519750E-1
8.932544016E0,-1.921114624E-1,3.836120665E-1,-1.971509457E-1
8.942258548E0,-1.774511337E-1,3.909422457E-1,-2.093679011E-1
8.951972193E0,-1.798945218E-1,4.056025743E-1,-2.069245130E-1
8.961685110E0,-2.055501044E-1,4.092676640E-1,-1.922641695E-1
8.971398860E0,-2.385358512E-1,3.713951409E-1,-1.763821393E-1
8.981113391E0,-2.800734639E-1,3.188622594E-1,-1.519482583E-1
8.990827037E0,-3.191677034E-1,2.651077211E-1,-1.250709742E-1
9.000539954E0,-3.057290614E-1,1.856975704E-1,-9.330692142E-2
9.010253756E0,-2.666348219E-1,8.536590636E-2,-5.787777901E-2
9.019968235E0,-2.544178963E-1,-3.680354729E-2,-3.344388679E-2
9.029681881E0,-2.861819267E-1,-1.699682474E-1,-2.489202656E-2
9.039394850E0,-3.558185399E-1,-2.652604282E-1,-2.122694254E-2
9.049108600E0,-4.376720488E-1,-3.471139669E-1,-5.344913341E-3
9.058823079E0,-5.060869455E-1,-4.033119082E-1,2.641914412E-2
9.068536829E0,-5.671716928E-1,-4.191939235E-1,6.429167092E-2
9.078249693E0,-6.502469182E-1,-4.924955964E-1,7.650861889E-2
9.087963443E0,-7.565343380E-1,-6.684195995E-1,4.596625641E-2
9.097677923E0,-8.970292211E-1,-8.235748410E-1,-1.145338640E-2
9.107391673E0,-1.075396657E0,-8.516737819E-1,-4.932591692E-2
9.117104537E0,-1.247655511E0,-7.710419297E-1,-4.688252881E-2
9.126818287E0,-1.371046662E0,-6.256603003E-1,-3.100049868E-2
9.136532818E0,-1.445569992E0,-4.692834020E-1,-2.122694254E-2
9.146246464E0,-1.490772724E0,-3.446705639E-1,-1.634016447E-2
9.155959381E0,-1.532310367E0,-3.104631305E-1,-1.878355257E-2
9.165673131E0,-1.595838428E0,-3.287885487E-1,-5.344913341E-3
9.175387662E0,-1.703347564E0,-3.300102353E-1,5.696150661E-2
9.185101308E0,-1.843842506E0,-2.933593988E-1,1.437018216E-1
9.194814225E0,-1.996554255E0,-2.347180545E-1,2.377723008E-1
9.204528027E0,-2.138270855E0,-1.821851879E-1,3.332171738E-1
9.214242506E0,-2.204242229E0,-1.491994411E-1,3.808632791E-1
9.223956152E0,-2.148044348E0,1.084253844E-2,3.185568452E-1
9.233669068E0,-2.027096510E0,3.603998721E-1,1.998997629E-1
9.243382870E0,-1.934247851E0,6.927008033E-1,1.033858955E-1
9.253097350E0,-1.913479090E0,7.879929543E-1,5.818320066E-2
9.262810995E0,-1.959903479E0,7.391251922E-1,7.284353673E-2
9.272523964E0,-2.031983376E0,7.574505806E-1,1.485885978E-1
9.282237714E0,-2.078407764E0,8.283088803E-1,2.819060087E-1
9.291952193E0,-2.080851078E0,8.686248064E-1,4.321744442E-1
9.301665943E0,-2.062525749E0,9.211576581E-1,5.433486104E-1
9.311378808E0,-2.063747406E0,1.088529825E0,5.909947157E-1
9.321092558E0,-2.068634272E0,1.305991411E0,5.726693273E-1
9.330807037E0,-2.038091898E0,1.393953443E0,4.785988331E-1
9.340520787E0,-2.060082436E0,1.403727055E0,3.307738006E-1
9.350233652E0,-2.192025423E0,1.423274159E0,1.864611208E-1
9.359947402E0,-2.331298590E0,1.371962905E0,9.727742523E-2
9.369661881E0,-2.429034233E0,1.259567022E0,1.033858955E-1
9.379375631E0,-2.463241577E0,1.216807723E0,2.084516287E-1
9.389088495E0,-2.396048307E0,1.304769754E0,3.478775024E-1
9.398802245E0,-2.228676319E0,1.367076159E0,4.724903405E-1
9.408516777E0,-2.057638884E0,1.282779217E0,5.531222224E-1
9.418230423E0,-1.964790225E0,1.126402378E0,5.665608048E-1
9.427943339E0,-1.951351523E0,1.084864736E0,5.164713860E-1
9.437657089E0,-1.942799687E0,1.304769754E0,4.346178174E-1
9.447371620E0,-1.848729253E0,1.692046881E0,3.710896969E-1
9.457085266E0,-1.689908981E0,2.095206022E0,3.735330999E-1
9.466798183E0,-1.495659471E0,2.504473686E0,4.370612204E-1
9.476511933E0,-1.225664973E0,2.886864185E0,4.798205197E-1
9.486226464E0,-9.324583411E-1,3.098217249E0,4.443913698E-1
9.495940110E0,-7.479824424E-1,2.883198977E0,2.646495700E-1
9.505653027E0,-8.530482054E-1,2.272351742E0,-7.009471953E-2
9.515366829E0,-1.240325332E0,1.437934399E0,-3.840702176E-1
9.525081308E0,-1.612942219E0,5.986303091E-1,-5.172349215E-1
9.534794954E0,-1.814521790E0,-2.596100792E-3,-5.318952799E-1
9.544507870E0,-1.948908210E0,-3.263451457E-1,-4.952444136E-1
9.554221673E0,-2.086959600E0,-3.739912212E-1,-4.194993675E-1
9.563936152E0,-2.146822691E0,-4.546230733E-1,-2.619007528E-1
9.573649798E0,-2.068634272E0,-4.753918648E-1,-4.199574888E-2
9.583362714E0,-1.919587493E0,-3.019112647E-1,1.705790907E-1
9.593076516E0,-1.816965222E0,5.955760833E-3,3.173351586E-1
9.602790995E0,-1.766875744E0,2.761029601E-1,3.759764731E-1
9.612504641E0,-1.729003191E0,3.591781855E-1,3.185568452E-1
9.622217610E0,-1.736333370E0,2.834331393E-1,1.718007922E-1
9.631931360E0,-1.792531252E0,1.097997949E-1,9.315420873E-3
9.641645839E0,-1.831625462E0,-1.088835225E-1,-1.324011385E-1
9.651359589E0,-1.764432311E0,-1.956238300E-1,-2.252499312E-1
9.661072454E0,-1.595838428E0,-8.078455180E-2,-2.545706034E-1
9.670786204E0,-1.416249394E0,1.624853760E-1,-2.203631550E-1
9.680500683E0,-1.290414810E0,2.919849753E-1,-1.519482583E-1
9.690214329E0,-1.263537526E0,2.418955117E-1,-1.275143623E-1
9.699927298E0,-1.279419541E0,1.600419879E-1,-1.214058921E-1
9.709641048E0,-1.316070437E0,1.747023165E-1,-1.336228400E-1
9.719355527E0,-1.386928678E0,2.687727809E-1,-1.592784226E-1
9.729069277E0,-1.440683246E0,3.432961702E-1,-1.751604527E-1
9.738782141E0,-1.408919215E0,3.469612300E-1,-1.947075576E-1
9.748495891E0,-1.349056125E0,3.029802442E-1,-1.910424829E-1
9.758210370E0,-1.302631736E0,2.247917950E-1,-1.751604527E-1
9.767924120E0,-1.284306407E0,1.000262350E-1,-1.910424829E-1
9.777636985E0,-1.340504289E0,-1.125486046E-1,-2.057028115E-1
9.787350735E0,-1.466338873E0,-2.579302490E-1,-2.704526186E-1
9.797065214E0,-1.510319829E0,-3.581092060E-1,-3.327590525E-1
9.806778964E0,-1.527423620E0,-5.792359114E-1,-2.228065431E-1
9.816491829E0,-1.465117097E0,-6.598677635E-1,-6.032116711E-2
9.826205579E0,-1.405254126E0,-7.014053464E-1,1.192679256E-1
9.835920058E0,-1.380820274E0,-7.490514517E-1,2.328855246E-1
9.845633808E0,-1.344169378E0,-7.295043468E-1,2.770192325E-1
9.855346673E0,-1.257429123E0,-6.293253899E-1,2.782409191E-1
9.865060423E0,-1.174353838E0,-4.692834020E-1,2.672456801E-1
9.874774902E0,-1.053406119E0,-3.202366829E-1,2.499892414E-1
9.884488652E0,-9.556705356E-1,-2.640387416E-1,2.609844804E-1
9.894201516E0,-8.579349518E-1,-1.809635013E-1,2.696890533E-1
9.903915266E0,-7.504258752E-1,-1.296523362E-1,2.475458533E-1
9.913629798E0,-6.673506498E-1,-6.978929788E-2,1.998997629E-1
9.923343443E0,-5.818319917E-1,-7.345438004E-2,1.595838517E-1
9.933056360E0,-4.743228853E-1,-8.704573847E-3,9.116895497E-2
9.942770110E0,-3.912476599E-1,1.450762246E-2,2.641914412E-2
9.952484641E0,-2.922904193E-1,3.894151375E-2,-2.244863659E-2
9.962198287E0,-1.957765520E-1,2.183778957E-2,-5.176930502E-2
9.971911204E0,-1.175880954E-1,3.894151375E-2,-7.620319724E-2
9.981624954E0,-2.718270384E-2,7.314895838E-2,-1.140757278E-1
9.991339485E0,4.734066129E-2,1.000262350E-1,-1.495048702E-1
1.000105313E1,1.450762302E-1,1.368297935E-1,-1.947075576E-1
1.001076605E1,2.696890533E-1,2.137965411E-1,-2.447970361E-1
1.002047980E1,3.747547865E-1,2.822114229E-1,-2.961082160E-1
1.003019433E1,4.920374751E-1,3.323009014E-1,-3.290939629E-1
1.003990798E1,5.861079693E-1,3.665083647E-1,-3.523061574E-1
1.004962089E1,6.850652099E-1,3.359659910E-1,-3.840702176E-1
1.005933464E1,7.828007340E-1,3.359659910E-1,-4.121691883E-1
1.006904917E1,8.927532434E-1,3.567348123E-1,-4.353813827E-1
1.007876282E1,9.917105436E-1,3.982724249E-1,-4.292729199E-1
1.008847574E1,1.067455530E0,4.275930822E-1,-3.975088596E-1
1.009818948E1,1.122431874E0,4.288147688E-1,-3.278722763E-1
1.010790402E1,1.145644069E0,3.775036037E-1,-2.252499312E-1
1.011761766E1,1.160304427E0,2.968717813E-1,-1.287360638E-1
1.012733058E1,1.176186442E0,1.661504507E-1,-5.665608495E-2
1.013704433E1,1.157860994E0,4.734066315E-3,-2.244863659E-2
1.014675886E1,1.157860994E0,-1.650814712E-1,-3.466558084E-2
1.015647251E1,1.177408099E0,-3.116848171E-1,-6.887302548E-2
1.016618542E1,1.174964666E0,-3.434488773E-1,-9.086353332E-2
1.017589917E1,1.185959935E0,-3.239017725E-1,-8.231166750E-2
1.018561370E1,1.205659747E0,-3.471139669E-1,-4.810422286E-2
1.019532735E1,1.232537031E0,-3.874298632E-1,8.093725890E-3
1.020504027E1,1.315612316E0,-3.397837877E-1,7.650861889E-2
1.021475402E1,1.399909258E0,-2.725905776E-1,1.473668963E-1
1.022446855E1,1.498866439E0,-2.371614426E-1,1.693574041E-1
1.023418219E1,1.585606813E0,-2.921377122E-1,1.644706279E-1
1.024389511E1,1.641804695E0,-4.033119082E-1,1.461452097E-1
1.025360891E1,1.685785770E0,-4.668400288E-1,1.156028435E-1
1.026332339E1,1.707776189E0,-5.132644176E-1,1.033858955E-1
1.027303704E1,1.724879980E0,-5.181511641E-1,1.009425074E-1
1.028274995E1,1.765195847E0,-5.340332389E-1,1.009425074E-1
1.029246376E1,1.800624967E0,-5.254813433E-1,1.217113137E-1
1.030217824E1,1.828724027E0,-4.815003574E-1,1.400367320E-1
1.031189188E1,1.864153147E0,-4.753918648E-1,1.546970755E-1
1.032160480E1,1.897138834E0,-5.242596865E-1,1.779092699E-1
1.033131860E1,1.924016118E0,-5.682406425E-1,1.852394342E-1
1.034103308E1,1.954558492E0,-6.012263894E-1,2.035648525E-1
1.035074672E1,1.974105597E0,-6.256603003E-1,2.108950168E-1
1.036045964E1,2.029081821E0,-6.513158679E-1,2.035648525E-1
1.037017344E1,2.086501598E0,-6.439857483E-1,1.889045089E-1
1.037988792E1,2.079171419E0,-5.767925382E-1,1.754658818E-1
1.038960157E1,2.074284554E0,-4.949389994E-1,2.023431510E-1
1.039931454E1,2.093831778E0,-4.912739098E-1,2.231119573E-1
1.040902829E1,2.124374151E0,-5.792359114E-1,2.170034945E-1
1.041874277E1,2.195232391E0,-6.537593007E-1,1.974563748E-1
1.042845641E1,2.311293364E0,-6.513158679E-1,1.669140160E-1
1.043816938E1,2.437127829E0,-5.841227174E-1,1.754658818E-1
1.044788313E1,2.492104053E0,-4.839437306E-1,1.595838517E-1
1.045759761E1,2.468891859E0,-4.130854607E-1,8.261708915E-2
1.046731136E1,2.417580843E0,-3.825430870E-1,-2.733541466E-2
1.047702423E1,2.387038469E0,-3.727695346E-1,-1.507265568E-1
1.048673798E1,2.372378111E0,-3.446705639E-1,-2.899997234E-1
1.049645245E1,2.372378111E0,-3.507790267E-1,-3.938437700E-1
1.050616620E1,2.376043081E0,-4.020902216E-1,-4.194993675E-1
1.051587907E1,2.404142141E0,-4.595098495E-1,-3.791834414E-1
1.052559282E1,2.439571142E0,-5.462501645E-1,-2.997733057E-1
1.053530730E1,2.455453157E0,-6.207735538E-1,-2.276933193E-1
1.054502105E1,2.417580843E0,-6.366555691E-1,-1.727170646E-1
1.055473391E1,2.344279051E0,-7.197307944E-1,-1.250709742E-1
1.056444766E1,2.277085781E0,-8.993198872E-1,-1.238492802E-1
1.057416214E1,2.275864124E0,-1.043479800E0,-1.690519750E-1
1.058387589E1,2.328397036E0,-1.049588323E0,-2.399102598E-1
1.059358876E1,2.384594917E0,-9.457442760E-1,-3.180987239E-1
1.060330251E1,2.433462858E0,-8.431219459E-1,-4.048390090E-1
1.061301698E1,2.433462858E0,-8.333483934E-1,-4.732539058E-1
1.062273074E1,2.335727215E0,-8.993198872E-1,-4.732539058E-1
1.063244360E1,2.150029659E0,-9.982771277E-1,-3.645231128E-1
1.064215735E1,1.959445238E0,-1.037371397E0,-1.788255423E-1
1.065187188E1,1.853157878E0,-9.811733961E-1,-4.566083103E-2
1.066158553E1,1.854379535E0,-8.663341403E-1,-6.398624927E-2
1.067129844E1,1.925237894E0,-7.380561829E-1,-1.971509457E-1
1.068101219E1,1.991209388E0,-6.244385839E-1,-3.290939629E-1
1.069072673E1,2.011978149E0,-5.572454333E-1,-3.791834414E-1
1.070044037E1,1.983879209E0,-5.267030597E-1,-3.718532622E-1
1.071015329E1,1.908134103E0,-5.022691488E-1,-3.376458287E-1
1.071986704E1,1.779856205E0,-4.839437306E-1,-2.790044844E-1
1.072958157E1,1.628366113E0,-4.509579837E-1,-1.898207814E-1
1.073929521E1,1.492758036E0,-4.399627447E-1,-7.864658535E-2
1.074900813E1,1.371810198E0,-5.254813433E-1,2.031067200E-2
1.075872188E1,1.244753957E0,-6.464291215E-1,1.046075895E-1
1.076843641E1,1.128540277E0,-6.623111367E-1,1.620272398E-1
1.077815006E1,1.073564053E0,-5.572454333E-1,1.852394342E-1
1.078786298E1,1.069898963E0,-4.472928941E-1,1.766875684E-1
1.079757678E1,1.071120620E0,-3.629959822E-1,1.656923145E-1
1.080729126E1,1.051573515E0,-2.542651594E-1,1.681357026E-1
1.081700490E1,1.022252917E0,-9.177979827E-2,1.876828223E-1
1.082671782E1,9.965972900E-1,9.391776472E-2,2.084516287E-1
1.083643162E1,9.770501852E-1,2.480039895E-1,2.133384049E-1
1.084614610E1,9.098569751E-1,4.385883212E-1,1.925695986E-1
1.085585974E1,8.292251825E-1,5.998520255E-1,1.510319859E-1
1.086557266E1,7.620319724E-1,6.340594292E-1,9.849911928E-2
1.087528646E1,6.777350307E-1,5.558710098E-1,5.696150661E-2
1.088500094E1,5.519005060E-1,3.542914093E-1,2.031067200E-2
1.089471459E1,3.539859951E-1,4.627167806E-2,9.315420873E-3
1.090442751E1,1.401894391E-1,-2.835858464E-1,2.641914412E-2
1.091414131E1,-2.718270384E-2,-5.609105229E-1,3.985778242E-2
1.092385579E1,-1.285833418E-1,-7.624900937E-1,2.764083818E-2
1.093356943E1,-1.957765520E-1,-9.042066336E-1,1.664558798E-2
1.094328235E1,-2.593046725E-1,-9.713998437E-1,2.031067200E-2
1.095299615E1,-3.191677034E-1,-9.274188280E-1,3.008422814E-2
1.096271063E1,-3.631486893E-1,-7.966975570E-1,5.573981255E-2
1.097242428E1,-3.753656447E-1,-6.073349118E-1,7.284353673E-2
1.098213724E1,-3.436015844E-1,-3.691044450E-1,6.917845458E-2
1.099185100E1,-2.702999115E-1,-1.113269106E-1,6.551336497E-2
1.100156548E1,-1.713426560E-1,1.220167428E-1,8.261708915E-2
1.101127912E1,-7.971556485E-2,3.066453338E-1,1.033858955E-1
1.102099209E1,-3.970507067E-3,4.312581718E-1,9.605573118E-2
1.103070584E1,4.611896724E-2,5.021164417E-1,6.184828654E-2
1.104042032E1,7.421794534E-2,5.192201734E-1,2.275406010E-2
1.105013407E1,7.666133344E-2,5.094466209E-1,-5.344913341E-3
1.105984693E1,5.833591148E-2,4.996730685E-1,-2.367033064E-2
1.106956068E1,4.001049697E-2,4.972296655E-1,-3.100049868E-2
1.107927516E1,3.145863488E-2,4.691306949E-1,-3.588727489E-2
1.108898891E1,2.779355086E-2,4.337015450E-1,-3.344388679E-2
1.109870178E1,1.435491070E-2,4.251496792E-1,-2.489202656E-2
1.110841553E1,-1.252236869E-2,4.239279926E-1,-5.344913341E-3
1.111813001E1,-4.795150831E-2,3.958290219E-1,2.764083818E-2
1.112784376E1,-8.582404256E-2,3.396310806E-1,6.551336497E-2
1.113755662E1,-1.163664013E-1,2.492256761E-1,8.261708915E-2
1.114727037E1,-1.469087601E-1,1.490467340E-1,6.673506647E-2
1.115698490E1,-1.774511337E-1,6.948387623E-2,4.596625641E-2
1.116669855E1,-2.153236568E-1,3.894151375E-2,3.497100621E-2
1.117641146E1,-2.519744933E-1,6.337540597E-2,2.397575416E-2
1.118612521E1,-2.861819267E-1,1.220167428E-1,5.650337320E-3
1.119583974E1,-3.240544796E-1,1.905843467E-1,-1.389677543E-2
1.120555339E1,-3.497100472E-1,2.333436459E-1,-4.199574888E-2
1.121526631E1,-3.155026138E-1,2.736595869E-1,-1.006370857E-1
1.122498006E1,-2.568612695E-1,3.396310806E-1,-1.788255423E-1
1.123469459E1,-2.568612695E-1,4.837910235E-1,-2.166980654E-1
1.124440824E1,-3.106158376E-1,6.132906675E-1,-2.264716178E-1
1.125412115E1,-3.973561525E-1,6.193991303E-1,-2.130329758E-1
1.126383490E1,-5.647283196E-1,5.045598149E-1,-1.727170646E-1
1.127354943E1,-8.090671897E-1,3.005368412E-1,-1.336228400E-1
1.128326308E1,-1.107160687E0,3.527642787E-2,-1.006370857E-1
1.129297600E1,-1.444348335E0,-2.518217862E-1,-7.253811508E-2
1.130268974E1,-1.776649237E0,-5.413633585E-1,-6.154286116E-2
1.131240428E1,-2.055195570E0,-7.991409302E-1,-8.353336155E-2
1.132211792E1,-2.277544022E0,-9.726215601E-1,-1.495048702E-1
1.133183084E1,-2.474236727E0,-1.016602516E0,-2.411319613E-1
1.134154464E1,-2.672151327E0,-9.335273504E-1,-3.119902313E-1
1.135125912E1,-2.818754673E0,-7.942541242E-1,-3.107685447E-1
1.136097277E1,-2.826084852E0,-7.197307944E-1,-2.044811249E-1
1.137068568E1,-2.700250387E0,-7.404996157E-1,1.664558798E-2
1.138039948E1,-2.549981833E0,-7.075138092E-1,3.197785318E-1
1.139011396E1,-2.464463234E0,-5.865660906E-1,6.435275674E-1
1.139982761E1,-2.491340637E0,-3.067980409E-1,9.245173335E-1
1.140954053E1,-2.578080893E0,1.024696305E-1,1.087002754E0
1.141925433E1,-2.620840073E0,4.593571424E-1,1.077229142E0
1.142896881E1,-2.604958057E0,6.279509664E-1,8.927532434E-1
1.143868245E1,-2.553647041E0,7.146912813E-1,6.093201637E-1
1.144839537E1,-2.484010458E0,8.490777016E-1,3.417690396E-1
1.145810917E1,-2.426590681E0,1.037218690E0,1.889045089E-1
1.146782365E1,-2.394826651E0,1.192373872E0,1.986780763E-1
1.147753730E1,-2.323968410E0,1.252236843E0,3.515425920E-1
1.148725021E1,-2.173699856E0,1.290109396E0,5.702258945E-1
1.149696402E1,-1.978228807E0,1.365854502E0,7.791357040E-1
1.150667850E1,-1.829182148E0,1.551552057E0,9.403993487E-1
1.151639214E1,-1.705790997E0,1.886296391E0,9.758284688E-1
1.152610511E1,-1.577513099E0,2.269908428E0,9.000834227E-1
1.153581886E1,-1.542083859E0,2.426285267E0,7.119424939E-1
1.154553334E1,-1.680135369E0,2.426285267E0,4.688252807E-1
1.155524698E1,-1.925696015E0,2.332214832E0,1.693574041E-1
1.156495990E1,-2.079629421E0,2.039008141E0,-1.055238619E-1
1.157467370E1,-2.051530600E0,1.726254344E0,-3.009949923E-1
1.158438818E1,-2.009992838E0,1.692046881E0,-4.023956358E-1
1.159410183E1,-1.978228807E0,1.773900390E0,-3.901786804E-1
1.160381475E1,-1.920809150E0,1.766570330E0,-2.680092454E-1
1.161352855E1,-1.930582762E0,1.739693046E0,-6.398624927E-2
1.162324303E1,-1.981893897E0,1.929055691E0,1.546970755E-1
1.163295667E1,-1.922030926E0,2.173394442E0,3.564293683E-1
1.164266959E1,-1.803526521E0,2.310224295E0,5.433486104E-1
1.165238339E1,-1.724116445E0,2.273573399E0,6.667397618E-1
1.166209787E1,-1.729003191E0,1.990140319E0,6.594096422E-1
1.167181162E1,-1.890266895E0,1.519788027E0,4.957025647E-1
1.168152448E1,-2.160261393E0,8.686248064E-1,1.913478971E-1
1.169123824E1,-2.367949486E0,2.260134816E-1,-1.128540337E-1
1.170095271E1,-2.408265352E0,-1.406475753E-1,-3.315373361E-1
1.171066636E1,-2.339850426E0,-1.992889196E-1,-4.158342779E-1
1.172037933E1,-2.233562946E0,-1.540862173E-1,-3.400892019E-1
1.173009308E1,-2.102841616E0,-7.956285775E-2,-1.605001241E-1
1.173980756E1,-2.003884315E0,3.894151375E-2,5.207473040E-2
1.174952131E1,-1.957460046E0,6.337540597E-2,1.864611208E-1
1.175923417E1,-1.958681703E0,6.948387623E-2,2.047865391E-1
1.176894792E1,-1.966011882E0,5.238015205E-2,1.998997629E-1
1.177866240E1,-1.925696015E0,-2.702999115E-2,1.754658818E-1
1.178837615E1,-1.892710209E0,-1.491994411E-1,1.803526580E-1
1.179808902E1,-1.928139329E0,-2.469350100E-1,2.512109280E-1
1.180780277E1,-1.964790225E0,-1.760767251E-1,2.941229641E-1
1.181751725E1,-1.900040388E0,4.260659590E-2,2.658712566E-1
1.182723100E1,-1.803526521E0,1.244601309E-1,3.002314270E-1
1.183694386E1,-1.731446505E0,3.283303976E-2,3.258870244E-1
1.184665761E1,-1.722894669E0,-1.186570823E-1,3.258870244E-1
1.185637209E1,-1.790087938E0,-3.239017725E-1,3.197785318E-1
1.186608584E1,-1.787644506E0,-4.069769979E-1,3.051182032E-1
1.187579870E1,-1.702125907E0,-4.143071473E-1,3.295520842E-1
1.188551245E1,-1.605612040E0,-4.081986845E-1,4.004103839E-1
1.189522693E1,-1.509098172E0,-2.322746664E-1,4.456130862E-1
1.190494068E1,-1.405254126E0,-7.223268598E-2,3.759764731E-1
1.191465355E1,-1.330730796E0,-3.069507517E-2,2.047865391E-1
1.192436730E1,-1.276976228E0,-1.186570823E-1,1.298050396E-2
1.193408178E1,-1.226886749E0,-1.956238300E-1,-1.812689304E-1
1.194379553E1,-1.211004734E0,-3.190149665E-1,-3.266505599E-1
1.195350839E1,-1.186570764E0,-3.849864900E-1,-4.451549351E-1
1.196322214E1,-1.147476554E0,-4.069769979E-1,-5.013529062E-1
1.197293662E1,-1.059514523E0,-2.982461751E-1,-5.257867575E-1
1.198265037E1,-9.923213720E-1,-3.141281903E-1,-4.854708612E-1
1.199236324E1,-8.823688626E-1,-2.872509360E-1,-4.072824121E-1
1.200207698E1,-7.186617851E-1,-2.664821148E-1,-2.961082160E-1
1.201179146E1,-5.793886185E-1,-2.738122940E-1,-1.995943487E-1
1.202150521E1,-4.902049303E-1,-2.799207568E-1,-1.837123185E-1
1.203121808E1,-3.875826001E-1,-1.919587553E-1,-1.898207814E-1
1.204093183E1,-2.702999115E-1,-3.436015919E-2,-2.044811249E-1
1.205064631E1,-1.847812980E-1,8.414421231E-2,-1.910424829E-1
1.206036006E1,-8.460234851E-2,1.563768983E-1,-1.714953631E-1
1.207007292E1,4.734066129E-2,2.125748396E-1,-1.849340051E-1
1.207978667E1,1.866138428E-1,2.797680497E-1,-2.215848416E-1
1.208950115E1,3.197785318E-1,3.139754832E-1,-2.753393948E-1
1.209921490E1,4.297310412E-1,3.078670204E-1,-3.364241421E-1
1.210892777E1,5.421269536E-1,3.274141252E-1,-3.804051280E-1
1.211864152E1,6.533011198E-1,4.019374847E-1,-3.987305462E-1
1.212835600E1,7.632536292E-1,4.935645759E-1,-4.133908749E-1
1.213806975E1,8.622109294E-1,5.839699507E-1,-4.207210541E-1
1.214778261E1,9.428427219E-1,6.340594292E-1,-4.060607255E-1
1.215749636E1,1.030804753E0,6.511631608E-1,-3.657447994E-1
1.216721084E1,1.124875188E0,6.255075932E-1,-3.205420971E-1
1.217692459E1,1.223985195E0,5.729747415E-1,-3.034383655E-1
1.218663745E1,1.330272675E0,5.277720094E-1,-3.217637837E-1
1.219635120E1,1.412126184E0,4.776825607E-1,-3.633013964E-1
1.220606568E1,1.436560035E0,4.410317242E-1,-4.268295169E-1
1.221577943E1,1.451220393E0,3.799470067E-1,-5.037962794E-1
1.222549230E1,1.437781692E0,3.115321100E-1,-5.477772951E-1
1.223520605E1,1.428008199E0,1.747023165E-1,-5.367820263E-1
1.224492053E1,1.441446781E0,-6.245913357E-2,-4.610369802E-1
1.225463428E1,1.407239318E0,-2.591519356E-1,-3.608580232E-1
1.226434714E1,1.424343109E0,-3.715478480E-1,-2.680092454E-1
1.227406089E1,1.496423125E0,-4.717268050E-1,-1.739387512E-1
1.228377542E1,1.558729529E0,-5.254813433E-1,-1.006370857E-1
1.229348907E1,1.641804695E0,-5.694623590E-1,-4.199574888E-2
1.230320199E1,1.688229084E0,-6.012263894E-1,-5.421269313E-2
1.231291574E1,1.685785770E0,-5.572454333E-1,-1.152974218E-1
1.232263021E1,1.665016890E0,-4.595098495E-1,-1.556133330E-1
1.233234396E1,1.673568726E0,-4.143071473E-1,-1.446180940E-1
1.234205683E1,1.722436547E0,-4.582881629E-1,-9.208522737E-2
1.235177058E1,1.755422354E0,-4.815003574E-1,-3.833066672E-2
1.236148506E1,1.805511832E0,-5.181511641E-1,-1.878355257E-2
1.237119881E1,1.842162609E0,-5.987830162E-1,-4.321744293E-2
1.238091167E1,1.826280594E0,-6.867450476E-1,-8.842013776E-2
1.239062542E1,1.783521295E0,-7.783721089E-1,-1.201841980E-1
1.240033990E1,1.760309100E0,-8.553388715E-1,-1.580567211E-1
1.241005365E1,1.763974190E0,-8.626690507E-1,-1.727170646E-1
1.241976652E1,1.778634548E0,-7.991409302E-1,-1.385096163E-1
1.242948027E1,1.817728758E0,-6.830799580E-1,-7.742489129E-2
1.243919474E1,1.831167340E0,-6.000047326E-1,5.650337320E-3
1.244890850E1,1.822615504E0,-5.877877474E-1,1.094943732E-1
1.245862136E1,1.848271132E0,-6.500942111E-1,2.353289127E-1
1.246833511E1,1.881256819E0,-6.549809575E-1,3.368822634E-1
1.247804959E1,1.910577536E0,-6.158867478E-1,3.943018913E-1
1.248776334E1,1.952115178E0,-6.122216582E-1,3.967452943E-1
1.249747620E1,1.985100865E0,-6.586460471E-1,3.222219348E-1
1.250718995E1,1.991209388E0,-7.172874212E-1,1.974563748E-1
1.251690443E1,1.982657433E0,-7.124006152E-1,8.994726092E-2
1.252661808E1,1.959445238E0,-6.268820167E-1,4.596625641E-2
1.253633100E1,1.950893402E0,-5.120427012E-1,6.184828654E-2
1.254604480E1,1.969218850E0,-4.375193417E-1,1.192679256E-1
1.255575928E1,2.018086672E0,-3.959817290E-1,1.583621502E-1
1.256547292E1,2.081614733E0,-3.727695346E-1,1.571404636E-1
1.257518589E1,2.139034271E0,-4.008685052E-1,1.400367320E-1
1.258489964E1,2.201340914E0,-4.534013867E-1,1.156028435E-1
1.259461412E1,2.272199154E0,-4.668400288E-1,7.528692484E-2
1.260432777E1,2.317401886E0,-4.802786708E-1,3.497100621E-2
1.261404068E1,2.322288513E0,-5.095993280E-1,5.650337320E-3
1.262375449E1,2.285637617E0,-4.753918648E-1,-1.145338640E-2
1.263346896E1,2.234326601E0,-4.057552814E-1,-2.122694254E-2
1.264318261E1,2.201340914E0,-3.458922505E-1,-2.855710872E-2
1.265289553E1,2.218444586E0,-3.568875194E-1,-5.054761097E-2
1.266260933E1,2.231883287E0,-4.033119082E-1,-8.475505561E-2
1.267232381E1,2.228218079E0,-4.570664763E-1,-1.385096163E-1
1.268203745E1,2.235548258E0,-5.450284481E-1,-2.081461996E-1
1.269175037E1,2.256317139E0,-6.488724947E-1,-2.594573796E-1
1.270146412E1,2.289302826E0,-7.478297353E-1,-2.814478874E-1
1.271117865E1,2.311293364E0,-8.247964978E-1,-2.838912606E-1
1.272089230E1,2.268533945E0,-8.247964978E-1,-3.022166789E-1
1.273060521E1,2.200119019E0,-8.150229454E-1,-3.303156495E-1
1.274031896E1,2.148808002E0,-8.309049606E-1,-3.523061574E-1
1.275003350E1,2.099940062E0,-7.918107510E-1,-3.962871730E-1
1.275974714E1,2.035190344E0,-6.867450476E-1,-4.732539058E-1
1.276946006E1,1.932568073E0,-5.963396430E-1,-5.722111464E-1
1.277917381E1,1.821393847E0,-4.888305068E-1,-6.638382673E-1
1.278888834E1,1.767639279E0,-3.972034156E-1,-6.931589246E-1
1.279860199E1,1.756644011E0,-3.483356535E-1,-6.601731777E-1
1.280831490E1,1.743205309E0,-2.603736520E-1,-5.905365944E-1
1.281802865E1,1.698002696E0,-2.579302490E-1,-4.756973088E-1
1.282774318E1,1.583163381E0,-3.287885487E-1,-3.413109183E-1
1.283745683E1,1.426786542E0,-3.874298632E-1,-2.264716178E-1
1.284716974E1,1.287513256E0,-4.094203711E-1,-1.201841980E-1
1.285688350E1,1.170077920E0,-4.485146105E-1,-2.489202656E-2
1.286659803E1,1.073564053E0,-4.301891923E-1,5.573981255E-2
1.287631167E1,1.021031141E0,-3.544441164E-1,1.302631795E-1
1.288602459E1,1.033248186E0,-2.212794125E-1,2.108950168E-1
1.289573834E1,1.097997904E0,-5.757235363E-2,2.733541429E-1
1.290545282E1,1.161526084E0,9.025268257E-2,3.014531136E-1
1.291516657E1,1.199398637E0,2.418955117E-1,2.855710983E-1
1.292487943E1,1.212989926E0,4.104893506E-1,2.279987335E-1
1.293459318E1,1.203216434E0,5.876350403E-1,1.571404636E-1
1.294430766E1,1.161526084E0,7.110261917E-1,9.239064902E-2
1.295402141E1,1.071120620E0,7.305732965E-1,5.696150661E-2
1.296373428E1,9.232956171E-1,6.792621613E-1,3.741439432E-2
1.297344803E1,7.449282408E-1,6.193991303E-1,6.917845458E-2
1.298316251E1,5.922164321E-1,5.925218463E-1,1.046075895E-1
1.299287615E1,4.957025647E-1,5.864133835E-1,1.204896197E-1
1.300258912E1,4.492781460E-1,5.460974574E-1,1.217113137E-1
1.301230287E1,4.052971601E-1,4.837910235E-1,1.302631795E-1
1.302201735E1,3.222219348E-1,3.884988427E-1,1.412584335E-1
1.303173100E1,2.599155009E-1,1.183516532E-1,1.009425074E-1
1.304144391E1,1.695101112E-1,-2.102841735E-1,2.397575416E-2
1.305115771E1,1.191152167E-2,-4.741701782E-1,-4.566083103E-2
1.306087219E1,-1.640124917E-1,-6.598677635E-1,-9.941539168E-2
1.307058584E1,-3.216110766E-1,-7.771504521E-1,-1.287360638E-1
1.308029876E1,-4.352286756E-1,-8.211314082E-1,-1.238492802E-1
1.309001256E1,-4.950917065E-1,-8.150229454E-1,-8.475505561E-2
1.309972704E1,-4.975350797E-1,-7.539382577E-1,-4.443913698E-2
1.310944068E1,-4.450022280E-1,-6.293253899E-1,-1.634016447E-2
1.311915360E1,-3.582619131E-1,-4.497362971E-1,1.985253533E-3
1.312886735E1,-2.605263591E-1,-2.432699203E-1,6.872031838E-3
1.313858188E1,-1.615691036E-1,-4.046862945E-2,-5.344913341E-3
1.314829553E1,-7.360709459E-2,1.159082651E-1,-3.344388679E-2
1.315800844E1,8.246437646E-3,2.431172132E-1,-4.443913698E-2
1.316772219E1,6.566607952E-2,3.628432751E-1,-3.100049868E-2
1.317743673E1,8.887827396E-2,4.740174711E-1,-5.344913341E-3
1.318715037E1,7.177454978E-2,5.497625470E-1,2.519745007E-2
1.319686329E1,1.801999472E-2,5.680879354E-1,6.062658876E-2
1.320657704E1,-6.139015034E-2,5.241069198E-1,9.361234307E-2
1.321629157E1,-1.469087601E-1,4.324798584E-1,1.046075895E-1
1.322600521E1,-2.336490750E-1,3.445178568E-1,9.727742523E-2
1.323571813E1,-3.167243004E-1,2.919849753E-1,8.506047726E-2
1.324543188E1,-3.753656447E-1,2.296785712E-1,6.429167092E-2
1.325514641E1,-4.193466306E-1,1.612636745E-1,3.374931216E-2
1.326486006E1,-4.743228853E-1,1.171299592E-1,1.298050396E-2
1.327457298E1,-5.537330508E-1,7.559234649E-2,1.542389300E-2
1.328428673E1,-6.636855602E-1,3.512371797E-3,2.764083818E-2
1.329400120E1,-7.907418013E-1,-9.910997003E-2,2.275406010E-2
1.330371485E1,-9.275715351E-1,-1.882936656E-1,-2.733541466E-2
1.331342782E1,-1.083948493E0,-2.444916219E-1,-7.498150319E-2
1.332314157E1,-1.269646049E0,-2.774773538E-1,-1.104106456E-1
1.333285605E1,-1.454121947E0,-2.689255178E-1,-1.262926757E-1
1.334256969E1,-1.603168607E0,-2.066190839E-1,-1.507265568E-1
1.335228266E1,-1.727781415E0,-1.125486046E-1,-2.118112892E-1
1.336199641E1,-1.862167835E0,-1.101052165E-1,-2.961082160E-1
1.337171089E1,-2.034426689E0,-2.872509360E-1,-4.023956358E-1
1.338142454E1,-2.275100708E0,-4.460712075E-1,-5.160132051E-1
1.339113745E1,-2.545095205E0,-4.827220440E-1,-5.734328628E-1
1.340085126E1,-2.708802223E0,-4.680617154E-1,-5.416688323E-1
1.341056574E1,-2.642830610E0,-5.438067913E-1,-4.451549351E-1
1.342027938E1,-2.420482159E0,-6.843016148E-1,-2.997733057E-1
1.342999230E1,-2.272657156E0,-8.089144826E-1,-1.079672500E-1
1.343970605E1,-2.273878813E0,-7.844805717E-1,6.062658876E-2
1.344942058E1,-2.284874201E0,-5.719057322E-1,1.925695986E-1
1.345913423E1,-2.205464125E0,-3.373403847E-1,2.782409191E-1
1.346884714E1,-2.080851078E0,-2.163926363E-1,3.087832928E-1
1.347856089E1,-2.011214495E0,-2.115058601E-1,3.100049794E-1
1.348827542E1,-2.047865391E0,-1.992889196E-1,3.429907262E-1
1.349798907E1,-2.129719019E0,-7.101099193E-2,4.309527278E-1
1.350770198E1,-2.215237617E0,1.600419879E-1,5.421269536E-1
1.351741574E1,-2.293426037E0,3.567348123E-1,6.264238358E-1
1.352713027E1,-2.322746754E0,4.520269632E-1,6.716265678E-1
1.353684391E1,-2.270213842E0,5.033381581E-1,6.936170459E-1
1.354655683E1,-2.133383989E0,6.389462352E-1,7.070556879E-1
1.355627058E1,-1.979450583E0,9.003888369E-1,7.094991207E-1
1.356598506E1,-1.838955641E0,1.141062737E0,6.948387623E-1
1.357569881E1,-1.754658699E0,1.253458619E0,6.606312990E-1
1.358541167E1,-1.793753028E0,1.251015186E0,5.934380889E-1
1.359512542E1,-1.896375299E0,1.216807723E0,4.871506989E-1
1.360483990E1,-1.969676971E0,1.076312900E0,3.490992188E-1
1.361455365E1,-2.049087048E0,8.600729704E-1,2.292204350E-1
1.362426652E1,-2.117501974E0,7.586722970E-1,1.827960461E-1
1.363398027E1,-2.149266005E0,9.150491953E-1,2.279987335E-1
1.364369475E1,-2.093068123E0,1.248571754E0,3.161134422E-1
1.365340839E1,-1.972120404E0,1.588202834E0,4.248442650E-1
1.366312131E1,-1.868276358E0,1.751909971E0,5.176930428E-1
1.367283511E1,-1.797418118E0,1.649287581E0,5.286883116E-1
1.368254959E1,-1.746106863E0,1.376849771E0,4.333961308E-1
1.369226324E1,-1.660588264E0,9.333745837E-1,2.255553454E-1
1.370197615E1,-1.600725293E0,4.947862923E-1,-3.344388679E-2
1.371168995E1,-1.620272398E0,3.506263196E-1,-2.484621257E-1
1.372140443E1,-1.650814772E0,4.789042473E-1,-3.657447994E-1
1.373111808E1,-1.653258085E0,7.012526393E-1,-3.718532622E-1
1.374083100E1,-1.610498786E0,8.771766424E-1,-3.046600819E-1
1.375054475E1,-1.593395114E0,9.174925685E-1,-2.166980654E-1
1.376025928E1,-1.655701518E0,8.588512540E-1,-1.348445266E-1
1.376997292E1,-1.720451355E0,6.682668924E-1,-7.375980914E-2
1.377968584E1,-1.732668281E0,3.701734245E-1,-4.199574888E-2
1.378939959E1,-1.718007922E0,1.783674061E-1,1.786728203E-2
1.379911407E1,-1.682578802E0,2.199050188E-1,1.314848661E-1
1.380882782E1,-1.603168607E0,3.946073353E-1,2.573194206E-1
1.381854068E1,-1.493216157E0,4.837910235E-1,3.417690396E-1
1.382825443E1,-1.434574842E0,4.471401870E-1,3.625378609E-1
1.383796891E1,-1.474890709E0,3.799470067E-1,3.185568452E-1
1.384768266E1,-1.594616771E0,3.359659910E-1,2.218902707E-1
1.385739553E1,-1.686243892E0,2.956500649E-1,1.278197914E-1
1.386710928E1,-1.692352295E0,2.565558553E-1,7.528692484E-2
1.387682376E1,-1.648371339E0,2.577775419E-1,7.162184268E-2
1.388653740E1,-1.636154413E0,1.979145110E-1,1.437018216E-1
1.389625032E1,-1.643484592E0,6.704048812E-2,2.609844804E-1
1.390596412E1,-1.637376070E0,4.734066315E-3,3.662029207E-1
1.391567860E1,-1.665475011E0,-5.390727147E-2,4.370612204E-1
1.392539225E1,-1.705790997E0,-1.553079188E-1,4.932591617E-1
1.393510516E1,-1.665475011E0,-1.162136942E-1,4.957025647E-1
1.394481891E1,-1.633710980E0,-1.162136942E-1,4.419479966E-1
1.395453344E1,-1.623937488E0,-2.762556672E-1,3.600944579E-1
1.396424709E1,-1.608055353E0,-4.216373265E-1,2.782409191E-1
1.397396001E1,-1.583621502E0,-4.424061179E-1,1.925695986E-1
1.398367376E1,-1.527423620E0,-3.886515796E-1,1.314848661E-1
1.399338829E1,-1.448013425E0,-3.300102353E-1,6.673506647E-2
1.400310193E1,-1.380820274E0,-3.300102353E-1,3.985778242E-2
1.401281485E1,-1.314848781E0,-3.190149665E-1,3.741439432E-2
1.402252860E1,-1.262315869E0,-3.080197275E-1,5.573981255E-2
1.403224308E1,-1.191457629E0,-2.811424434E-1,4.840964451E-2
1.404195683E1,-1.108382344E0,-3.752129376E-1,1.908897609E-2
1.405166969E1,-1.036302328E0,-4.228590131E-1,-3.344388679E-2
1.406138344E1,-9.715525508E-1,-4.937172830E-1,-8.231166750E-2
1.407109792E1,-8.848122358E-1,-4.705050886E-1,-8.475505561E-2
1.408081167E1,-7.650861740E-1,-3.837648034E-1,-6.765133142E-2
1.409052454E1,-6.661289334E-1,-2.273878902E-1,-6.765133142E-2
1.410023829E1,-5.916055441E-1,-1.931804419E-1,-1.267508045E-2
1.410995277E1,-5.073086619E-1,-1.369825006E-1,4.718795046E-2
1.411966641E1,-4.083513916E-1,-1.186570823E-1,8.872556686E-2
1.412937933E1,-3.081724346E-1,-1.418692768E-1,1.168245375E-1
1.413909313E1,-2.055501044E-1,-1.504211426E-1,1.217113137E-1
1.414880761E1,-9.926267713E-2,-8.078455180E-2,9.361234307E-2
1.415852126E1,3.878879920E-2,4.627167806E-2,4.596625641E-2
1.416823417E1,1.707318127E-1,2.003578991E-1,-1.267508045E-2
1.417794798E1,2.684673667E-1,3.420744538E-1,-7.864658535E-2
1.418766245E1,3.429907262E-1,4.508052766E-1,-1.482831687E-1
1.419737610E1,4.126273096E-1,5.057815313E-1,-2.203631550E-1
1.420708902E1,4.895940721E-1,5.131117105E-1,-2.716743052E-1
1.421680277E1,5.653391480E-1,5.155550838E-1,-2.936648130E-1
1.422651730E1,6.533011198E-1,5.033381581E-1,-3.119902313E-1
1.423623094E1,7.510367036E-1,4.483618736E-1,-3.132119179E-1
1.424594386E1,8.194515705E-1,4.178195298E-1,-3.168770075E-1
1.425565761E1,9.269607067E-1,4.190412164E-1,-3.388675153E-1
1.426537214E1,9.978190064E-1,3.994941115E-1,-3.804051280E-1
1.427508579E1,1.033248186E0,3.335226178E-1,-4.317162931E-1
1.428479870E1,1.071120620E0,2.418955117E-1,-4.744756222E-1
1.429451245E1,1.124875188E0,1.220167428E-1,-4.830274582E-1
1.430422699E1,1.172521353E0,5.360184610E-2,-4.598152637E-1
1.431394063E1,1.212989926E0,4.382828996E-2,-4.256078303E-1
1.432365355E1,1.209324837E0,3.038965166E-2,-3.889569938E-1
1.433336730E1,1.173743010E0,-1.847812906E-2,-3.461976945E-1
1.434308183E1,1.183516622E0,-1.369825006E-1,-2.863346636E-1
1.435279548E1,1.190846682E0,-2.188360244E-1,-2.142546773E-1
1.436250839E1,1.226428628E0,-2.298312783E-1,-1.433963925E-1
1.437222214E1,1.276518106E0,-2.762556672E-1,-5.299099907E-2
1.438193667E1,1.269187927E0,-3.715478480E-1,2.519745007E-2
1.439165032E1,1.260635972E0,-4.253024161E-1,7.040014863E-2
1.440136324E1,1.271631241E0,-4.815003574E-1,1.143811494E-1
1.441107699E1,1.314390540E0,-5.022691488E-1,1.571404636E-1
1.442079152E1,1.380362034E0,-4.668400288E-1,2.279987335E-1
1.443050516E1,1.421899676E0,-5.364766121E-1,2.843494117E-1
1.444021808E1,1.439003468E0,-5.865660906E-1,3.087832928E-1
1.444993183E1,1.469545841E0,-5.780141950E-1,2.709107697E-1
1.445964636E1,1.530630469E0,-5.743491650E-1,1.693574041E-1
1.446936001E1,1.590493560E0,-5.267030597E-1,6.795676053E-2
1.447907292E1,1.606375575E0,-3.923166394E-1,-1.145338640E-2
1.448878667E1,1.612484097E0,-3.275668323E-1,-7.009471953E-2
1.449850120E1,1.614927411E0,-3.287885487E-1,-1.018587798E-1
1.450821485E1,1.644248128E0,-3.678827584E-1,-1.201841980E-1
1.451792777E1,1.710219622E0,-4.033119082E-1,-9.086353332E-2
1.452764152E1,1.785964727E0,-4.057552814E-1,-2.977880463E-2
1.453735605E1,1.850714445E0,-4.167505503E-1,3.206948051E-3
1.454706969E1,1.967997193E0,-4.485146105E-1,-2.244863659E-2
1.455678261E1,2.095053434E0,-3.996468186E-1,-5.787777901E-2
1.456649636E1,2.203784227E0,-2.432699203E-1,-6.520794332E-2
1.457621089E1,2.327175379E0,-9.910997003E-2,-6.765133142E-2
1.458592454E1,2.437127829E0,-4.291202128E-2,-8.353336155E-2
1.459563745E1,2.449344873E0,-3.924693540E-2,-1.128540337E-1
1.460535120E1,2.393146753E0,-8.322793990E-2,-1.311794519E-1
1.461506574E1,2.352830887E0,-1.882936656E-1,-1.165191159E-1
1.462477938E1,2.366269588E0,-2.786990702E-1,-9.697200358E-2
1.463449230E1,2.391925097E0,-2.347180545E-1,-6.642963737E-2
1.464420610E1,2.444458008E0,-5.635065958E-2,-2.367033064E-2
1.465392058E1,2.522646427E0,1.269035190E-1,6.184828654E-2
1.466363423E1,2.554410458E0,1.930277348E-1,1.009425074E-1
1.467334719E1,2.490882397E0,1.244601309E-1,4.352286831E-2
1.468306094E1,2.371156454E0,-2.458660305E-2,-9.208522737E-2
1.469277542E1,2.285637617E0,-2.029540092E-1,-2.631224692E-1
1.470248917E1,2.246543407E0,-3.776563108E-1,-4.231644273E-1
1.471220204E1,2.218444586E0,-4.240806997E-1,-5.380037427E-1
1.472191579E1,2.233104944E0,-3.458922505E-1,-5.538857579E-1
1.473163032E1,2.322288513E0,-2.457133085E-1,-4.781406820E-1
1.474134396E1,2.457896709E0,-1.540862173E-1,-3.816268146E-1
1.475105688E1,2.610608578E0,-4.535540938E-2,-3.132119179E-1
1.476077063E1,2.710787535E0,7.681404054E-2,-2.545706034E-1
1.477048516E1,2.715674162E0,1.000262350E-1,-1.873773932E-1
1.478019881E1,2.633820772E0,-3.069507517E-2,-1.336228400E-1
1.478991173E1,2.488439083E0,-2.579302490E-1,-1.091889441E-1
1.479962553E1,2.317401886E0,-4.888305068E-1,-1.043021679E-1
1.480934001E1,2.196454048E0,-6.195518374E-1,-1.177408099E-1
1.481905365E1,2.173241854E0,-6.794148684E-1,-1.348445266E-1
1.482876662E1,2.219666243E0,-6.708629727E-1,-1.482831687E-1
1.483848037E1,2.269755602E0,-6.048914790E-1,-1.568350345E-1
1.484819485E1,2.259982109E0,-5.535803437E-1,-1.678302884E-1
1.485790860E1,2.184237003E0,-5.083776116E-1,-1.910424829E-1
1.486762146E1,2.082836390E0,-4.937172830E-1,-2.191414535E-1
1.487733521E1,1.983879209E0,-4.912739098E-1,-2.374668717E-1
1.488704974E1,1.895917177E0,-4.937172830E-1,-2.606790662E-1
1.489676339E1,1.817728758E0,-4.570664763E-1,-2.912214398E-1
1.490647631E1,1.744427085E0,-3.593308926E-1,-2.997733057E-1
1.491619006E1,1.658908486E0,-2.848075330E-1,-2.948864996E-1
1.492590459E1,1.545290828E0,-2.872509360E-1,-2.765611112E-1
1.493561824E1,1.407239318E0,-3.312319219E-1,-2.570139766E-1
1.494533120E1,1.276518106E0,-4.375193417E-1,-2.484621257E-1
1.495504495E1,1.148087382E0,-6.122216582E-1,-2.240282297E-1
1.496475943E1,1.022252917E0,-8.260182142E-1,-1.238492802E-1
1.497447318E1,9.074136019E-1,-9.994988441E-1,3.008422814E-2
1.498418605E1,8.365553021E-1,-1.043479800E0,1.779092699E-1
1.499389980E1,7.937960029E-1,-9.591829181E-1,3.332171738E-1
1.500361433E1,7.290462255E-1,-7.624900937E-1,4.847072959E-1
1.501332798E1,6.459710002E-1,-5.291464329E-1,6.007682681E-1
1.502304089E1,5.677825212E-1,-3.226800561E-1,6.838434935E-1
1.503275469E1,5.091412067E-1,-1.345391124E-1,7.070556879E-1
1.504246917E1,4.651601911E-1,4.871506989E-2,6.496360302E-1
1.505218292E1,4.407263100E-1,2.260134816E-1,5.347967744E-1
1.506189579E1,4.590517282E-1,3.933856487E-1,3.918585181E-1
1.507160954E1,5.323534012E-1,5.448757410E-1,2.512109280E-1
