"Time (s)","Acceleration x (m/s^2)","Acceleration y (m/s^2)","Acceleration z (m/s^2)"
5.711907000E-2,-1.149452209E0,-8.048856735E0,-3.128316402E0
6.683339300E-2,-2.494517565E-1,-7.646564007E0,-3.580859184E0
7.654610100E-2,2.602194622E-2,-7.486244678E0,-3.346362352E0
8.625964300E-2,-3.092723191E-1,-7.249056339E0,-2.192423820E0
9.597396600E-2,-7.737790346E-1,-7.110272408E0,-9.667003751E-1
1.056874550E-1,-1.223629713E0,-6.964310169E0,-8.315058798E-2
1.154002160E-1,-1.539781332E0,-6.978667259E0,8.506484628E-1
1.251138090E-1,-1.994716763E0,-6.832705021E0,1.382154226E0
1.348281320E-1,-2.274677038E0,-6.614659309E0,8.865407705E-1
1.445415700E-1,-2.430509567E0,-6.317949295E0,7.956135273E-2
1.542543300E-1,-2.483151674E0,-5.985047817E0,-2.602194548E-1
1.639679240E-1,-2.571686029E0,-5.570790291E0,-2.338984162E-1
1.736822470E-1,-2.676970243E0,-5.278865814E0,-2.093719877E-2
1.833956840E-1,-2.858824968E0,-5.077569485E0,2.042872310E-1
1.931084450E-1,-3.074477911E0,-4.883750916E0,3.334996700E-1
2.028220390E-1,-3.179762125E0,-4.749752998E0,4.603192508E-1
2.125363610E-1,-3.151048422E0,-4.761716843E0,5.679962635E-1
2.222498510E-1,-3.136691332E0,-4.859822750E0,3.550350666E-1
2.319625590E-1,-3.024228811E0,-5.180759907E0,-2.099701911E-1
2.416761530E-1,-2.877967358E0,-5.772086620E0,-6.696912646E-1
2.513904760E-1,-2.861217737E0,-6.638587475E0,-1.277767301E0
2.611039660E-1,-2.861217737E0,-7.720741272E0,-2.324028969E0
2.708166740E-1,-2.787040234E0,-8.958429337E0,-3.568894863E0
2.805302680E-1,-2.636292458E0,-1.022991467E1,-5.484349728E0
2.902445910E-1,-2.693720102E0,-1.146760273E1,-8.886344910E0
2.999580800E-1,-3.151048422E0,-1.271725368E1,-1.278634644E1
3.096708410E-1,-3.938585997E0,-1.387837124E1,-1.473260880E1
3.193843300E-1,-4.135096550E0,-1.465394497E1,-1.462493229E1
3.290987050E-1,-3.423830032E0,-1.458455276E1,-1.297537994E1
3.388121950E-1,-2.502294302E0,-1.367737389E1,-9.951749802E0
3.485249550E-1,-2.116750717E0,-1.226231861E1,-6.714858532E0
3.582385490E-1,-2.164607286E0,-1.082124138E1,-4.684548378E0
3.679528720E-1,-2.566900492E0,-9.434899330E0,-3.528217077E0
3.776663090E-1,-2.593221426E0,-8.280961037E0,-2.644966364E0
3.873790700E-1,-2.461616278E0,-7.763812065E0,-2.027019978E0
3.970926640E-1,-3.134298563E0,-8.458029747E0,-2.235494614E0
4.068069860E-1,-4.233202457E0,-1.016740227E1,-2.012662888E0
4.165204760E-1,-4.209274292E0,-1.172842026E1,-1.546062589E0
4.262331840E-1,-3.313760281E0,-1.324876022E1,-2.798106909E0
4.359467780E-1,-2.837289333E0,-1.453669643E1,-5.070092201E0
4.456611010E-1,-3.737588882E0,-1.457976723E1,-5.065306664E0
4.553745910E-1,-4.266701698E0,-1.265025520E1,-2.711965322E0
4.650873510E-1,-4.060919285E0,-9.753444672E0,-1.146162033E0
4.748008410E-1,-3.696911097E0,-7.062416077E0,-2.985046208E-1
4.845152160E-1,-3.476472139E0,-5.032105923E0,1.049252748E0
4.942287050E-1,-4.223630905E0,-3.890131474E0,2.188834429E0
5.039414660E-1,-5.190929413E0,-3.626920938E0,2.504986286E0
5.136550590E-1,-5.741578102E0,-4.206283092E0,2.095514536E0
5.233693820E-1,-6.004788399E0,-5.305186749E0,1.319940805E0
5.330828200E-1,-5.873183250E0,-6.672086716E0,8.554341197E-1
5.427955800E-1,-5.777470112E0,-7.754240990E0,8.745766878E-1
5.525091740E-1,-5.473282814E0,-8.857930183E0,1.125823021E0
5.622234970E-1,-4.925027370E0,-1.026341438E1,1.549651742E0
5.719369860E-1,-3.902693748E0,-1.126391315E1,1.602293849E0
5.816497470E-1,-2.775076151E0,-1.190100288E1,1.626222134E0
5.913632360E-1,-1.884646893E0,-1.235324574E1,1.430010676E0
6.010776640E-1,-8.216354847E-1,-1.256889915E1,9.200403094E-1
6.107911010E-1,3.825525343E-1,-1.232213974E1,1.082752228E0
6.205038610E-1,1.294816136E0,-1.163749313E1,6.278168559E-1
6.302174550E-1,1.855035782E0,-1.098634624E1,-1.081555843E0
6.399317780E-1,2.266900301E0,-1.031605625E1,-3.276970625E0
6.496452680E-1,2.625823736E0,-9.746265411E0,-4.720440865E0
6.593580280E-1,2.314756870E0,-9.446864128E0,-4.612763882E0
6.690716220E-1,1.366600871E0,-9.346364975E0,-3.638286829E0
6.787859450E-1,4.570291340E-1,-9.372686386E0,-2.108675003E0
6.884993820E-1,-3.810569942E-1,-9.353543282E0,-9.305089116E-1
6.982121430E-1,-1.182951689E0,-9.286544800E0,-3.655036688E-1
7.079257360E-1,-1.604387641E0,-9.095118523E0,-9.511470050E-2
7.176400590E-1,-1.839183331E0,-8.783752441E0,2.760719061E-1
7.273535490E-1,-1.932503343E0,-8.563612938E0,3.957130313E-1
7.370663090E-1,-2.040180445E0,-8.510971069E0,4.124628007E-1
7.467799030E-1,-2.198106766E0,-8.566005707E0,2.641077936E-1
7.564942260E-1,-2.382653236E0,-8.604290962E0,-1.214357466E-1
7.662077160E-1,-2.564507723E0,-8.656932831E0,-5.380859971E-1
7.759204760E-1,-2.475973129E0,-8.800502777E0,-7.701897621E-1
7.856340700E-1,-2.291426897E0,-8.948857307E0,-7.917252183E-1
7.953483930E-1,-2.454437733E0,-8.951250076E0,-8.036893010E-1
8.050618820E-1,-2.751147747E0,-8.834002495E0,-9.041878581E-1
8.147746430E-1,-2.899502754E0,-8.750253677E0,-1.052842021E0
8.244882360E-1,-2.665006161E0,-8.956035614E0,-1.450050473E0
8.342025590E-1,-2.641077995E0,-9.102297783E0,-1.747059584E0
8.439160490E-1,-2.516651154E0,-9.032606125E0,-1.739881158E0
8.536288090E-1,-2.514258385E0,-8.934500694E0,-1.593919039E0
8.633424030E-1,-2.452044964E0,-8.845966339E0,-1.373480201E0
8.730567260E-1,-2.519043922E0,-8.855537415E0,-1.191625714E0
8.827702160E-1,-2.724826813E0,-8.869894028E0,-1.167697430E0
8.924829760E-1,-2.906681299E0,-8.941679001E0,-1.318445325E0
9.021965700E-1,-2.820539713E0,-9.051749229E0,-1.632204175E0
9.119108930E-1,-2.423331022E0,-9.166903496E0,-1.651346684E0
9.216243820E-1,-1.937289000E0,-9.267401695E0,-1.289731383E0
9.313371430E-1,-1.554138303E0,-9.382257462E0,-9.352945685E-1
9.410507360E-1,-1.255035520E0,-9.607182503E0,-7.175477147E-1
9.507650590E-1,-9.340981245E-1,-9.940084457E0,-4.902295470E-1
9.604785490E-1,-5.653043389E-1,-1.026102161E1,-2.075773627E-1
9.701913090E-1,-2.781656384E-1,-1.045005512E1,9.870393574E-2
9.799049030E-1,-1.824527234E-1,-1.046201897E1,3.741776347E-1
9.896192780E-1,-1.896311939E-1,-1.040937710E1,5.608177781E-1
9.993327680E-1,-2.087737769E-1,-1.040937710E1,6.206383705E-1
1.009045528E0,-2.518445849E-1,-1.058166027E1,6.828517914E-1
1.018759122E0,-3.906283081E-1,-1.080209827E1,7.884350419E-1
1.028473445E0,-5.868397355E-1,-1.111795139E1,8.721838593E-1
1.038187039E0,-7.977072597E-1,-1.173559856E1,8.697910309E-1
1.047899695E0,-9.388837814E-1,-1.257368469E1,8.458628058E-1
1.057613341E0,-1.080060363E0,-1.353350544E1,1.063609719E0
1.067327664E0,-1.386640668E0,-1.455105400E1,1.468295813E0
1.077041153E0,-1.954038739E0,-1.539153290E1,5.895316601E-1
1.086753914E0,-2.885145903E0,-1.513998699E1,-2.654537678E0
1.096467507E0,-3.713660717E0,-1.412513161E1,-6.745965004E0
1.106181882E0,-4.556233406E0,-1.289193058E1,-9.994820595E0
1.115895372E0,-5.305785179E0,-1.187228870E1,-1.133539867E1
1.125608132E0,-4.956133842E0,-1.124477100E1,-9.671489716E0
1.135321726E0,-3.955335855E0,-1.128305626E1,-6.492026806E0
1.145036101E0,-3.325724363E0,-1.153460121E1,-3.714857101E0
1.154749591E0,-3.069692373E0,-1.163988590E1,-1.701596022E0
1.164462351E0,-2.971586704E0,-1.141496086E1,-3.008974493E-1
1.174175945E0,-3.096013308E0,-1.077817059E1,7.668996453E-1
1.183890320E0,-3.512663603E0,-9.980762482E0,1.458724499E0
1.193603809E0,-3.952943087E0,-9.391828537E0,1.872981906E0
1.203316570E0,-4.295415878E0,-9.209974289E0,1.973480463E0
1.213030164E0,-4.563411713E0,-9.415757179E0,1.889731646E0
1.222744539E0,-4.688137531E0,-9.796515465E0,1.867897153E0
1.232458028E0,-4.664209366E0,-1.024187946E1,1.904088616E0
1.242170789E0,-4.692923546E0,-1.052662468E1,1.939980984E0
1.251884382E0,-4.881956577E0,-1.055773163E1,1.760220170E0
1.261598757E0,-5.011168957E0,-1.043569756E1,1.444367528E0
1.271312247E0,-4.992026329E0,-1.031844902E1,1.051645517E0
1.281025007E0,-4.793421745E0,-1.018684387E1,5.488536954E-1
1.290738653E0,-4.608875751E0,-9.975976944E0,-3.367897868E-1
1.300452976E0,-4.407878399E0,-9.698409081E0,-1.663310885E0
1.310166466E0,-4.039084435E0,-9.296115875E0,-2.125424623E0
1.319879226E0,-3.634697676E0,-8.525327682E0,-1.493121386E0
1.329592872E0,-2.889931440E0,-7.866703510E0,-8.611170650E-1
1.339307195E0,-2.200499535E0,-7.304090977E0,-1.160519004E0
1.349020789E0,-1.436890006E0,-7.000202656E0,-1.933699846E0
1.358733497E0,-8.910273314E-1,-6.748657227E0,-2.652144909E0
1.368447091E0,-6.203392744E-1,-6.729514599E0,-2.666501760E0
1.378161466E0,-7.354938388E-1,-6.878168583E0,-2.398206472E0
1.387874955E0,-1.139880896E0,-6.997809887E0,-1.483550072E0
1.397587716E0,-1.412961721E0,-7.208378315E0,-2.147558331E-1
1.407301361E0,-1.774278045E0,-7.282555580E0,5.847460628E-1
1.417015684E0,-2.056930065E0,-7.249056339E0,5.440680385E-1
1.426729278E0,-2.004287958E0,-7.318448067E0,4.339981973E-1
1.436441986E0,-1.954038739E0,-7.366304398E0,3.119642437E-1
1.446155580E0,-2.128714800E0,-7.146164894E0,1.923231184E-1
1.455869955E0,-2.459223509E0,-6.729514599E0,1.417747438E-1
1.465583445E0,-2.799004316E0,-6.090332031E0,2.497508675E-1
1.475296257E0,-3.026621580E0,-5.372185707E0,4.100699723E-1
1.485009851E0,-3.160619497E0,-4.811966419E0,4.818546474E-1
1.494724226E0,-3.318545818E0,-4.462315083E0,5.943173170E-1
1.504437716E0,-3.411865950E0,-4.373780727E0,5.775675774E-1
1.514150476E0,-3.330509901E0,-4.486243248E0,1.657029688E-1
1.523864122E0,-3.040978432E0,-4.859822750E0,-4.830510616E-1
1.533578445E0,-2.526222467E0,-5.585147381E0,-1.478764415E0
1.543292039E0,-1.903789520E0,-6.703193665E0,-2.826820850E0
1.553004747E0,-1.343569875E0,-8.235497475E0,-4.775475979E0
1.562718341E0,-1.159023523E0,-1.013868904E1,-7.366005421E0
1.572432716E0,-1.779063582E0,-1.232213974E1,-1.059093189E1
1.582146205E0,-3.091227770E0,-1.457019615E1,-1.402403450E1
1.591859018E0,-3.716053486E0,-1.648325729E1,-1.558505249E1
1.601572611E0,-3.093620539E0,-1.697169304E1,-1.486899948E1
1.611286986E0,-2.312962294E0,-1.565713596E1,-1.254197979E1
1.621000476E0,-1.877468467E0,-1.361755371E1,-9.537491798E0
1.630713236E0,-1.954038739E0,-1.146999550E1,-6.451348782E0
1.640426882E0,-2.899502754E0,-9.372686386E0,-3.600001574E0
1.650141205E0,-4.283451557E0,-7.658527851E0,-1.390229940E0
1.659854799E0,-5.104488850E0,-6.504589081E0,1.752742529E-1
1.669567507E0,-5.035097122E0,-5.982655048E0,9.367900491E-1
1.679281153E0,-5.056632519E0,-6.540481567E0,2.760719061E-1
1.688995476E0,-6.203392506E0,-8.381459236E0,-1.344766378E0
1.698709070E0,-6.730112553E0,-1.022752190E1,-2.168495417E0
1.708421778E0,-5.777470112E0,-1.109402275E1,-2.046162367E0
1.718135424E0,-4.316951275E0,-1.113470078E1,-2.905783892E0
1.727849747E0,-4.527519703E0,-1.007408237E1,-4.945665359E0
1.737563341E0,-6.134000778E0,-8.874680519E0,-7.332505703E0
1.747276049E0,-7.726125240E0,-8.419744492E0,-7.392326355E0
1.756989643E0,-6.533901215E0,-8.652147293E0,-4.069293976E0
1.766704018E0,-3.251546860E0,-9.097511292E0,-8.347960114E-1
1.776417611E0,-1.989931107E0,-8.896215439E0,1.219143152E0
1.786130320E0,-2.373081923E0,-8.235497475E0,2.267797709E0
1.795843966E0,-2.743969440E0,-7.742276669E0,2.358724833E0
1.805558289E0,-2.880360365E0,-7.670492172E0,1.892124534E0
1.815271882E0,-2.976372242E0,-7.928916931E0,1.465902925E0
1.824984591E0,-3.017050266E0,-8.345566750E0,1.233500123E0
1.834698184E0,-2.983550787E0,-8.836395264E0,1.348654628E0
1.844412559E0,-3.005086184E0,-9.195617676E0,1.681257010E0
1.854126153E0,-3.064906597E0,-9.655338287E0,2.241476536E0
1.863838861E0,-2.722434044E0,-1.050269699E1,2.761018276E0
1.873552455E0,-1.934896231E0,-1.143171024E1,2.445165634E0
1.883266830E0,-6.514459848E-1,-1.201346493E1,1.935195327E0
1.892980424E0,6.532405615E-1,-1.217378426E1,1.200000525E0
1.902693132E0,1.278066397E0,-1.201107216E1,7.956135273E-2
1.912406726E0,1.502991676E0,-1.104138088E1,-1.579562068E0
1.922121101E0,9.906286001E-1,-9.841979027E0,-3.518645763E0
1.931834591E0,7.148557901E-2,-9.195617676E0,-4.438087940E0
1.941547403E0,-8.216354847E-1,-9.200403214E0,-4.042973042E0
1.951260997E0,-1.546959877E0,-9.501898766E0,-2.922533751E0
1.960975372E0,-2.068894386E0,-9.629017830E0,-1.684846282E0
1.970688861E0,-2.365604401E0,-9.482755661E0,-1.040877819E0
1.980401674E0,-2.360818624E0,-9.178867340E0,-6.026921868E-1
1.990115268E0,-2.363211393E0,-8.700003624E0,-2.267199457E-1
1.999829643E0,-2.394617319E0,-8.142177582E0,1.633101404E-1
2.009543132E0,-2.272284269E0,-7.715955734E0,5.608177781E-1
2.019255945E0,-2.210070848E0,-7.500601768E0,9.870393276E-1
2.028969539E0,-2.298605204E0,-7.656135082E0,1.113858938E0
2.038683914E0,-2.607578516E0,-7.984251022E0,9.248259664E-1
2.048397403E0,-2.746362209E0,-8.352746010E0,6.182455420E-1
2.058110216E0,-2.631506681E0,-8.740681648E0,3.669991791E-1
2.067823809E0,-2.437688112E0,-9.037391663E0,2.760719061E-1
2.077538184E0,-2.183749676E0,-9.255437851E0,3.287140131E-1
2.087251674E0,-1.968395710E0,-9.375079155E0,3.741776347E-1
2.096964486E0,-1.779063582E0,-9.463613510E0,3.215355575E-1
2.106678080E0,-1.503889084E0,-9.544969559E0,8.195417374E-2
2.116392455E0,-1.202094316E0,-9.576076508E0,-3.080759048E-1
2.126105945E0,-9.508479238E-1,-9.595218658E0,-7.845467329E-1
2.135818757E0,-8.790631890E-1,-9.540184021E0,-1.256231904E0
2.145532351E0,-1.077667475E0,-9.439684868E0,-1.730309844E0
2.155246726E0,-1.523031592E0,-9.396614075E0,-2.127817631E0
2.164960216E0,-2.150250196E0,-9.475577354E0,-2.398206472E0
2.174673028E0,-2.703291416E0,-9.638588905E0,-2.472383976E0
2.184386622E0,-3.005086184E0,-9.753444672E0,-2.402992249E0
2.194100997E0,-3.005086184E0,-9.739087105E0,-2.120639086E0
2.203814486E0,-2.748754978E0,-9.590433121E0,-1.641775489E0
2.213527299E0,-2.387438774E0,-9.422935486E0,-1.076770186E0
2.223240893E0,-1.992323995E0,-9.327222824E0,-6.050850153E-1
2.232955268E0,-1.721635938E0,-9.262616158E0,-2.386840582E-1
2.242668757E0,-1.556531072E0,-9.279366493E0,1.106680483E-1
2.252381570E0,-1.374676585E0,-9.312865257E0,3.598206937E-1
2.262095164E0,-1.120738268E0,-9.418149948E0,4.914259613E-1
2.271809539E0,-9.077770710E-1,-9.547362328E0,5.991029739E-1
2.281523028E0,-7.618148923E-1,-9.722337723E0,7.115656137E-1
2.291235789E0,-6.586244106E-1,-1.002144051E1,8.602197170E-1
2.300949434E0,-4.815555513E-1,-1.033759212E1,1.049252748E0
2.310663809E0,-2.063809484E-1,-1.066540909E1,1.266999602E0
2.320377299E0,1.193420291E-1,-1.113470078E1,1.406082392E0
2.330090059E0,2.700898647E-1,-1.200867939E1,1.166501045E0
2.339803705E0,2.150549293E-1,-1.303340626E1,7.621139884E-1
2.349518080E0,-9.122636169E-2,-1.399801254E1,5.991029739E-1
2.359231570E0,-4.791627228E-1,-1.473799324E1,7.091727853E-1
2.368944330E0,-7.618148923E-1,-1.511845207E1,8.027920127E-1
2.378657976E0,-1.175773263E0,-1.500598907E1,3.119642437E-1
2.388372299E0,-2.004287958E0,-1.435962772E1,-1.234696507E0
2.398085893E0,-2.851646423E0,-1.351914883E1,-3.647858143E0
2.407798601E0,-3.454936743E0,-1.287996578E1,-6.123532295E0
2.417512247E0,-3.979264021E0,-1.231017494E1,-7.511967659E0
2.427226570E0,-4.604089737E0,-1.169492054E1,-7.342077255E0
2.436940164E0,-5.272285461E0,-1.126869869E1,-6.235994816E0
2.446652872E0,-5.801398277E0,-1.111795139E1,-5.017449856E0
2.456366518E0,-5.834897995E0,-1.100309563E1,-3.822833300E0
2.466080841E0,-5.602495193E0,-1.071326542E1,-2.553740025E0
2.475794434E0,-5.202893734E0,-1.015783119E1,-1.301695466E0
2.485507143E0,-4.783850670E0,-9.492327690E0,-1.070788130E-1
2.495220736E0,-4.676173687E0,-8.934500694E0,6.972087026E-1
2.504935111E0,-4.858027935E0,-8.642576218E0,1.312762380E0
2.514648705E0,-5.171487808E0,-8.661719322E0,1.858325839E0
2.524361414E0,-5.442175865E0,-8.953642845E0,2.117049932E0
2.534075007E0,-5.480461121E0,-9.324830055E0,2.148156643E0
2.543789382E0,-5.329713345E0,-9.611968994E0,2.030908108E0
2.553502872E0,-5.097310543E0,-9.669695854E0,2.040479422E0
2.563215684E0,-4.869992256E0,-9.621838570E0,2.021337032E0
2.572929278E0,-4.577768803E0,-9.693623543E0,2.188834429E0
2.582643653E0,-4.774279594E0,-9.597611427E0,1.748256087E0
2.592357143E0,-4.874777794E0,-9.636196136E0,1.370190024E0
2.602069903E0,-4.659423828E0,-9.722337723E0,9.966106415E-1
2.611783549E0,-3.931407690E0,-9.700801849E0,2.691925503E-2
2.621497872E0,-3.273082256E0,-9.226723671E0,-1.174875975E0
2.631211466E0,-2.571686029E0,-8.855537415E0,-1.694417477E0
2.640924174E0,-1.113559842E0,-8.666504860E0,-1.948056698E0
2.650637768E0,1.241276711E-1,-8.448458672E0,-2.767000198E0
2.660352143E0,1.311565876E0,-8.328817368E0,-3.075674295E0
2.670065632E0,1.553241014E0,-8.324031830E0,-3.008675337E0
2.679778445E0,9.308080077E-1,-8.182855606E0,-1.835594058E0
2.689492039E0,3.251247704E-1,-8.099106789E0,-7.486543655E-1
2.699206414E0,-3.547359705E-1,-8.101499557E0,-1.668993831E-1
2.708919903E0,-1.233201027E0,-8.041678429E0,1.704886109E-1
2.718632664E0,-2.035394669E0,-7.986643791E0,2.521436810E-1
2.728346309E0,-2.629113913E0,-7.799704552E0,2.213360928E-2
2.738060632E0,-2.794218540E0,-7.550850868E0,-1.860419661E-1
2.747774226E0,-2.877967358E0,-7.172485828E0,-3.080759048E-1
2.757486934E0,-3.000300407E0,-6.631408691E0,-2.937189937E-1
2.767200528E0,-3.186940670E0,-5.987440586E0,-2.147558331E-1
2.776914903E0,-3.265903711E0,-5.348257542E0,3.409772366E-2
2.786628393E0,-3.311367512E0,-4.773681164E0,3.191427290E-1
2.796341205E0,-3.330509901E0,-4.361816406E0,5.201398134E-1
2.806054799E0,-3.325724363E0,-4.246961117E0,5.105685592E-1
2.815769122E0,-3.253939629E0,-4.395316124E0,1.537388563E-1
2.825482716E0,-3.129513025E0,-4.826323509E0,-4.663013220E-1
2.835195424E0,-2.959622622E0,-5.489434242E0,-1.141376376E0
2.844909070E0,-2.758326292E0,-6.286842346E0,-1.916949987E0
2.854623393E0,-2.700898647E0,-7.170093060E0,-3.142673492E0
2.864336986E0,-2.868396044E0,-8.134998322E0,-5.110770226E0
2.874049695E0,-3.170190811E0,-9.308079720E0,-7.751548767E0
2.883763289E0,-3.438187122E0,-1.075424194E1,-1.024606609E1
2.893477664E0,-3.438187122E0,-1.247797203E1,-1.195783234E1
2.903191153E0,-2.969193697E0,-1.416341591E1,-1.214207935E1
2.912903914E0,-2.030609131E0,-1.509213066E1,-1.070339489E1
2.922617559E0,-6.825526357E-1,-1.491984749E1,-8.601300240E0
2.932331882E0,4.208376706E-1,-1.392622757E1,-6.556932449E0
2.942045372E0,5.742774606E-1,-1.274118233E1,-5.062913418E0
2.951758184E0,6.191428751E-2,-1.162792206E1,-3.837190151E0
2.961471778E0,-5.294120312E-1,-1.067019463E1,-3.068495989E0
2.971186153E0,-1.096810102E0,-9.949655533E0,-2.924926519E0
2.980899643E0,-1.891825438E0,-9.561718941E0,-2.944069147E0
2.990612403E0,-3.435794115E0,-1.034716320E1,-3.777369738E0
3.000325997E0,-5.332106113E0,-1.214985561E1,-3.853940010E0
3.010040372E0,-5.834897995E0,-1.334925842E1,-2.822035313E0
3.019753861E0,-3.984049797E0,-1.294935799E1,-3.070888758E0
3.029466622E0,-3.342474222E0,-1.073001480E1,-3.920938969E0
3.039180268E0,-4.977669239E0,-8.151748657E0,-4.042973042E0
3.048894591E0,-7.328617573E0,-6.353841305E0,-3.784548044E0
3.058608184E0,-9.567103386E0,-5.314758301E0,-3.212364435E0
3.068320893E0,-9.093025208E0,-5.099104881E0,-2.050948143E0
3.078034486E0,-6.086144447E0,-5.786443233E0,-7.319046259E-1
3.087748861E0,-4.398307323E0,-6.753442764E0,5.273182988E-1
3.097462351E0,-4.369593143E0,-7.541279793E0,1.726720691E0
3.107175111E0,-4.297808647E0,-8.041678429E0,1.877767563E0
3.116888705E0,-4.034298897E0,-8.434102058E0,1.331904888E0
3.126603080E0,-3.797409534E0,-8.826823235E0,1.068395257E0
3.136316570E0,-3.608376503E0,-9.207581520E0,1.406082392E0
3.146029330E0,-3.409473181E0,-9.513862610E0,1.829612017E0
3.155742976E0,-3.275475025E0,-9.758230209E0,2.200798512E0
3.165457299E0,-3.167798042E0,-1.018445110E1,2.349153519E0
3.175170893E0,-2.870789051E0,-1.058883858E1,2.207977057E0
3.184883601E0,-2.248355865E0,-1.092413235E1,2.231905222E0
3.194597195E0,-1.534995675E0,-1.111077309E1,2.389831543E0
3.204311518E0,-7.761718631E-1,-1.106530952E1,2.361117840E0
3.214025111E0,3.559323773E-2,-1.086431217E1,1.942373753E0
3.223737820E0,7.728816867E-1,-1.046919727E1,3.550350666E-1
3.233451414E0,1.098604679E0,-9.923335075E0,-2.481955290E0
3.243165789E0,6.197410822E-1,-9.389435768E0,-4.234398842E0
3.252879278E0,-3.164508045E-1,-9.171689034E0,-4.141078472E0
3.262592039E0,-1.494317770E0,-9.257830620E0,-2.889034271E0
3.272305632E0,-2.504687071E0,-9.348757744E0,-1.454836130E0
3.282020007E0,-2.921038151E0,-9.241081238E0,-2.889333367E-1
3.291733497E0,-2.834896564E0,-8.951250076E0,4.890331328E-1
3.301446257E0,-2.614757061E0,-8.530113220E0,8.530412912E-1
3.311159851E0,-2.487937450E0,-8.103892326E0,1.027717352E0
3.320874226E0,-2.473580360E0,-7.842775345E0,1.097109199E0
3.330587716E0,-2.425724030E0,-7.998608112E0,8.913264275E-1
3.340300476E0,-2.248355865E0,-8.510971069E0,5.009972453E-1
3.350014070E0,-1.879861236E0,-9.135796547E0,2.688934505E-1
3.359728445E0,-1.561316729E0,-9.607182503E0,1.680957973E-1
3.369441934E0,-1.377069473E0,-9.849157333E0,2.306082845E-1
3.379154695E0,-1.264606714E0,-1.004297543E1,2.234298140E-1
3.388868289E0,-1.099202871E0,-1.025623608E1,-1.794616925E-3
3.398582664E0,-9.125627279E-1,-1.022034359E1,-3.678964674E-1
3.408296153E0,-8.383852243E-1,-9.971191406E0,-6.481558084E-1
3.418008914E0,-7.929216027E-1,-9.734301567E0,-9.209375978E-1
3.427722559E0,-9.005986452E-1,-9.470791817E0,-1.215553880E0
3.437436882E0,-1.269392371E0,-9.229117393E0,-1.323230863E0
3.447150372E0,-1.860718727E0,-9.059226990E0,-1.213161111E0
3.456863132E0,-2.399402857E0,-9.034998894E0,-9.930213690E-1
3.466576726E0,-2.722434044E0,-9.064012527E0,-9.257232547E-1
3.476291101E0,-2.794218540E0,-9.032606125E0,-9.762716293E-1
3.486004591E0,-2.686541557E0,-8.970393181E0,-9.595218897E-1
3.495717351E0,-2.605185747E0,-8.932107925E0,-8.443672657E-1
3.505430945E0,-2.691327333E0,-8.994320869E0,-6.744768620E-1
3.515145320E0,-2.799004316E0,-9.176474571E0,-4.854438901E-1
3.524858809E0,-2.873181820E0,-9.372686386E0,-3.391826153E-1
3.534571570E0,-2.925823927E0,-9.442078590E0,-2.338984162E-1
3.544285164E0,-2.978765011E0,-9.475577354E0,-3.080759048E-1
3.553999539E0,-2.882753134E0,-9.525827408E0,-5.524429083E-1
3.563713028E0,-2.667398930E0,-9.573683739E0,-8.611170650E-1
3.573425789E0,-2.375474691E0,-9.676874161E0,-9.619147182E-1
3.583139382E0,-1.956431627E0,-9.810872078E0,-7.055835724E-1
3.592853705E0,-1.604387641E0,-9.777372360E0,-2.482553422E-1
3.602567299E0,-1.338784218E0,-9.609575272E0,1.417747438E-1
3.612280007E0,-1.125523925E0,-9.480362892E0,5.225326419E-1
3.621993601E0,-8.862416744E-1,-9.492327690E0,9.559326172E-1
3.631707924E0,-6.586244106E-1,-9.760622978E0,1.339083314E0
3.641421414E0,-5.629115105E-1,-1.042612648E1,1.365404367E0
3.651134174E0,-6.681957245E-1,-1.145085239E1,1.001396298E0
3.660847820E0,-8.694919348E-1,-1.260718441E1,1.044467092E0
3.670562143E0,-1.147059321E0,-1.360558987E1,1.434796333E0
3.680275632E0,-1.776670814E0,-1.418255901E1,1.499402523E0
3.689988393E0,-2.490330219E0,-1.429502201E1,1.262213945E0
3.699701986E0,-3.277868032E0,-1.390469265E1,4.124628007E-1
3.709416361E0,-3.253939629E0,-1.347368526E1,-7.390831113E-1
3.719129851E0,-3.081656456E0,-1.280818176E1,-2.075175524E0
3.728842611E0,-3.881158352E0,-1.187946701E1,-3.918546200E0
3.738556205E0,-5.758327484E0,-1.090259743E1,-6.729215622E0
3.748270528E0,-7.505985737E0,-1.021077251E1,-9.688240051E0
3.757984122E0,-8.075776100E0,-9.937691689E0,-1.068664455E1
3.767696830E0,-7.182655334E0,-1.022991467E1,-8.713762283E0
3.777410424E0,-5.707779408E0,-1.076381397E1,-5.072484970E0
3.787124747E0,-4.680959225E0,-1.115623665E1,-1.866700768E0
3.796838236E0,-4.460520744E0,-1.129741287E1,1.609173268E-1
3.806550997E0,-4.575376034E0,-1.117777157E1,1.262213945E0
3.816264591E0,-4.759922504E0,-1.091216850E1,1.820040703E0
3.825978966E0,-5.245964527E0,-1.058883858E1,1.925624013E0
3.835692455E0,-5.712564945E0,-1.003818989E1,1.767398596E0
3.845405216E0,-6.081358910E0,-9.358329773E0,1.686042666E0
3.855118809E0,-6.251249313E0,-8.628219604E0,1.719542146E0
3.864833132E0,-6.153143406E0,-8.024929047E0,2.772982359E0
3.874546726E0,-5.976074696E0,-7.708777428E0,2.454736948E0
3.884259434E0,-5.561817169E0,-8.017750740E0,2.538485765E0
3.893973028E0,-5.413462162E0,-8.436494827E0,2.196012974E0
3.903687351E0,-5.513960838E0,-8.776574135E0,1.415653706E0
3.913400841E0,-5.542674541E0,-9.200403214E0,-2.961117923E-1
3.923113601E0,-4.692923546E0,-9.549755096E0,-1.979163408E0
3.932827195E0,-3.637090445E0,-9.604789734E0,-3.707678795E0
3.942541518E0,-2.392224550E0,-9.552147865E0,-4.270291328E0
3.952255111E0,-1.293320656E0,-9.559326172E0,-3.396611691E0
3.961967820E0,-7.785646915E-1,-9.248259544E0,-2.618346214E0
3.971681414E0,-2.542374134E-1,-8.984749794E0,-1.289731383E0
3.981395736E0,-1.752742529E-1,-8.764610291E0,3.837489188E-1
3.991109226E0,-4.217349887E-1,-8.568398476E0,1.293320656E0
4.000821986E0,-9.628120065E-1,-8.333602905E0,1.363011599E0
4.010535580E0,-1.118345499E0,-8.063214302E0,9.894321561E-1
4.020249903E0,-1.226022482E0,-7.742276669E0,-3.050848842E-2
4.029963497E0,-1.338784218E0,-7.220342159E0,-9.882357717E-1
4.039676205E0,-1.415354609E0,-6.636194706E0,-1.438086390E0
4.049389799E0,-1.606780410E0,-6.006583214E0,-1.562812328E0
4.059104122E0,-1.920539260E0,-5.489434242E0,-1.438086390E0
4.068817611E0,-2.076072693E0,-5.171188831E0,-1.182054400E0
4.078530372E0,-2.102393866E0,-4.991427898E0,-9.137591720E-1
4.088243966E0,-2.147857428E0,-4.816751957E0,-7.079764009E-1
4.097958289E0,-2.248355865E0,-4.673182487E0,-4.591228366E-1
4.107671882E0,-2.440080881E0,-4.613361835E0,-2.697907388E-1
4.117384539E0,-2.875574589E0,-4.613361835E0,-3.801597059E-1
4.127098184E0,-3.423830032E0,-4.699503899E0,-4.950151742E-1
4.136812507E0,-4.108775616E0,-4.967499733E0,-7.031907439E-1
4.146525997E0,-4.853242397E0,-5.360221863E0,-1.225125194E0
4.156238757E0,-5.504389286E0,-5.836692810E0,-2.029412746E0
4.165952351E0,-5.877968788E0,-6.432804585E0,-3.109174013E0
4.175666674E0,-6.157928944E0,-7.148557663E0,-4.885844707E0
4.185380164E0,-6.004788399E0,-8.362317085E0,-7.452147007E0
4.195092924E0,-5.547460079E0,-9.875477791E0,-1.070578766E1
4.204806518E0,-4.628317356E0,-1.206132126E1,-1.457707596E1
4.214520893E0,-3.450151205E0,-1.454626751E1,-1.697109413E1
4.224234382E0,-2.150250196E0,-1.622214127E1,-1.476371574E1
4.233947143E0,-8.383852243E-1,-1.640908051E1,-9.750452995E0
4.243660736E0,2.461616248E-1,-1.529342651E1,-5.259125233E0
4.253375059E0,3.945166469E-1,-1.355773354E1,-3.219542980E0
4.263088549E0,-4.600201547E-1,-1.136471081E1,-3.106781006E0
4.272801309E0,-1.262213945E0,-9.454042435E0,-3.669393539E0
4.282514903E0,-1.211665511E0,-8.276175499E0,-3.034996510E0
4.292229278E0,-9.723833203E-1,-8.087141991E0,-1.869093537E0
4.301942768E0,-1.781456470E0,-9.178867340E0,-1.715952992E0
4.311655476E0,-2.985943556E0,-1.064626598E1,-1.629811287E0
4.321369070E0,-3.835694790E0,-1.175234795E1,-1.651346684E0
4.331083445E0,-3.984049797E0,-1.171406364E1,-2.556132793E0
4.340796934E0,-4.791028976E0,-1.020598698E1,-3.818047523E0
4.350509695E0,-5.887540340E0,-8.633005142E0,-5.062913418E0
4.360223289E0,-7.022336483E0,-7.890631676E0,-7.198507786E0
4.369937611E0,-8.288737297E0,-8.292924881E0,-7.569395542E0
4.379651101E0,-7.342974663E0,-8.850751877E0,-5.034199715E0
4.389363861E0,-4.709673405E0,-8.726325035E0,-1.457229018E0
4.399077455E0,-3.414258718E0,-8.032107353E0,1.619043589E0
4.408791778E0,-3.462115288E0,-7.239484787E0,3.292523861E0
4.418505372E0,-3.672982693E0,-6.815955162E0,3.297309637E0
4.428218080E0,-3.931407690E0,-6.798906326E0,2.483450890E0
4.437931674E0,-4.027120590E0,-7.138986588E0,1.765005827E0
4.447645997E0,-3.943371773E0,-7.591528893E0,1.489831209E0
4.457359486E0,-3.890729666E0,-8.079963684E0,1.516152263E0
4.467072247E0,-3.955335855E0,-8.671290398E0,1.815255046E0
4.476785841E0,-4.199702740E0,-9.372686386E0,2.014158487E0
4.486500164E0,-4.031906128E0,-1.049073315E1,1.944766641E0
4.496213653E0,-3.057728291E0,-1.154417324E1,1.954337835E0
4.505926414E0,-1.882254124E0,-1.204217911E1,2.138585329E0
4.515640007E0,-1.096810102E0,-1.208764267E1,2.705983400E0
4.525354382E0,-5.581258535E-1,-1.181216908E1,3.790530205E0
4.535067872E0,-9.601201117E-2,-1.135513973E1,4.144967079E0
4.544780632E0,2.724826932E-1,-1.073480034E1,2.270190477E0
4.554494226E0,1.280459166E0,-1.034477043E1,-1.155733347E0
4.564208549E0,1.881356835E0,-9.894620895E0,-5.161019325E0
4.573922039E0,1.670788407E0,-9.444471359E0,-7.176972389E0
4.583634799E0,8.949156404E-1,-9.193224907E0,-6.104389668E0
4.593348393E0,-1.393819153E-1,-9.059226990E0,-3.669393539E0
4.603062768E0,-1.527817249E0,-8.977571487E0,-1.680060625E0
4.612776257E0,-2.449652195E0,-8.960822105E0,-5.069792867E-1
4.622489018E0,-2.844467878E0,-8.800502777E0,4.244269133E-1
4.632202611E0,-2.753540754E0,-8.609076500E0,1.099501967E0
4.641916934E0,-2.188535452E0,-8.798110008E0,1.391725421E0
4.651630424E0,-1.855933070E0,-9.059226990E0,1.233500123E0
4.661343184E0,-1.858325839E0,-9.365508080E0,3.574278951E-1
4.671056778E0,-1.470389485E0,-9.820443153E0,-5.380859971E-1
4.680771153E0,-9.819545746E-1,-1.007647514E1,-1.138983607E0
4.690484643E0,-6.801598072E-1,-9.973584175E0,-1.421336651E0
4.700197403E0,-5.988038778E-1,-9.727123260E0,-1.337587833E0
4.709910997E0,-6.876373887E-1,-9.485149384E0,-1.129412293E0
4.719625320E0,-9.747761488E-1,-9.336793900E0,-1.019342422E0
4.729338809E0,-1.237986565E0,-9.183652878E0,-1.007378340E0
4.739051570E0,-1.625923038E0,-9.068798065E0,-8.994022012E-1
4.748765216E0,-1.453639746E0,-9.162117958E0,-6.074778438E-1
4.758479539E0,-1.338784218E0,-9.293723106E0,-7.510471940E-1
4.768193028E0,-1.554138303E0,-9.195617676E0,-9.161519408E-1
4.777905789E0,-1.812862277E0,-9.121439934E0,-9.475577474E-1
4.787619382E0,-2.155035973E0,-9.054141998E0,-1.031306505E0
4.797333757E0,-2.442473650E0,-9.027820587E0,-1.110269666E0
4.807047247E0,-2.633899450E0,-9.116654396E0,-1.203589797E0
4.816760007E0,-2.808575630E0,-9.214759827E0,-1.213161111E0
4.826473601E0,-2.988336325E0,-9.288937569E0,-1.172483087E0
4.836187924E0,-2.969193697E0,-9.363115311E0,-1.100698471E0
4.845901518E0,-2.729612350E0,-9.387042999E0,-9.978070259E-1
4.855614226E0,-2.437688112E0,-9.355937004E0,-8.754739761E-1
4.865327820E0,-2.178964138E0,-9.401400566E0,-7.582256794E-1
4.875042143E0,-2.044965982E0,-9.535398483E0,-7.486543655E-1
4.884755632E0,-1.927717686E0,-9.736694336E0,-7.606185079E-1
4.894468393E0,-1.865504384E0,-9.916155815E0,-6.409773827E-1
4.904182039E0,-1.731207132E0,-1.003818989E1,-2.554338276E-1
4.913896361E0,-1.537388563E0,-1.017458057E1,2.018944174E-1
4.923609851E0,-1.338784218E0,-1.033519936E1,5.823532343E-1
4.933322611E0,-1.199701428E0,-1.051226807E1,8.841479421E-1
4.943036205E0,-1.020239711E0,-1.075663471E1,1.037288666E0
4.952750580E0,-7.785646915E-1,-1.105573750E1,1.077966571E0
4.962464070E0,-5.916253924E-1,-1.135753250E1,9.726824164E-1
4.972176830E0,-5.700899959E-1,-1.196560860E1,6.349952817E-1
4.981890424E0,-6.586244106E-1,-1.298794174E1,2.497508675E-1
4.991604799E0,-6.681957245E-1,-1.419691563E1,6.520441920E-2
5.001318289E0,-4.743770957E-1,-1.521416473E1,-2.572284266E-2
5.011031049E0,-3.738785386E-1,-1.572892094E1,-5.069792867E-1
5.020744643E0,-7.091727853E-1,-1.527428436E1,-1.601097465E0
5.030459018E0,-1.226022482E0,-1.424477196E1,-3.006282568E0
5.040172507E0,-1.597209096E0,-1.361516094E1,-4.054936886E0
5.049885268E0,-2.033001900E0,-1.309801197E1,-4.529015064E0
5.059598861E0,-2.765504837E0,-1.253539944E1,-4.356731892E0
5.069313236E0,-3.725624800E0,-1.192014503E1,-4.100400925E0
5.079026726E0,-4.721637249E0,-1.143649578E1,-4.004687786E0
5.088739486E0,-5.490032673E0,-1.099591732E1,-3.873082638E0
5.098453132E0,-5.866004944E0,-1.054098225E1,-3.604787350E0
5.108167455E0,-5.772684574E0,-9.985548019E0,-3.006282568E0
5.117881049E0,-5.528317451E0,-9.351150513E0,-2.225923300E0
5.127593757E0,-5.401497841E0,-8.786145210E0,-1.222732425E0
5.137307351E0,-5.643173218E0,-8.402995110E0,-3.104687333E-1
5.147021674E0,-5.913861275E0,-8.419744492E0,3.478565812E-1
5.156735268E0,-5.659923077E0,-8.719146729E0,9.056833982E-1
5.166447976E0,-5.070989609E0,-9.209974289E0,1.358225942E0
5.176161570E0,-4.726422787E0,-9.825228691E0,1.475474238E0
5.185875945E0,-4.635495663E0,-1.012193871E1,1.365404367E0
5.195589434E0,-4.527519703E0,-1.021555805E1,1.609472275E0
5.205302195E0,-4.271487713E0,-1.030648518E1,1.554437399E0
5.215015841E0,-4.007977962E0,-1.006929684E1,1.525723577E0
5.224730164E0,-3.787838221E0,-9.607182503E0,1.425225019E0
5.234443653E0,-3.538984776E0,-9.265008926E0,1.104287624E0
5.244156466E0,-3.055335522E0,-9.008678436E0,1.161715388E0
5.253870059E0,-2.353640079E0,-8.805288315E0,2.097907305E0
5.263584434E0,-2.217249393E0,-8.436494827E0,2.157727718E0
5.273297924E0,-1.465603828E0,-8.393424034E0,1.752742529E-1
5.283010684E0,-8.718847632E-1,-8.446065903E0,-2.599203587E0
5.292724330E0,-6.801598072E-1,-8.506185532E0,-4.081258297E0
5.302438653E0,-7.211369276E-1,-8.556434631E0,-4.955236435E0
5.312152247E0,-7.546364665E-1,-8.716753960E0,-4.232006073E0
5.321864955E0,-1.245165110E0,-8.819644928E0,-3.092424154E0
5.331578549E0,-1.946860313E0,-8.867501259E0,-1.835594058E0
5.341292924E0,-2.722434044E0,-8.747860909E0,-5.715855360E-1
5.351006414E0,-3.359223843E0,-8.414958954E0,7.956135273E-2
5.360719174E0,-3.397509098E0,-8.010572433E0,4.148556292E-1
5.370432820E0,-3.263510942E0,-7.412067413E0,1.441675574E-1
5.380147143E0,-2.808575630E0,-6.878168583E0,5.324030295E-2
5.389860736E0,-2.061715841E0,-6.516553402E0,1.734796353E-2
5.399573445E0,-1.982752681E0,-6.008975983E0,-5.117649436E-1
5.409287091E0,-2.085644007E0,-5.515755177E0,-8.347960114E-1
5.419001414E0,-2.284248352E0,-5.096712112E0,-7.558328509E-1
5.428715007E0,-2.389831543E0,-4.776073933E0,-3.176472187E-1
5.438427716E0,-2.327319145E0,-4.536492825E0,3.167499006E-1
5.448141309E0,-2.181356907E0,-4.383351803E0,9.439685345E-1
5.457855684E0,-2.004287958E0,-4.395316124E0,1.575972795E0
5.467569278E0,-1.956431627E0,-4.536492825E0,1.944766641E0
5.477281986E0,-2.085644007E0,-4.850251675E0,1.721935034E0
5.486995580E0,-2.047358990E0,-5.439185143E0,8.650053740E-1
5.496709955E0,-1.755135417E0,-6.286842346E0,-2.602194548E-1
5.506423445E0,-1.503889084E0,-7.304090977E0,-1.694417477E0
5.516136257E0,-1.173380375E0,-8.379066467E0,-3.885046721E0
5.525849851E0,-3.738785386E-1,-9.513862610E0,-7.212864876E0
5.535564226E0,7.441678643E-1,-1.098395348E1,-1.151486111E1
5.545277820E0,1.211067319E0,-1.299990654E1,-1.581476307E1
5.554990528E0,-4.193421602E-1,-1.537238979E1,-1.570230007E1
5.564704122E0,-2.507079840E0,-1.740958023E1,-1.387567902E1
5.574418497E0,-3.074477911E0,-1.782862282E1,-1.175683498E1
5.584132091E0,-2.892324448E0,-1.662922096E1,-9.827023506E0
5.593844799E0,-3.553341627E0,-1.439552021E1,-7.864011765E0
5.603558393E0,-5.111667156E0,-1.122084236E1,-5.137091160E0
5.613272768E0,-6.153143406E0,-8.163712502E0,-2.510669231E0
5.622986361E0,-6.914659023E0,-5.709873199E0,-8.730811477E-1
5.632699070E0,-7.089335442E0,-3.957130432E0,-2.865405083E-1
5.642412716E0,-6.423831463E0,-3.076272726E0,-4.007977992E-2
5.652127039E0,-6.722934246E0,-3.179163933E0,1.561316848E-1
5.661840632E0,-9.404391289E0,-5.079962254E0,-8.587242365E-1
5.671553341E0,-1.104437160E1,-8.501399994E0,-1.840379715E0
5.681266986E0,-9.897611618E0,-1.201346493E1,-3.200400352E0
5.690981361E0,-6.531508446E0,-1.510170174E1,-7.425826073E0
5.700694851E0,-2.691327333E0,-1.553510189E1,-1.088285637E1
5.710407664E0,-1.776670814E0,-1.356969738E1,-9.515956879E0
5.720121257E0,-2.863610506E0,-1.159920788E1,-4.619942188E0
5.729835632E0,-2.722434044E0,-1.004536819E1,6.520441920E-2
5.739549226E0,-1.499103427E0,-8.848359108E0,3.254238844E0
5.749261934E0,-1.156630635E0,-8.137392044E0,4.082454681E0
5.758975580E0,-1.539781332E0,-7.797311783E0,3.225524902E0
5.768689955E0,-1.901396751E0,-7.567600727E0,2.207977057E0
5.778403445E0,-1.896611094E0,-7.524529934E0,1.602293849E0
5.788116257E0,-1.477568030E0,-7.617849827E0,1.607079506E0
5.797829903E0,-1.379462242E0,-7.739883900E0,1.920838356E0
5.807544226E0,-1.901396751E0,-7.854739666E0,2.428116798E0
5.817257820E0,-2.633899450E0,-8.127820015E0,2.377867460E0
5.826970528E0,-3.014657497E0,-8.829216003E0,2.279761791E0
5.836684174E0,-2.432902336E0,-1.023948669E1,1.911267042E0
5.846398549E0,-1.072881818E0,-1.166620636E1,1.121037364E0
5.856112143E0,4.881358147E-1,-1.272443295E1,4.459623098E-1
5.865824851E0,1.455135226E0,-1.298525047E1,-2.506481707E-1
5.875538497E0,1.223031521E0,-1.207807159E1,-1.339980721E0
5.885252872E0,2.006980032E-1,-1.067976570E1,-2.702394009E0
5.894966466E0,-1.036989570E0,-9.796515465E0,-3.504288673E0
5.904679174E0,-2.071287155E0,-9.427721024E0,-3.501895905E0
5.914392820E0,-2.406581402E0,-9.169296265E0,-2.996711254E0
5.924107195E0,-2.502294302E0,-8.834002495E0,-2.479562521E0
5.933820684E0,-2.267498493E0,-8.450851440E0,-1.897807479E0
5.943533497E0,-1.875075698E0,-8.137392044E0,-1.308874011E0
5.953247143E0,-1.834397674E0,-7.840382576E0,-7.438687682E-1
5.962961466E0,-1.843968987E0,-7.668099403E0,-1.884347796E-1
5.972675059E0,-1.906182289E0,-7.656135082E0,4.483551383E-1
5.982387820E0,-2.066501379E0,-7.897810459E0,9.870393276E-1
5.992101466E0,-2.241177559E0,-8.278568268E0,1.307677627E0
6.001815841E0,-2.370688915E0,-8.702396393E0,1.331904888E0
6.011529330E0,-2.526222467E0,-9.073583603E0,1.070788145E0
6.021242143E0,-2.545365095E0,-9.384650230E0,6.230311990E-1
6.030955789E0,-2.317747831E0,-9.585647583E0,2.473580390E-1
6.040670164E0,-2.035394669E0,-9.640981674E0,-8.075776696E-2
6.050383653E0,-1.721635938E0,-9.506684303E0,-3.655036688E-1
6.060096466E0,-1.520638824E0,-9.360722542E0,-6.577271223E-1
6.069810111E0,-1.369890928E0,-9.389435768E0,-9.762716293E-1
6.079524486E0,-1.271785259E0,-9.399007797E0,-1.256231904E0
6.089238080E0,-1.283749342E0,-9.341579437E0,-1.476371527E0
6.098950789E0,-1.405783296E0,-9.260223389E0,-1.596311808E0
6.108664434E0,-1.640279889E0,-9.166903496E0,-1.555633783E0
6.118378809E0,-1.949253201E0,-9.087940216E0,-1.399801254E0
6.128092403E0,-2.190928221E0,-9.104690552E0,-1.234696507E0
6.137805164E0,-2.416152716E0,-9.152546883E0,-1.112662554E0
6.147518809E0,-2.550150633E0,-9.217152596E0,-1.103091240E0
6.157233132E0,-2.581257343E0,-9.243474007E0,-1.124626637E0
6.166946726E0,-2.547757864E0,-9.312865257E0,-1.143769264E0
6.176659486E0,-2.385046005E0,-9.406186104E0,-1.153340459E0
6.186373132E0,-2.281855583E0,-9.427721024E0,-1.131805062E0
6.196087507E0,-2.114357948E0,-9.568898201E0,-1.143769264E0
6.205801101E0,-1.889432549E0,-9.865906715E0,-1.074377418E0
6.215513861E0,-1.735992789E0,-1.027059269E1,-9.089735150E-1
6.225227455E0,-1.506281853E0,-1.063669491E1,-6.074778438E-1
6.234941882E0,-1.245165110E0,-1.086670494E1,-2.338984162E-1
6.244655372E0,-8.599206209E-1,-1.092652512E1,6.759724021E-2
6.254368184E0,-3.858426511E-1,-1.088106155E1,3.311068416E-1
6.264081830E0,6.669992954E-2,-1.094806099E1,4.962115884E-1
6.273796205E0,4.160520434E-1,-1.152263737E1,3.382852972E-1
6.283509799E0,7.369893789E-1,-1.270768261E1,-1.860419661E-1
6.293222559E0,8.901300430E-1,-1.411316681E1,-7.917252183E-1
6.302936205E0,7.178468108E-1,-1.550878048E1,-1.469193101E0
6.312650580E0,3.681955934E-1,-1.649282837E1,-2.525026083E0
6.322364174E0,-3.882354796E-1,-1.650479317E1,-3.743870020E0
6.332076934E0,-1.623530149E0,-1.542981815E1,-4.852046013E0
6.341790528E0,-2.633899450E0,-1.400758362E1,-5.397908688E0
6.351504955E0,-3.031407118E0,-1.299512100E1,-5.170590401E0
6.361218549E0,-3.084049225E0,-1.253300667E1,-4.361517429E0
6.370931257E0,-3.330509901E0,-1.211635685E1,-3.588037491E0
6.380644903E0,-3.706482172E0,-1.150110245E1,-3.025425196E0
6.390359330E0,-3.936193228E0,-1.084516907E1,-2.369492531E0
6.400072924E0,-3.895515203E0,-1.021795082E1,-1.531705618E0
6.409785632E0,-3.759124279E0,-9.616754532E0,-5.356931686E-1
6.419499278E0,-3.945764542E0,-9.025427818E0,4.962115884E-1
6.429213705E0,-4.355236530E0,-8.568398476E0,1.226321578E0
6.438927299E0,-4.798207760E0,-8.443673134E0,1.642971873E0
6.448640007E0,-5.356034279E0,-8.618648529E0,1.928016901E0
6.458353705E0,-5.820540905E0,-9.020642281E0,1.947159410E0
6.468068080E0,-6.093322754E0,-9.542576790E0,1.882553220E0
6.477781674E0,-5.921039581E0,-9.904191971E0,1.638186216E0
6.487494434E0,-5.351248741E0,-9.851550102E0,1.398903966E0
6.497208080E0,-4.759922504E0,-9.542576790E0,1.133001566E0
6.506922455E0,-4.281058788E0,-9.262616158E0,6.182455420E-1
6.516636049E0,-3.826123476E0,-9.229117393E0,-1.740778536E-1
6.526348809E0,-3.692125320E0,-9.363115311E0,-9.571290612E-1
6.536062455E0,-3.723232031E0,-9.607182503E0,-1.761416554E0
6.545776830E0,-3.527020693E0,-9.779765129E0,-1.131805062E0
6.555490424E0,-2.995514870E0,-9.518648148E0,-5.117649436E-1
6.565203184E0,-1.918146491E0,-9.293723106E0,-1.735095501E0
6.574916830E0,-4.576273263E-1,-9.064012527E0,-2.580060959E0
6.584631205E0,6.005984545E-1,-8.984749794E0,-2.393420935E0
6.594344799E0,1.268495083E0,-9.059226990E0,-2.704786777E0
6.604057559E0,9.164510965E-1,-8.807681084E0,-2.548954248E0
6.613771205E0,3.705884218E-1,-8.462815285E0,-2.218744755E0
6.623485632E0,-1.369891018E-1,-8.123034477E0,-1.754238129E0
6.633199226E0,-8.072785139E-1,-7.670492172E0,-1.402194023E0
6.642911986E0,-1.202094316E0,-7.234699249E0,-4.040879309E-1
6.652625632E0,-1.611566067E0,-6.626623154E0,2.401795685E-1
6.662340007E0,-2.018645048E0,-6.023332596E0,5.943173170E-1
6.672053601E0,-2.308176517E0,-5.546862125E0,6.637091637E-1
6.681766361E0,-2.492722988E0,-5.142475128E0,7.645068169E-1
6.691480007E0,-2.545365095E0,-4.898108006E0,1.202393413E0
6.701194434E0,-2.636292458E0,-4.711467743E0,1.535294771E0
6.710908028E0,-2.739183664E0,-4.548456669E0,1.633400559E0
6.720620789E0,-2.839682341E0,-4.414458752E0,1.540080428E0
6.730334434E0,-3.012264490E0,-4.383351803E0,1.288534999E0
6.740048809E0,-3.273082256E0,-4.553242207E0,8.051848412E-1
6.749762455E0,-3.220440149E0,-4.986642361E0,1.441675574E-1
6.759475216E0,-2.775076151E0,-5.786443233E0,-5.380859971E-1
6.769188861E0,-2.126322031E0,-6.935596466E0,-1.747059584E0
6.778903236E0,-1.135095239E0,-8.355138779E0,-3.832404613E0
6.788616830E0,-3.092723191E-1,-9.758230209E0,-6.269494534E0
6.798329591E0,-2.638086975E-1,-1.097916794E1,-8.572586060E0
6.808043289E0,-1.111167073E0,-1.225992584E1,-1.057418251E1
6.817757664E0,-2.243570328E0,-1.383530045E1,-1.244387436E1
6.827471257E0,-2.499901533E0,-1.535085487E1,-1.401446342E1
6.837184018E0,-2.145464659E0,-1.603310776E1,-1.358584881E1
6.846897664E0,-1.896611094E0,-1.548246002E1,-1.092114162E1
6.856612091E0,-1.951645970E0,-1.410568905E1,-7.852047443E0
6.866325684E0,-2.312962294E0,-1.240828133E1,-4.864309311E0
6.876038445E0,-2.923431158E0,-1.069651508E1,-2.149353027E0
6.885752091E0,-3.359223843E0,-9.250652313E0,-7.103692293E-1
6.895466518E0,-3.591626883E0,-8.259425163E0,-1.038485050E0
6.905180111E0,-3.399901867E0,-7.680063248E0,-2.391027927E0
6.914892872E0,-2.969193697E0,-7.366304398E0,-3.063710213E0
6.924606518E0,-3.375973701E0,-7.897810459E0,-3.870689631E0
6.934320945E0,-5.286642551E0,-9.944869995E0,-4.411766529E0
6.944034539E0,-6.584150791E0,-1.202782249E1,-3.611965895E0
6.953747299E0,-5.329713345E0,-1.244207954E1,-3.188436270E0
6.963460997E0,-4.048655987E0,-1.147238827E1,-4.232006073E0
6.973175372E0,-3.972085476E0,-9.662516594E0,-5.022235394E0
6.982888966E0,-4.874777794E0,-8.726325035E0,-4.552943230E0
6.992601778E0,-6.565008163E0,-9.528220177E0,-3.659822226E0
7.002315424E0,-6.658328056E0,-1.085474110E1,-2.743072033E0
7.012029799E0,-4.147060871E0,-1.100309563E1,-4.591228366E-1
7.021743445E0,-2.770290375E0,-9.537791252E0,2.042872429E0
7.031456205E0,-2.710469961E0,-7.804490089E0,2.981158018E0
7.041169851E0,-2.732005358E0,-6.557231426E0,2.519343138E0
7.050884226E0,-2.681756020E0,-5.796014786E0,1.674078584E0
7.060597872E0,-2.655434847E0,-5.410470963E0,1.532902002E0
7.070310632E0,-2.839682341E0,-5.324329376E0,1.750648856E0
7.080024278E0,-2.904288530E0,-5.668895721E0,1.712363720E0
7.089738705E0,-3.146262646E0,-6.609873295E0,1.678864241E0
7.099452299E0,-3.699303865E0,-7.950751305E0,1.899302959E0
7.109165111E0,-4.015156269E0,-9.705587387E0,2.334796667E0
7.118878757E0,-3.584448338E0,-1.162074280E1,2.954836845E0
7.128593132E0,-2.195713997E0,-1.309561920E1,3.136990547E0
7.138306778E0,-6.370890141E-1,-1.378265858E1,2.332403898E0
7.148019539E0,-2.590230405E-1,-1.339472198E1,1.073180914E0
7.157733184E0,-3.092723191E-1,-1.218574810E1,-3.176472187E-1
7.167447611E0,-2.303091735E-1,-1.084038353E1,-1.888236165E0
7.177161205E0,-1.704886183E-2,-9.717552185E0,-3.097209692E0
7.186873966E0,1.025922745E-1,-9.013463974E0,-3.815654755E0
7.196587664E0,-2.829512656E-1,-8.652147293E0,-3.916153431E0
7.206302039E0,-5.605186820E-1,-8.477172852E0,-3.265006542E0
7.216015684E0,-7.019943595E-1,-8.580363274E0,-2.328814745E0
7.225728445E0,-1.147059321E0,-8.671290398E0,-1.692024708E0
7.235442143E0,-1.537388563E0,-8.678468704E0,-1.055234790E0
7.245156518E0,-1.661815286E0,-8.635397911E0,-3.176472187E-1
7.254870111E0,-1.776670814E0,-8.508578300E0,3.693920076E-1
7.264582924E0,-1.913360834E0,-8.422137260E0,9.774680734E-1
7.274296570E0,-1.951645970E0,-8.527720451E0,1.133001566E0
7.284010997E0,-1.889432549E0,-8.843573570E0,7.956135273E-1
7.293724591E0,-1.815255046E0,-9.171689034E0,3.000001311E-1
7.303437403E0,-1.668993831E0,-9.367900848E0,-2.093719877E-2
7.313151049E0,-1.525424480E0,-9.497113228E0,-1.094716340E-1
7.322865476E0,-1.585245013E0,-9.549755096E0,-1.573280841E-1
7.332579070E0,-1.709671736E0,-9.530612946E0,-1.932204217E-1
7.342291830E0,-1.661815286E0,-9.509077072E0,-3.128615618E-1
7.352005528E0,-1.393819213E0,-9.511469841E0,-4.399802685E-1
7.361719955E0,-1.252642632E0,-9.468399048E0,-4.399802685E-1
7.371433549E0,-1.240379453E0,-9.365508080E0,-4.160520434E-1
7.381146309E0,-1.286142230E0,-9.257830620E0,-4.710869491E-1
7.390860007E0,-1.551745534E0,-9.274580956E0,-6.385845542E-1
7.400574434E0,-2.016252279E0,-9.422935486E0,-9.714859724E-1
7.410288028E0,-2.504687071E0,-9.521040916E0,-1.445264935E0
7.420000789E0,-2.899502754E0,-9.561718941E0,-1.900200248E0
7.429714486E0,-3.072085142E0,-9.489934921E0,-2.173281193E0
7.439428914E0,-3.026621580E0,-9.410971642E0,-2.199602127E0
7.449142507E0,-3.000300407E0,-9.341579437E0,-2.096710920E0
7.458855268E0,-3.057728291E0,-9.454042435E0,-2.053340912E0
7.468568966E0,-3.009871721E0,-9.786943436E0,-1.988734722E0
7.478283393E0,-2.655434847E0,-1.008126068E1,-1.730309844E0
7.487996986E0,-2.006680965E0,-1.025623608E1,-1.182054400E0
7.497709799E0,-1.365105271E0,-1.040459061E1,-5.117649436E-1
7.507423445E0,-8.383852243E-1,-1.055055332E1,1.561316848E-1
7.517137872E0,-4.336991012E-1,-1.072044373E1,5.799604058E-1
7.526851518E0,2.362912335E-2,-1.099113178E1,7.884350419E-1
7.536564278E0,5.048855543E-1,-1.130489063E1,8.578268886E-1
7.546277924E0,8.590233326E-1,-1.169731331E1,6.565307379E-1
7.555992351E0,9.332008362E-1,-1.251386452E1,2.213360928E-2
7.565705997E0,8.973084688E-1,-1.369412422E1,-7.103692293E-1
7.575418757E0,6.364908218E-1,-1.470210075E1,-1.256231904E0
7.585132455E0,1.405783277E-2,-1.516630840E1,-1.837986946E0
7.594846882E0,-9.652048349E-1,-1.470688629E1,-2.707179785E0
7.604560476E0,-1.939681888E0,-1.373480225E1,-3.705285788E0
7.614273289E0,-2.310569286E0,-1.309083366E1,-4.421338081E0
7.623986934E0,-2.550150633E0,-1.283210945E1,-4.540979385E0
7.633701361E0,-3.253939629E0,-1.265504074E1,-4.136292934E0
7.643415007E0,-4.199702740E0,-1.237238884E1,-3.521038532E0
7.653127768E0,-5.047060966E0,-1.185523987E1,-2.927319288E0
7.662841466E0,-5.516353607E0,-1.122802162E1,-2.391027927E0
7.672555893E0,-5.557031631E0,-1.056012440E1,-1.845165372E0
7.682269486E0,-5.356034279E0,-9.873085022E0,-1.304088354E0
7.691982299E0,-5.140381336E0,-9.186046600E0,-6.625127792E-1
7.701695945E0,-5.198108196E0,-8.623434067E0,1.298106313E-1
7.711410372E0,-5.499603748E0,-8.395816803E0,7.525427341E-1
7.721124018E0,-5.808577061E0,-8.508578300E0,1.173679471E0
7.730836778E0,-6.016752720E0,-8.845966339E0,1.319940805E0
7.740550476E0,-6.267998695E0,-9.243474007E0,1.394118309E0
7.750264903E0,-6.311368942E0,-9.556933403E0,1.389332652E0
7.759978497E0,-5.990431309E0,-9.633803368E0,1.324726462E0
7.769691309E0,-5.341677666E0,-9.336793900E0,1.075573802E0
7.779405007E0,-4.575376034E0,-8.944071770E0,8.051848412E-1
7.789119382E0,-4.168596268E0,-8.723932266E0,3.813561201E-1
7.798833028E0,-4.065704823E0,-8.759824753E0,-2.123630047E-1
7.808545841E0,-3.988835335E0,-9.099904060E0,-9.690931439E-1
7.818259486E0,-3.670589924E0,-9.432506561E0,1.633101404E-1
7.827973914E0,-3.239582777E0,-9.320044518E0,-2.602194548E-1
7.837687559E0,-2.265105724E0,-9.291330338E0,-1.115055323E0
7.847400372E0,-7.618148923E-1,-9.365508080E0,-1.854736686E0
7.857114018E0,4.304089844E-1,-9.233902931E0,-2.731107950E0
7.866828445E0,1.242174029E0,-9.310472488E0,-3.353540897E0
7.876542091E0,1.194317579E0,-9.262616158E0,-2.843570709E0
7.886254851E0,7.274180651E-1,-8.984749794E0,-2.007877350E0
7.895968549E0,8.105687052E-2,-8.609076500E0,-9.667003751E-1
7.905682976E0,-6.418746710E-1,-8.230711937E0,-1.070788130E-1
7.915396622E0,-1.214058399E0,-7.948358536E0,4.148556292E-1
7.925109382E0,-1.791027784E0,-7.656135082E0,3.717848063E-1
7.934823080E0,-2.181356907E0,-7.361518860E0,1.734796353E-2
7.944537507E0,-2.293819666E0,-7.093522549E0,-4.543372095E-1
7.954251153E0,-2.411366940E0,-6.719943523E0,-6.912266612E-1
7.963963914E0,-2.621935368E0,-6.188437462E0,-5.931209326E-1
7.973677611E0,-2.913859844E0,-5.558825970E0,-4.280161560E-1
7.983392039E0,-3.174976587E0,-4.986642361E0,-2.434697002E-1
7.993105684E0,-3.414258718E0,-4.575077057E0,-1.070788130E-1
8.002818497E0,-3.565305710E0,-4.349852562E0,4.845465720E-2
8.012532143E0,-3.577269793E0,-4.328317165E0,1.947159469E-1
8.022246570E0,-3.519842148E0,-4.500600338E0,-5.204389244E-2
8.031960216E0,-3.438187122E0,-4.831109047E0,-4.998008311E-1
8.041673028E0,-3.349652529E0,-5.331508160E0,-8.539385796E-1
8.051386674E0,-3.225225925E0,-5.901299000E0,-1.371087432E0
8.061101153E0,-3.163012505E0,-6.595516682E0,-2.388635159E0
8.070814747E0,-3.189333439E0,-7.414460182E0,-3.810869217E0
8.080527559E0,-3.419044495E0,-8.383852005E0,-5.706882000E0
8.090241257E0,-3.869194269E0,-9.631410599E0,-8.050651550E0
8.099955684E0,-4.185346127E0,-1.129980564E1,-1.015035343E1
8.109669330E0,-4.070490360E0,-1.321765327E1,-1.155314636E1
8.119382091E0,-3.237190008E0,-1.491266918E1,-1.178315639E1
8.129095789E0,-1.839183331E0,-1.584886074E1,-1.121097183E1
8.138810216E0,-9.843474030E-1,-1.553270912E1,-1.005224800E1
8.148523861E0,-9.364909530E-1,-1.433570004E1,-8.589336395E0
8.158236674E0,-1.841576099E0,-1.273639679E1,-6.954140663E0
8.167950372E0,-2.928216696E0,-1.100309563E1,-5.306981564E0
8.177664799E0,-3.524627686E0,-9.298508644E0,-3.885046721E0
8.187378393E0,-3.565305710E0,-7.957930088E0,-2.654537678E0
8.197091205E0,-4.680959225E0,-8.087141991E0,-2.484348059E0
8.206804903E0,-6.940980434E0,-9.554540634E0,-1.464407444E0
8.216519330E0,-7.532306671E0,-1.067976570E1,-2.243271172E-1
8.226232976E0,-6.387938976E0,-1.106052399E1,-6.457630396E-1
8.235945789E0,-5.389533997E0,-1.015304565E1,-1.840379715E0
8.245659486E0,-6.000002861E0,-8.240283012E0,-2.594418049E0
8.255373914E0,-7.718946934E0,-7.534101009E0,-3.645465374E0
8.265087559E0,-8.841778755E0,-8.465208054E0,-5.278267860E0
8.274800320E0,-5.772684574E0,-9.580862045E0,-3.746263027E0
8.284514018E0,-2.133500576E0,-9.686445236E0,-9.990034252E-2
8.294228445E0,-1.420140266E0,-8.977571487E0,2.753839731E0
8.303942091E0,-1.817647934E0,-8.211568832E0,3.335594654E0
8.313654903E0,-2.277069807E0,-7.675277710E0,2.686840773E0
8.323368601E0,-2.478366137E0,-7.440781116E0,1.954337835E0
8.333083028E0,-2.657827854E0,-7.589136124E0,1.583151340E0
8.342796674E0,-2.851646423E0,-7.960322857E0,1.575972795E0
8.352509486E0,-2.676970243E0,-8.568398476E0,2.002194405E0
8.362223184E0,-2.452044964E0,-9.209974289E0,2.457129717E0
8.371937611E0,-2.425724030E0,-9.865906715E0,2.823231697E0
8.381651257E0,-2.061715841E0,-1.072044373E1,3.239881754E0
8.391364018E0,-1.240379453E0,-1.152742290E1,3.266202927E0
8.401077716E0,-1.103689447E-1,-1.214746284E1,3.014956474E0
8.410792143E0,9.403793216E-1,-1.241785240E1,2.200798512E0
8.420505789E0,1.550848126E0,-1.198953724E1,2.991028363E-3
8.430218601E0,1.764108539E0,-1.090499020E1,-3.454039574E0
8.439932299E0,1.172782183E0,-9.698409081E0,-5.783452511E0
8.449646726E0,-1.393819153E-1,-9.150154114E0,-5.558526993E0
8.459360372E0,-1.518245935E0,-9.250652313E0,-3.851547241E0
8.469073184E0,-2.552543640E0,-9.456435204E0,-2.027019978E0
8.478786882E0,-2.957229614E0,-9.537791252E0,-7.366902828E-1
8.488501309E0,-2.693720102E0,-9.568898201E0,1.393819153E-1
8.498214955E0,-2.305783749E0,-9.430113792E0,5.464608669E-1
8.507927768E0,-2.061715841E0,-9.119047165E0,7.740781307E-1
8.517641466E0,-1.992323995E0,-8.764610291E0,6.469594240E-1
8.527355893E0,-1.877468467E0,-8.575576782E0,1.465603858E-1
8.537069539E0,-1.716850281E0,-8.513363838E0,-4.806582630E-1
8.546782351E0,-1.604387641E0,-8.558827400E0,-1.069591761E0
8.556496049E0,-1.422533035E0,-8.611469269E0,-1.430907965E0
8.566210476E0,-1.262213945E0,-8.790931702E0,-1.562812328E0
8.575924122E0,-1.120738268E0,-8.994320869E0,-1.399801254E0
8.585636934E0,-1.127916813E0,-9.123832703E0,-1.079162955E0
8.595350684E0,-1.192523003E0,-9.279366493E0,-6.505486369E-1
8.605065111E0,-1.264606714E0,-9.408578873E0,-2.386840582E-1
8.614778757E0,-1.312463164E0,-9.487542152E0,6.999006122E-2
8.624491570E0,-1.389033556E0,-9.494720459E0,2.234298140E-1
8.634205268E0,-1.501496196E0,-9.451649666E0,2.042872310E-1
8.643919695E0,-1.673779488E0,-9.377471924E0,5.982056609E-4
8.653633341E0,-1.865504384E0,-9.288937569E0,-4.208376706E-1
8.663346153E0,-2.064108610E0,-9.217152596E0,-9.547362328E-1
8.673059851E0,-2.226820469E0,-9.145368576E0,-1.495514154E0
8.682774278E0,-2.440080881E0,-9.119047165E0,-2.027019978E0
8.692487924E0,-2.624328136E0,-9.128618240E0,-2.369492531E0
8.702200736E0,-2.672184706E0,-9.181260109E0,-2.338385820E0
8.711914434E0,-2.720041037E0,-9.193224907E0,-2.005484581E0
8.721628914E0,-2.765504837E0,-9.202795982E0,-1.613061547E0
8.731342559E0,-2.684148788E0,-9.274580956E0,-1.282552958E0
8.741055372E0,-2.425724030E0,-9.427721024E0,-1.004985452E0
8.750769070E0,-2.107179403E0,-9.621838570E0,-7.342974544E-1
8.760483497E0,-1.877468467E0,-9.798908234E0,-4.926223755E-1
8.770197143E0,-1.716850281E0,-9.940084457E0,-3.056831062E-1
8.779909955E0,-1.470389485E0,-1.002144051E1,-1.525424421E-1
8.789623653E0,-1.250249863E0,-1.006929684E1,8.195417374E-2
8.799338080E0,-1.053739309E0,-1.004536819E1,3.550350666E-1
8.809051726E0,-8.407780528E-1,-1.004058266E1,5.991029739E-1
8.818764539E0,-5.294120312E-1,-1.014586735E1,8.362914920E-1
8.828478289E0,-2.398804724E-1,-1.044048309E1,1.025324464E0
8.838192716E0,-1.250249892E-1,-1.115862942E1,1.001396298E0
8.847906361E0,-1.298106313E-1,-1.227428246E1,7.621139884E-1
8.857619174E0,-3.188436031E-1,-1.364387512E1,4.244269133E-1
8.867332872E0,-6.179464459E-1,-1.485763359E1,-1.884347796E-1
8.877047299E0,-9.795617461E-1,-1.552553082E1,-1.735095501E0
8.886760945E0,-1.757528186E0,-1.524557018E1,-4.095614910E0
8.896473757E0,-2.957229614E0,-1.413230991E1,-6.271887302E0
8.906187507E0,-3.948157310E0,-1.287278748E1,-7.425826073E0
8.915901934E0,-4.352843285E0,-1.210917854E1,-7.090531826E0
8.925615580E0,-4.178167343E0,-1.189143085E1,-5.311767101E0
8.935328393E0,-4.163810730E0,-1.171884918E1,-3.561716557E0
8.945042091E0,-4.496412754E0,-1.145324516E1,-2.630609512E0
8.954756518E0,-4.771886349E0,-1.094806099E1,-1.725524187E0
8.964470216E0,-4.774279594E0,-1.028734303E1,-9.017950296E-1
8.974183028E0,-4.625924587E0,-9.595218658E0,-1.764706671E-1
8.983896726E0,-4.534698009E0,-8.956035614E0,4.627120793E-1
8.993611153E0,-4.659423828E0,-8.484351158E0,9.726824164E-1
9.003324799E0,-4.709673405E0,-8.391031265E0,1.197607756E0
9.013037611E0,-4.683351994E0,-8.589934349E0,1.300499082E0
9.022751309E0,-4.920241356E0,-9.008678436E0,1.434796333E0
9.032465789E0,-5.135595798E0,-9.535398483E0,1.465902925E0
9.042179434E0,-5.164309502E0,-1.000229740E1,1.374975681E0
9.051892247E0,-5.274678230E0,-1.017218781E1,1.049252748E0
9.061605945E0,-5.454140186E0,-1.020120144E1,8.338986635E-1
9.071320372E0,-5.458925724E0,-1.019641590E1,5.991029739E-1
9.081034070E0,-5.315356255E0,-1.021555805E1,1.585244983E-1
9.090746882E0,-5.387141228E0,-1.010279655E1,-1.118644550E-1
9.100460580E0,-5.229214668E0,-9.964012146E0,-5.644070506E-1
9.110175007E0,-4.819743156E0,-9.777372360E0,-1.471585870E0
9.119888653E0,-3.799802303E0,-9.504291534E0,-2.043769598E0
9.129601466E0,-3.036192894E0,-8.917751312E0,-2.527418852E0
9.139315164E0,-1.997109652E0,-8.542078018E0,-1.914557219E0
9.149029643E0,-8.455637097E-1,-8.326424599E0,-2.127817631E0
9.158743289E0,-3.571287692E-1,-8.185248375E0,-2.690429926E0
9.168456101E0,-5.030909777E-1,-7.873881817E0,-2.462812662E0
9.178169799E0,-8.455637097E-1,-7.577171803E0,-1.823629975E0
9.187884226E0,-1.199701428E0,-7.342376232E0,-9.619147182E-1
9.197597872E0,-1.458425403E0,-7.246663570E0,8.673982322E-2
9.207310736E0,-1.793420553E0,-7.186842918E0,3.813561201E-1
9.217024434E0,-2.296212435E0,-6.861418724E0,1.513460279E-1
9.226738861E0,-2.483151674E0,-6.743871689E0,-2.123630047E-1
9.236452507E0,-2.253141642E0,-6.700800896E0,-6.122635007E-1
9.246165320E0,-2.324926376E0,-6.511767864E0,-6.625127792E-1
9.255879018E0,-2.600399971E0,-6.147759438E0,-4.567300081E-1
9.265593497E0,-3.098406315E0,-5.652146339E0,-2.554338276E-1
9.275307143E0,-3.632304668E0,-5.091926575E0,6.999006122E-2
9.285019955E0,-4.024727821E0,-4.651647091E0,4.842474759E-1
9.294733653E0,-4.319344044E0,-4.435994148E0,6.828517914E-1
9.304448080E0,-4.501198292E0,-4.426422596E0,5.368895531E-1
9.314161726E0,-4.517948151E0,-4.656432629E0,1.322034448E-1
9.323874539E0,-4.290630341E0,-5.195116997E0,-5.907281041E-1
9.333588236E0,-3.773481369E0,-6.066403389E0,-1.529312730E0
9.343302716E0,-3.036192894E0,-7.167700291E0,-2.570489645E0
9.353016361E0,-2.377867460E0,-8.364709854E0,-3.803690672E0
9.362729174E0,-1.908575177E0,-9.561718941E0,-5.220839977E0
9.372442872E0,-1.666600943E0,-1.065583706E1,-6.966104984E0
9.382157299E0,-1.786242127E0,-1.146760273E1,-8.618049622E0
9.391870997E0,-2.198106766E0,-1.194407368E1,-9.027522087E0
9.401583809E0,-2.363211393E0,-1.215464211E1,-8.431409836E0
9.411297507E0,-1.865504384E0,-1.225035477E1,-7.583752155E0
9.421011934E0,-1.118345499E0,-1.211874962E1,-7.052246571E0
9.430725580E0,-7.474579811E-1,-1.178345490E1,-7.013961315E0
9.440438393E0,-8.383852243E-1,-1.161117172E1,-6.705287457E0
9.450152091E0,-1.032203913E0,-1.138624668E1,-5.831308842E0
9.459866518E0,-1.106381416E0,-1.104616642E1,-4.794618607E0
9.469580216E0,-1.422533035E0,-1.054098225E1,-4.387838364E0
9.479293028E0,-2.229213476E0,-9.911370277E0,-4.828117847E0
9.489006726E0,-2.861217737E0,-9.339186668E0,-5.005486012E0
9.498721153E0,-3.538984776E0,-9.207581520E0,-4.730011940E0
9.508434799E0,-5.056632519E0,-1.003818989E1,-4.062115669E0
9.518147611E0,-6.474080563E0,-1.133360481E1,-2.182852507E0
9.527861309E0,-6.588936329E0,-1.215224934E1,-8.395816684E-1
9.537575736E0,-5.111667156E0,-1.222164059E1,-2.137388945E0
9.547289434E0,-4.194917202E0,-1.119691467E1,-4.940879822E0
9.557002195E0,-4.836492538E0,-1.009561825E1,-6.602396011E0
9.566715945E0,-5.966503143E0,-9.413364410E0,-6.085247040E0
9.576430372E0,-6.193821430E0,-8.860322952E0,-4.205684662E0
9.586144018E0,-4.527519703E0,-8.180462837E0,-1.950449586E0
9.595856830E0,-2.464009047E0,-7.433602810E0,1.734796353E-2
9.605570528E0,-1.659422517E0,-6.882954121E0,1.111466169E0
9.615284955E0,-1.829612017E0,-6.614659309E0,1.499402523E0
9.624998601E0,-2.454437733E0,-6.593123913E0,1.276570916E0
9.634711414E0,-3.165405273E0,-6.789335251E0,1.015753269E0
9.644425111E0,-3.728017569E0,-7.129415035E0,9.655039310E-1
9.654139591E0,-4.108775616E0,-7.677670479E0,1.238285661E0
9.663853236E0,-4.443770885E0,-8.278568268E0,1.552044630E0
9.673566049E0,-4.690530777E0,-8.951250076E0,1.899302959E0
9.683279747E0,-4.613960266E0,-9.861121178E0,1.999801517E0
9.692994174E0,-3.823730469E0,-1.091695404E1,1.983051777E0
9.702707820E0,-2.710469961E0,-1.172842026E1,1.987837434E0
9.712420632E0,-1.841576099E0,-1.210199928E1,1.887338877E0
9.722134330E0,-1.427318692E0,-1.193928814E1,1.937588096E0
9.731848757E0,-1.204487085E0,-1.126152039E1,1.928016901E0
9.741562403E0,-9.604191780E-1,-1.041176987E1,1.293320656E0
9.751275216E0,-4.839483798E-1,-9.703194618E0,-2.291127741E-1
9.760988914E0,1.408774406E-1,-9.406186104E0,-2.412563324E0
9.770703341E0,3.131606579E-1,-9.346364975E0,-4.184149265E0
9.780416986E0,-1.345962733E-1,-9.379864693E0,-4.576871395E0
9.790129799E0,-9.364909530E-1,-9.521040916E0,-3.825226068E0
9.799843497E0,-1.719243050E0,-9.583254814E0,-2.493919373E0
9.809557924E0,-2.217249393E0,-9.554540634E0,-1.440479279E0
9.819271622E0,-2.593221426E0,-9.468399048E0,-6.984050870E-1
9.828984382E0,-2.672184706E0,-9.363115311E0,-1.860419661E-1
9.838698080E0,-2.578864574E0,-9.039784431E0,2.976073027E-1
9.848412559E0,-2.437688112E0,-8.700003624E0,6.996015310E-1
9.858126205E0,-2.200499535E0,-8.527720451E0,9.224331379E-1
9.867839018E0,-1.793420553E0,-8.558827400E0,9.583254457E-1
9.877552664E0,-1.355534077E0,-8.752646446E0,8.697910309E-1
9.887267143E0,-1.041775107E0,-8.977571487E0,8.386843204E-1
9.896980789E0,-9.293124676E-1,-9.152546883E0,8.769695163E-1
9.906693601E0,-9.173483849E-1,-9.322437286E0,9.008977413E-1
9.916407247E0,-8.479565382E-1,-9.528220177E0,8.530412912E-1
9.926121726E0,-7.091727853E-1,-9.830014229E0,5.584250093E-1
9.935835372E0,-5.916253924E-1,-1.000469017E1,1.034895778E-1
9.945548132E0,-5.198407173E-1,-1.004058266E1,-4.447658956E-1
9.955261830E0,-5.700899959E-1,-9.966405869E0,-9.352945685E-1
9.964976309E0,-7.689933777E-1,-9.748658180E0,-1.205982566E0
9.974689955E0,-1.087238789E0,-9.477970123E0,-1.323230863E0
9.984402716E0,-1.561316729E0,-9.229117393E0,-1.485942841E0
9.994116414E0,-2.097608089E0,-9.085547447E0,-1.706381679E0
1.000383089E1,-2.619542599E0,-9.044570923E0,-1.940878272E0
1.001354454E1,-2.942872763E0,-9.064012527E0,-2.134995937E0
1.002325730E1,-3.036192894E0,-9.097511292E0,-2.213959217E0
1.003297100E1,-2.995514870E0,-9.107083321E0,-2.060818434E0
1.004268542E1,-2.770290375E0,-9.140582085E0,-1.622632861E0
1.005239907E1,-2.363211393E0,-9.138189316E0,-1.024128079E0
1.006211188E1,-1.824826360E0,-9.078369141E0,-4.136592150E-1
1.007182558E1,-1.362712502E0,-9.051749229E0,7.477571070E-2
1.008154001E1,-1.127916813E0,-9.272188187E0,1.609173268E-1
1.009125365E1,-1.020239711E0,-9.703194618E0,-1.022931710E-1
1.010096647E1,-7.929216027E-1,-1.020598698E1,-3.224328458E-1
1.011068016E1,-3.714857101E-1,-1.052423191E1,-1.932204217E-1
1.012039459E1,-9.601201117E-2,-1.059123135E1,1.899302900E-1
1.013010824E1,-6.251249462E-2,-1.049073315E1,5.129613280E-1
1.013982105E1,-1.274178028E-1,-1.041894817E1,7.115656137E-1
1.014953470E1,-2.063809484E-1,-1.045244789E1,8.745766878E-1
1.015924912E1,-2.853440940E-1,-1.061994553E1,9.511470199E-1
1.016896277E1,-4.336991012E-1,-1.072044373E1,9.655039310E-1
1.017867558E1,-8.168498278E-1,-1.058166027E1,8.817551732E-1
1.018838928E1,-1.214058399E0,-1.041894817E1,3.957130313E-1
1.019810371E1,-1.460818172E0,-1.065583706E1,-4.902295470E-1
1.020781735E1,-1.680957913E0,-1.142453194E1,-1.514955878E0
1.021753016E1,-2.126322031E0,-1.249472141E1,-2.460419893E0
1.022724381E1,-2.909074068E0,-1.346411419E1,-3.470789194E0
1.023695829E1,-3.905086517E0,-1.378505135E1,-4.598406792E0
1.024667188E1,-4.695316315E0,-1.349761391E1,-5.438885689E0
1.025638470E1,-4.903491974E0,-1.317458248E1,-5.539384365E0
1.026609839E1,-4.683351994E0,-1.303579903E1,-4.579264164E0
1.027581282E1,-4.403092861E0,-1.301426315E1,-3.212364435E0
1.028552647E1,-4.197309971E0,-1.296610737E1,-2.290529490E0
1.029523928E1,-3.998406649E0,-1.275553894E1,-2.019841433E0
1.030495292E1,-3.538984776E0,-1.235085297E1,-2.398206472E0
1.031466735E1,-3.105584621E0,-1.175234795E1,-3.032603502E0
1.032438100E1,-3.048156977E0,-1.103420258E1,-3.341576815E0
1.033409381E1,-3.024228811E0,-1.023709393E1,-2.944069147E0
1.034380751E1,-2.950051308E0,-9.566504478E0,-2.043769598E0
1.035352193E1,-3.308974504E0,-9.085547447E0,-1.098305583E0
1.036323558E1,-3.730410576E0,-8.855537415E0,-4.519443810E-1
1.037294834E1,-4.168596268E0,-8.845966339E0,1.657029688E-1
1.038266204E1,-4.551447868E0,-9.078369141E0,7.788637877E-1
1.039237647E1,-4.927420139E0,-9.389435768E0,1.111466169E0
1.040209011E1,-5.281857014E0,-9.652945518E0,1.257428288E0
1.041180292E1,-5.549852848E0,-9.655338287E0,1.465902925E0
1.042151657E1,-5.348855972E0,-9.399007797E0,1.535294771E0
1.043123100E1,-4.905884743E0,-9.037391663E0,1.597508192E0
1.044094464E1,-4.659423828E0,-8.625826836E0,1.650150299E0
1.045065746E1,-4.489234447E0,-8.417351723E0,1.010967612E0
1.046037115E1,-3.881158352E0,-8.594719887E0,-9.032905847E-2
1.047008558E1,-3.550948858E0,-8.790931702E0,-1.749452472E0
1.047979917E1,-3.151048422E0,-8.908179283E0,-1.998306036E0
1.048951199E1,-2.641077995E0,-8.936893463E0,-1.438086390E0
1.049922568E1,-1.683350682E0,-9.090332985E0,-1.110269666E0
1.050894011E1,-8.072785139E-1,-9.195617676E0,-1.596311808E0
1.051865370E1,-6.538388133E-1,-9.140582085E0,-2.108675003E0
1.052836652E1,-3.619144261E-1,-9.018249512E0,-1.610668778E0
1.053808022E1,-4.336991012E-1,-8.747860909E0,-1.232303619E0
1.054779464E1,-1.135095239E0,-8.324031830E0,-1.115055323E0
1.055750824E1,-1.848754644E0,-7.778169155E0,-1.237089276E0
1.056722105E1,-2.598007202E0,-7.103094101E0,-1.646561027E0
1.057693475E1,-2.901895761E0,-6.566802502E0,-1.955235243E0
1.058664917E1,-2.681756020E0,-6.265306950E0,-1.969592094E0
1.059636277E1,-2.425724030E0,-6.085546017E0,-1.656132340E0
1.060607558E1,-2.217249393E0,-5.934798241E0,-1.265803218E0
1.061578928E1,-2.222034931E0,-5.786443233E0,-1.021735311E0
1.062550370E1,-2.210070848E0,-5.604289532E0,-7.510471940E-1
1.063521730E1,-2.164607286E0,-5.463113308E0,-4.854438901E-1
1.064493011E1,-2.164607286E0,-5.374578953E0,-4.447658956E-1
1.065464381E1,-2.200499535E0,-5.477469921E0,-4.710869491E-1
1.066435818E1,-2.219642162E0,-5.690730572E0,-5.811567903E-1
1.067407183E1,-2.202892303E0,-5.944369793E0,-9.257232547E-1
1.068378464E1,-2.222034931E0,-6.243472576E0,-1.658525229E0
1.069349829E1,-2.289033890E0,-6.564409733E0,-2.534597397E0
1.070321272E1,-2.394617319E0,-6.847062111E0,-3.470789194E0
1.071292636E1,-2.641077995E0,-7.129415035E0,-4.572085857E0
1.072263912E1,-2.981158018E0,-7.517351627E0,-5.860022545E0
1.073235282E1,-3.471686602E0,-8.178069115E0,-7.456932545E0
1.074206725E1,-3.862015724E0,-9.205188751E0,-9.108877182E0
1.075178089E1,-4.031906128E0,-1.049312592E1,-1.021256733E1
1.076149365E1,-3.897907972E0,-1.157288647E1,-1.021974564E1
1.077120735E1,-3.524627686E0,-1.203500080E1,-9.427422523E0
1.078092178E1,-2.875574589E0,-1.191057396E1,-8.601300240E0
1.079063537E1,-1.872682810E0,-1.147478104E1,-7.940581799E0
1.080034818E1,-1.118345499E0,-1.106052399E1,-7.318149090E0
1.081006183E1,-9.269196987E-1,-1.062712383E1,-6.302993774E0
1.081977626E1,-1.094417214E0,-1.017458057E1,-4.753940582E0
1.082948990E1,-1.556531072E0,-9.629017830E0,-3.260220766E0
1.083920266E1,-2.198106766E0,-9.209974289E0,-2.204387903E0
1.084891636E1,-3.383152008E0,-9.611968994E0,-2.144567251E0
1.085863079E1,-5.027918816E0,-1.100548840E1,-2.455634356E0
1.086834438E1,-5.758327484E0,-1.249232864E1,-1.732702732E0
1.087805720E1,-5.152345181E0,-1.354547024E1,-1.835594058E0
1.088777084E1,-3.668197155E0,-1.369890976E1,-4.074079514E0
1.089748527E1,-3.139084101E0,-1.186511040E1,-6.511169434E0
1.090719891E1,-5.272285461E0,-9.241081238E0,-6.791429043E0
1.091691167E1,-7.919943810E0,-7.306483746E0,-5.450850010E0
1.092662537E1,-8.927920341E0,-6.059225082E0,-4.033401489E0
1.093633980E1,-6.742076874E0,-6.025725842E0,-2.568096876E0
1.094605339E1,-4.108775616E0,-6.712764740E0,-6.553342938E-1
1.095576621E1,-2.938086987E0,-7.086344242E0,1.209571838E0
1.096547985E1,-2.882753134E0,-7.100701332E0,2.062014818E0
1.097519428E1,-2.945265532E0,-7.191628456E0,2.062014818E0
1.098490792E1,-2.990729094E0,-7.617849827E0,1.645364642E0
1.099462068E1,-3.081656456E0,-8.259425163E0,1.166501045E0
1.100433438E1,-3.112763166E0,-8.953642845E0,9.918249846E-1
1.101404876E1,-2.983550787E0,-9.573683739E0,1.274178028E0
1.102376240E1,-2.703291416E0,-1.019880867E1,1.738684773E0
1.103347516E1,-2.312962294E0,-1.089302635E1,1.774577141E0
1.104318886E1,-1.817647934E0,-1.141017437E1,1.300499082E0
1.105290329E1,-1.130309582E0,-1.159442234E1,8.362914920E-1
1.106261688E1,-5.892325640E-1,-1.138863945E1,6.014958024E-1
1.107232970E1,-3.020938635E-1,-1.086670494E1,1.800599098E-1
1.108204334E1,-2.991028305E-4,-1.021795082E1,-5.739783049E-1
1.109175777E1,9.302098304E-2,-9.607182503E0,-1.550848126E0
1.110147136E1,-2.327020019E-1,-9.281759262E0,-2.527418852E0
1.111118417E1,-6.227321029E-1,-9.343972206E0,-2.865106106E0
1.112089782E1,-1.302891970E0,-9.494720459E0,-2.652144909E0
1.113061225E1,-1.982752681E0,-9.664909363E0,-1.974377751E0
1.114032584E1,-2.471187592E0,-9.650552750E0,-1.184447169E0
1.115003865E1,-2.643470764E0,-9.382257462E0,-5.859424472E-1
1.115975230E1,-2.552543640E0,-9.071190834E0,-1.980060786E-1
1.116946673E1,-2.327319145E0,-8.838788033E0,-9.990034252E-2
1.117918037E1,-2.267498493E0,-8.599505424E0,-1.501496136E-1
1.118889313E1,-2.241177559E0,-8.525327682E0,-3.391826153E-1
1.119860678E1,-2.274677038E0,-8.546863556E0,-7.175477147E-1
1.120832120E1,-2.135893345E0,-8.781359673E0,-9.113663435E-1
1.121803485E1,-1.882254124E0,-9.032606125E0,-9.089735150E-1
1.122774761E1,-1.601994753E0,-9.274580956E0,-6.074778438E-1
1.123746126E1,-1.412961721E0,-9.408578873E0,-1.884347796E-1
1.124717568E1,-1.218844056E0,-9.511469841E0,1.465603858E-1
1.125688928E1,-1.039382339E0,-9.530612946E0,3.717848063E-1
1.126660209E1,-9.508479238E-1,-9.492327690E0,4.507479668E-1
1.127631574E1,-9.580263495E-1,-9.401400566E0,4.172484577E-1
1.128603016E1,-9.867402315E-1,-9.353543282E0,3.095714152E-1
1.129574376E1,-1.106381416E0,-9.315258980E0,8.913264424E-2
1.130545657E1,-1.286142230E0,-9.245866776E0,-1.525424421E-1
1.131517022E1,-1.386640668E0,-9.209974289E0,-3.056831062E-1
1.132488464E1,-1.472782373E0,-9.102297783E0,-4.112663865E-1
1.133459824E1,-1.590030670E0,-8.989535332E0,-4.591228366E-1
1.134431100E1,-1.757528186E0,-9.008678436E0,-5.907281041E-1
1.135402470E1,-1.987538338E0,-9.164510727E0,-7.677969933E-1
1.136373907E1,-2.238784790E0,-9.387042999E0,-1.138983607E0
1.137345272E1,-2.533401012E0,-9.636196136E0,-1.696810365E0
1.138316548E1,-2.863610506E0,-9.765408516E0,-2.350350142E0
1.139287917E1,-3.136691332E0,-9.813264847E0,-2.865106106E0
1.140259355E1,-3.213261604E0,-9.731908798E0,-2.989532709E0
1.141230720E1,-3.091227770E0,-9.580862045E0,-2.733500719E0
1.142201996E1,-2.913859844E0,-9.408578873E0,-2.180459738E0
1.143173360E1,-2.703291416E0,-9.286544800E0,-1.553241014E0
1.144144803E1,-2.435295343E0,-9.312865257E0,-9.352945685E-1
1.145116162E1,-2.111965179E0,-9.434899330E0,-3.463610709E-1
1.146087438E1,-1.834397674E0,-9.528220177E0,1.971087605E-1
1.147058808E1,-1.606780410E0,-9.595218658E0,6.062814593E-1
1.148030251E1,-1.317248821E0,-9.648159981E0,8.003991842E-1
1.149001610E1,-1.001097202E0,-9.758230209E0,8.554341197E-1
1.149972886E1,-7.211369276E-1,-9.935298920E0,8.937192559E-1
1.150944256E1,-5.006981492E-1,-1.020120144E1,1.025324464E0
1.151915693E1,-2.805584669E-1,-1.062233829E1,1.281356573E0
1.152887053E1,-8.883354068E-2,-1.133839035E1,1.499402523E0
1.153858334E1,-2.159522474E-1,-1.220967674E1,1.485045552E0
1.154829699E1,-5.892325640E-1,-1.299512100E1,1.494616866E0
1.155801141E1,-1.151844978E0,-1.364148235E1,1.590329766E0
1.156772501E1,-1.601994753E0,-1.394537067E1,1.607079506E0
1.157743777E1,-1.750349760E0,-1.388076401E1,1.171286702E0
1.158715147E1,-2.157428741E0,-1.346411419E1,-3.849453330E-1
1.159686584E1,-3.055335522E0,-1.283210945E1,-3.487539053E0
1.160657943E1,-4.221238136E0,-1.221924782E1,-7.624430180E0
1.161629225E1,-5.205286503E0,-1.179063320E1,-1.067228794E1
1.162600589E1,-5.523531914E0,-1.148435211E1,-1.089242744E1
1.163572027E1,-5.054239750E0,-1.129502010E1,-8.505587578E0
1.164543391E1,-4.273880482E0,-1.135274696E1,-5.048556805E0
1.165514667E1,-4.053740501E0,-1.152503014E1,-2.615953445E0
1.166486032E1,-4.446163654E0,-1.146760273E1,-1.234696507E0
1.167457475E1,-4.563411713E0,-1.095045376E1,-1.022931710E-1
1.168428834E1,-4.477270126E0,-1.025623608E1,4.292125702E-1
1.169400110E1,-4.534698009E0,-9.566504478E0,5.488536954E-1
1.170371480E1,-4.645066738E0,-8.901000977E0,7.115656137E-1
1.171342917E1,-4.994419098E0,-8.594719887E0,7.091727853E-1
1.172314277E1,-5.068596363E0,-8.649754524E0,7.956135273E-1
1.173285558E1,-5.234000206E0,-8.860322952E0,1.058824062E0
1.174256923E1,-5.468497276E0,-9.284152031E0,1.152144074E0
1.175228360E1,-5.664708614E0,-9.739087105E0,1.042074203E0
1.176199725E1,-5.714957714E0,-1.005015373E1,9.990034699E-1
1.177171001E1,-5.659923077E0,-1.004058266E1,8.530412912E-1
1.178142365E1,-5.344070435E0,-9.763015747E0,6.972087026E-1
1.179113808E1,-4.769493580E0,-9.466006279E0,9.774680734E-1
1.180085167E1,-3.969692707E0,-9.327222824E0,6.254240274E-1
1.181056443E1,-3.409473181E0,-9.217152596E0,-3.945166469E-1
1.182027808E1,-3.079263687E0,-8.987142563E0,-1.148554921E0
1.182999251E1,-2.475973129E0,-8.716753960E0,-9.930213690E-1
1.183970610E1,-1.597209096E0,-8.621041298E0,-8.419744968E-1
1.184941886E1,-8.168498278E-1,-8.611469269E0,-9.281160831E-1
1.185913251E1,-4.480560422E-1,-8.544470787E0,7.716853172E-2
1.186884693E1,3.559323773E-2,-8.496614456E0,-1.573280841E-1
1.187856053E1,-1.992024779E-1,-8.194819450E0,-1.033699393E0
1.188827329E1,-6.586244106E-1,-7.847560883E0,-1.632204175E0
1.189798693E1,-1.245165110E0,-7.395317554E0,-1.854736686E0
1.190770136E1,-1.745564103E0,-7.134200573E0,-1.692024708E0
1.191741496E1,-2.229213476E0,-6.897311211E0,-1.473978758E0
1.192712772E1,-2.475973129E0,-6.729514599E0,-1.241874933E0
1.193684136E1,-2.617149830E0,-6.657730103E0,-1.158126116E0
1.194655579E1,-2.748754978E0,-6.545267105E0,-1.177268744E0
1.195626938E1,-2.851646423E0,-6.262914181E0,-1.232303619E0
1.196598214E1,-2.997907639E0,-5.841478348E0,-1.167697430E0
1.197569579E1,-3.043371201E0,-5.429613590E0,-9.858429432E-1
1.198541022E1,-3.000300407E0,-5.087141037E0,-8.132606149E-1
1.199512381E1,-2.808575630E0,-4.974678040E0,-6.242275834E-1
1.200483657E1,-2.614757061E0,-5.012963295E0,-5.979065299E-1
1.201455022E1,-2.542972326E0,-5.132903576E0,-7.606185079E-1
1.202426459E1,-2.554936409E0,-5.374578953E0,-9.329017401E-1
1.203397818E1,-2.631506681E0,-5.738586903E0,-9.305089116E-1
1.204369095E1,-2.679363251E0,-6.282056808E0,-1.028913736E0
1.205340464E1,-2.863610506E0,-6.981060028E0,-1.725524187E0
1.206311902E1,-3.177369356E0,-7.871489048E0,-2.999104023E0
1.207283261E1,-3.543770313E0,-8.939286232E0,-4.655834675E0
1.208254537E1,-3.895515203E0,-1.014826012E1,-6.743572235E0
1.209225907E1,-4.082454681E0,-1.153460121E1,-9.235696793E0
1.210197344E1,-3.795016766E0,-1.303101349E1,-1.148375416E1
1.211168704E1,-2.913859844E0,-1.426152229E1,-1.269751358E1
1.212139980E1,-1.563709617E0,-1.455344677E1,-1.269990635E1
1.213111344E1,-1.369891018E-1,-1.395972729E1,-1.135454178E1
1.214082787E1,2.174477577E-1,-1.265504074E1,-8.814560890E0
1.215054147E1,-8.742775917E-1,-1.122323513E1,-5.965306759E0
1.216025423E1,-2.128714800E0,-1.013150978E1,-3.475574970E0
1.216996787E1,-2.767897606E0,-9.408578873E0,-1.945663929E0
1.217968225E1,-3.067299604E0,-8.829216003E0,-1.689631939E0
1.218939584E1,-3.141477108E0,-8.546863556E0,-2.127817631E0
1.219910860E1,-3.694518089E0,-9.099904060E0,-3.070888758E0
1.220882225E1,-4.831707001E0,-1.067258739E1,-4.069293976E0
1.221853667E1,-5.049454212E0,-1.236281776E1,-3.511467218E0
1.222825027E1,-4.012763500E0,-1.326072407E1,-2.292922258E0
1.223796303E1,-2.533401012E0,-1.289671612E1,-2.565704107E0
1.224767667E1,-1.977967024E0,-1.145563793E1,-4.289433479E0
1.225739105E1,-2.822932482E0,-9.770194054E0,-6.106782436E0
1.226710464E1,-4.704887390E0,-8.319246292E0,-5.903093338E0
1.227681740E1,-7.427022457E0,-6.760621071E0,-3.667000771E0
1.228653110E1,-7.927122116E0,-5.501398563E0,-2.063211441E0
1.229624548E1,-5.427819252E0,-5.398507118E0,-9.403793216E-1
1.230595907E1,-3.325724363E0,-5.853442192E0,9.918249846E-1
1.231567183E1,-3.390330553E0,-6.274878502E0,2.646162748E0
1.232538548E1,-3.943371773E0,-6.786942482E0,2.933301449E0
1.233509985E1,-4.240380764E0,-7.493422985E0,2.188834429E0
1.234481345E1,-4.393521309E0,-8.331210136E0,1.501795292E0
1.235452620E1,-4.369593143E0,-9.303294182E0,1.312762380E0
1.236423985E1,-4.096811295E0,-1.013868904E1,1.547258973E0
1.237395428E1,-3.857230186E0,-1.069890785E1,2.026122570E0
1.238366787E1,-3.359223843E0,-1.122802162E1,2.301297188E0
1.239338063E1,-2.562114954E0,-1.159442234E1,2.413759947E0
1.240309428E1,-1.731207132E0,-1.173081303E1,2.497807741E0
1.241280865E1,-1.005882859E0,-1.159442234E1,2.493022203E0
1.242252225E1,-3.427718580E-1,-1.118494987E1,2.634198666E0
1.243223501E1,1.863410622E-1,-1.058405304E1,2.607877493E0
1.244194865E1,4.905286431E-1,-9.868299484E0,1.133001566E0
1.245166303E1,6.221339107E-1,-9.255437851E0,-1.979163408E0
1.246137662E1,6.987041831E-1,-9.068798065E0,-4.703691006E0
1.247108938E1,2.772683203E-1,-9.205188751E0,-5.601597786E0
1.248080303E1,-6.610172391E-1,-9.420542717E0,-4.679762840E0
1.249051740E1,-1.633101463E0,-9.544969559E0,-3.046960592E0
1.250023105E1,-2.305783749E0,-9.631410599E0,-1.546062589E0
1.250994376E1,-2.480758905E0,-9.717552185E0,-5.021936297E-1
1.251965746E1,-2.483151674E0,-9.700801849E0,4.606183618E-2
1.252937183E1,-2.454437733E0,-9.590433121E0,4.435695112E-1
1.253908542E1,-2.406581402E0,-9.343972206E0,6.852445602E-1
1.254879818E1,-2.090429783E0,-9.097511292E0,8.123632669E-1
1.255851183E1,-1.822433591E0,-8.994320869E0,5.751747489E-1
1.256822620E1,-1.592423439E0,-9.046963692E0,1.202393398E-1
1.257793980E1,-1.403390527E0,-9.080761909E0,-3.224328458E-1
1.258765256E1,-1.283749342E0,-9.114261627E0,-6.266204119E-1
1.259736620E1,-1.144666553E0,-9.135796547E0,-6.768696904E-1
1.260708058E1,-1.209272742E0,-9.083154678E0,-6.098706722E-1
1.261679417E1,-1.235593796E0,-9.095118523E0,-4.615156651E-1
1.262650693E1,-1.317248821E0,-9.162117958E0,-2.386840582E-1
1.263622058E1,-1.530210137E0,-9.245866776E0,2.213360928E-2
1.264593496E1,-1.800599098E0,-9.281759262E0,1.489532143E-1
1.265564855E1,-1.927717686E0,-9.291330338E0,7.477571070E-2
1.266536131E1,-1.927717686E0,-9.229117393E0,-1.046859920E-1
1.267507496E1,-1.915753603E0,-9.157332420E0,-3.176472187E-1
1.268478933E1,-1.963610053E0,-9.085547447E0,-6.337988973E-1
1.269450292E1,-2.035394669E0,-9.099904060E0,-1.043270707E0
1.270421568E1,-2.143071890E0,-9.190832138E0,-1.433300734E0
1.271392933E1,-2.291426897E0,-9.363115311E0,-1.711167336E0
1.272364370E1,-2.380260229E0,-9.547362328E0,-1.885843396E0
1.273335730E1,-2.327319145E0,-9.638588905E0,-1.976770639E0
1.274307006E1,-2.085644007E0,-9.631410599E0,-1.833201289E0
1.275278370E1,-1.700100541E0,-9.544969559E0,-1.502991676E0
1.276249808E1,-1.247856975E0,-9.408578873E0,-1.100698471E0
1.277221167E1,-9.245268703E-1,-9.300901413E0,-8.371888399E-1
1.278192443E1,-9.149555564E-1,-9.391828537E0,-8.156534433E-1
1.279163808E1,-9.197412133E-1,-9.688838005E0,-9.427721500E-1
1.280135246E1,-6.586244106E-1,-9.985548019E0,-8.898309469E-1
1.281106605E1,-2.757728100E-1,-1.017697334E1,-5.093721151E-1
1.282077881E1,-1.393819153E-1,-1.020359421E1,-2.333002165E-2
1.283049246E1,-2.015953064E-1,-1.011954594E1,4.028915167E-1
1.284020683E1,-2.662015259E-1,-1.010758209E1,6.900302172E-1
1.284992042E1,-2.733799815E-1,-1.022034359E1,9.008977413E-1
1.285963318E1,-3.379862010E-1,-1.036391354E1,1.056431174E0
1.286934678E1,-5.772684813E-1,-1.064387321E1,1.097109199E0
1.287906121E1,-8.288139701E-1,-1.127109241E1,8.123632669E-1
1.288877480E1,-1.063310504E0,-1.202542973E1,3.167499006E-1
1.289848751E1,-1.242772222E0,-1.281057453E1,-4.486542568E-2
1.290820115E1,-1.417747378E0,-1.346172142E1,-2.027917206E-1
1.291791553E1,-1.860718727E0,-1.370130253E1,-5.452644825E-1
1.292762912E1,-2.535793781E0,-1.351675606E1,-1.459621787E0
1.293734188E1,-3.218047380E0,-1.325593853E1,-2.814856768E0
1.294705553E1,-3.859622955E0,-1.319851017E1,-4.107579231E0
1.295676990E1,-4.529912472E0,-1.325354576E1,-4.940879822E0
1.296648350E1,-5.094917774E0,-1.320808220E1,-5.170590401E0
1.297619626E1,-5.300999641E0,-1.292542934E1,-4.844867706E0
1.298590990E1,-5.260321617E0,-1.258564854E1,-4.526622295E0
1.299562428E1,-4.975276470E0,-1.225035477E1,-4.402195454E0
1.300533787E1,-4.577768803E0,-1.174756241E1,-4.143471718E0
1.301505063E1,-4.149453640E0,-1.097677517E1,-3.528217077E0
1.302476428E1,-3.751945972E0,-1.005494022E1,-2.469991207E0
1.303447865E1,-3.804588079E0,-9.205188751E0,-1.213161111E0
1.304419225E1,-4.080061913E0,-8.520542145E0,-8.793623000E-2
1.305390496E1,-4.156631947E0,-8.065607071E0,7.573283911E-1
1.306361860E1,-3.909872293E0,-8.089534760E0,1.418046474E0
1.307333298E1,-3.783052683E0,-8.448458672E0,1.793719649E0
1.308304657E1,-3.802195072E0,-8.826823235E0,1.944766641E0
1.309275933E1,-3.792623997E0,-9.399007797E0,1.983051777E0
1.310247298E1,-3.665804386E0,-9.999904633E0,1.906481385E0
1.311218735E1,-3.380759239E0,-1.047637558E1,1.738684773E0
1.312190094E1,-3.194119215E0,-1.090020466E1,1.444367528E0
1.313161371E1,-3.471686602E0,-1.129262733E1,1.001396298E0
1.314132730E1,-3.756731510E0,-1.168534946E1,3.741776347E-1
1.315104173E1,-3.890729666E0,-1.193689442E1,1.734796353E-2
1.316075522E1,-3.541377544E0,-1.152981567E1,-8.315058798E-2
1.317046803E1,-2.554936409E0,-1.084038353E1,-1.083948612E0
1.318018167E1,-1.747956991E0,-1.003101158E1,-2.324028969E0
1.318989605E1,-1.259821177E0,-9.169296265E0,-2.577668190E0
1.319960964E1,-5.653043389E-1,-8.544470787E0,-1.928914189E0
1.320932240E1,-3.619144261E-1,-7.977072716E0,-2.043769598E0
1.321903605E1,-5.533402562E-1,-7.392924786E0,-1.948056698E0
1.322875042E1,-1.170987606E0,-6.820741177E0,-1.615454435E0
1.323846402E1,-1.832004786E0,-6.289235115E0,-9.786644578E-1
1.324817673E1,-2.190928221E0,-5.975476265E0,-5.021936297E-1
1.325789037E1,-2.394617319E0,-5.776872158E0,5.727819204E-1
1.326760475E1,-2.341675997E0,-5.580361366E0,1.020538807E0
1.327731834E1,-2.385046005E0,-5.429613590E0,3.311068416E-1
1.328703110E1,-2.487937450E0,-5.386542797E0,-5.787639618E-1
1.329674475E1,-2.360818624E0,-5.487041473E0,-1.064806104E0
1.330645912E1,-2.269891262E0,-5.611468315E0,-9.690931439E-1
1.331617261E1,-2.293819666E0,-5.690730572E0,-4.232304990E-1
1.332588542E1,-2.428116798E0,-5.652146339E0,1.800599098E-1
1.333559907E1,-2.444866419E0,-5.496612549E0,7.043871880E-1
1.334531344E1,-2.260320187E0,-5.386542797E0,8.721838593E-1
1.335502704E1,-2.052144527E0,-5.597111225E0,6.206383705E-1
1.336473980E1,-1.875075698E0,-6.095117569E0,1.034895778E-1
1.337445339E1,-1.774278045E0,-6.743871689E0,-6.864410043E-1
1.338416777E1,-1.750349760E0,-7.416852951E0,-1.636989832E0
1.339388136E1,-1.783849239E0,-8.048856735E0,-2.762214661E0
1.340359412E1,-1.853540182E0,-8.633005142E0,-4.643870354E0
1.341330777E1,-1.707278967E0,-9.399007797E0,-7.392326355E0
1.342302214E1,-1.659422517E0,-1.072044373E1,-1.014556789E1
1.343273574E1,-2.116750717E0,-1.249711418E1,-1.210140133E1
1.344244844E1,-2.485544443E0,-1.423041534E1,-1.339681530E1
1.345216209E1,-2.540579557E0,-1.516391563E1,-1.400010586E1
1.346187647E1,-2.138286114E0,-1.474995708E1,-1.339681530E1
1.347159006E1,-1.585245013E0,-1.359841156E1,-1.128036404E1
1.348130282E1,-1.537388563E0,-1.211396408E1,-8.187042236E0
1.349101641E1,-2.277069807E0,-1.033519936E1,-4.670191765E0
1.350073079E1,-3.562912941E0,-8.472386360E0,-1.782951951E0
1.351044438E1,-4.381557465E0,-6.957131863E0,-1.692921966E-1
1.352015714E1,-4.400700092E0,-6.054439545E0,3.741776347E-1
1.352987079E1,-4.362414837E0,-6.248258114E0,2.691925503E-2
1.353958516E1,-5.056632519E0,-7.873881817E0,-4.567300081E-1
1.354929865E1,-4.925027370E0,-1.002383327E1,-6.984050870E-1
1.355901147E1,-3.486043453E0,-1.171884918E1,-1.498206019E0
1.356872511E1,-2.040180445E0,-1.245165062E1,-3.401397467E0
1.357843949E1,-2.322533369E0,-1.226471138E1,-5.153841019E0
1.358815308E1,-3.996013880E0,-1.182652569E1,-5.828916073E0
1.359786579E1,-6.727719784E0,-1.173799133E1,-6.008676529E0
1.360757943E1,-7.350152969E0,-1.165663528E1,-4.878666401E0
1.361729381E1,-4.508377075E0,-1.055533886E1,-2.055733681E0
1.362700740E1,-2.861217737E0,-8.759824753E0,4.172484577E-1
1.363672011E1,-2.971586704E0,-7.186842918E0,1.983051777E0
1.364643376E1,-3.653840065E0,-5.930012703E0,2.478665113E0
1.365614813E1,-4.362414837E0,-5.333900928E0,1.995015860E0
1.366586173E1,-4.968098164E0,-5.475077152E0,1.176072359E0
1.367557449E1,-5.094917774E0,-6.272485256E0,6.469594240E-1
1.368528808E1,-5.008776188E0,-7.296912670E0,6.038886309E-1
1.369500246E1,-4.479662895E0,-8.304888725E0,7.067800164E-1
1.370471605E1,-3.792623997E0,-9.116654396E0,1.001396298E0
1.371442881E1,-3.232404232E0,-1.002383327E1,1.315155149E0
1.372414246E1,-2.791825771E0,-1.100070286E1,1.745863199E0
1.373385678E1,-2.064108610E0,-1.162792206E1,1.855933070E0
1.374357037E1,-8.312067389E-1,-1.197039413E1,1.470688581E0
1.375328313E1,2.964109182E-1,-1.187228870E1,8.841479421E-1
1.376299673E1,9.164510965E-1,-1.137906837E1,1.848455518E-1
1.377271115E1,1.280459166E0,-1.086670494E1,-1.201196909E0
1.378242464E1,1.785643935E0,-1.056251717E1,-3.241078377E0
1.379213746E1,2.161616087E0,-1.032323551E1,-4.801796913E0
1.380185110E1,2.048854351E0,-1.019880867E1,-4.737190723E0
1.381156548E1,1.347458243E0,-1.022034359E1,-3.597608805E0
1.382127897E1,2.270190418E-1,-1.020359421E1,-2.395813704E0
1.383099178E1,-1.041775107E0,-9.997511864E0,-1.371087432E0
1.384070542E1,-2.073679924E0,-9.753444672E0,-5.787639618E-1
1.385041975E1,-2.688934565E0,-9.619445801E0,-2.506481707E-1
1.386013334E1,-2.849253654E0,-9.375079155E0,-2.051845491E-1
1.386984610E1,-2.732005358E0,-9.001500130E0,-2.697907388E-1
1.387955970E1,-2.617149830E0,-8.566005707E0,-3.655036688E-1
1.388927407E1,-2.631506681E0,-8.216354370E0,-5.141577721E-1
1.389898766E1,-2.765504837E0,-7.960322857E0,-7.079764009E-1
1.390870042E1,-2.736790895E0,-7.869096279E0,-8.682954907E-1
1.391841402E1,-2.545365095E0,-7.993822098E0,-9.161519408E-1
1.392812839E1,-2.236391783E0,-8.335995674E0,-8.778668046E-1
1.393784199E1,-1.980359793E0,-8.747860909E0,-7.319046259E-1
1.394755475E1,-1.949253201E0,-9.066405296E0,-6.218347549E-1
1.395726834E1,-1.853540182E0,-9.346364975E0,-5.835496187E-1
1.396698272E1,-1.700100541E0,-9.616754532E0,-6.074778438E-1
1.397669631E1,-1.527817249E0,-9.837192535E0,-6.649056077E-1
1.398640902E1,-1.400997639E0,-9.920941353E0,-7.749754190E-1
1.399612266E1,-1.427318692E0,-9.834799767E0,-1.033699393E0
1.400583704E1,-1.594816327E0,-9.698409081E0,-1.500598907E0
1.401555063E1,-1.798206210E0,-9.547362328E0,-1.909771562E0
1.402526334E1,-2.135893345E0,-9.353543282E0,-2.197209358E0
1.403497699E1,-2.509472847E0,-9.111868858E0,-2.393420935E0
1.404469136E1,-2.765504837E0,-8.889037132E0,-2.575275421E0
1.405440496E1,-2.787040234E0,-8.781359673E0,-2.668894529E0
1.406411766E1,-2.662613392E0,-8.752646446E0,-2.633002281E0
1.407383131E1,-2.511865616E0,-8.767003059E0,-2.448455811E0
1.408354568E1,-2.269891262E0,-8.771788597E0,-2.096710920E0
1.409325917E1,-1.963610053E0,-8.824430466E0,-1.589133382E0
1.410297199E1,-1.676172256E0,-8.941679001E0,-1.079162955E0
1.411268558E1,-1.432104349E0,-9.059226990E0,-6.146563292E-1
1.412239996E1,-1.264606714E0,-9.176474571E0,-2.338984162E-1
1.413211355E1,-1.130309582E0,-9.209974289E0,1.734796353E-2
1.414182626E1,-9.580263495E-1,-9.123832703E0,2.353939265E-1
1.415153990E1,-9.125627279E-1,-8.893822670E0,4.316053987E-1
1.416125428E1,-9.077770710E-1,-8.668897629E0,5.656034350E-1
1.417096787E1,-8.838488460E-1,-8.573184013E0,6.230311990E-1
1.418068058E1,-8.024929166E-1,-8.649754524E0,7.019943595E-1
1.419039423E1,-6.586244106E-1,-8.893822670E0,8.769695163E-1
1.420010855E1,-5.629115105E-1,-9.214759827E0,1.195214868E0
1.420982214E1,-6.011967063E-1,-9.621838570E0,1.587936878E0
1.421953490E1,-7.905287743E-1,-1.027777100E1,1.662114382E0
1.422924850E1,-1.017846942E0,-1.114427280E1,1.305284739E0
1.423896287E1,-1.233201027E0,-1.211157131E1,8.123632669E-1
1.424867647E1,-1.434497118E0,-1.308604813E1,4.555336237E-1
1.425838917E1,-1.716850281E0,-1.400279808E1,7.238288224E-2
1.426810282E1,-2.119143486E0,-1.463480282E1,-1.208375454E0
1.427781720E1,-2.712862730E0,-1.478824234E1,-3.387040377E0
1.428753068E1,-3.241975546E0,-1.473560047E1,-6.085247040E0
1.429724350E1,-3.409473181E0,-1.463958836E1,-7.792226791E0
1.430695709E1,-3.186940670E0,-1.436919880E1,-7.734799385E0
1.431667147E1,-2.545365095E0,-1.389033508E1,-6.638288021E0
1.432638506E1,-2.097608089E0,-1.312672615E1,-5.134698391E0
1.433609777E1,-2.492722988E0,-1.213549900E1,-3.650250912E0
1.434581141E1,-3.088835001E0,-1.128544903E1,-2.637787819E0
1.435552579E1,-3.397509098E0,-1.061755180E1,-2.024626970E0
1.436523928E1,-3.684946775E0,-9.973584175E0,-1.608275890E0
1.437495209E1,-3.933800459E0,-9.348757744E0,-1.198804140E0
1.438466568E1,-4.135096550E0,-8.795717239E0,-6.433702111E-1
1.439438006E1,-4.479662895E0,-8.429315567E0,1.322034448E-1
1.440409365E1,-4.731208801E0,-8.257032394E0,9.343972206E-1
1.441380636E1,-4.676173687E0,-8.321639061E0,1.425225019E0
1.442352001E1,-4.532305241E0,-8.630612373E0,1.547258973E0
1.443323438E1,-4.606482506E0,-9.087940216E0,1.554437399E0
1.444294787E1,-4.575376034E0,-9.770194054E0,1.571187139E0
1.445266068E1,-4.621138573E0,-1.048833942E1,1.430010676E0
1.446237428E1,-4.767100811E0,-1.115145111E1,1.353440285E0
1.447208865E1,-4.628317356E0,-1.161356449E1,2.248655081E0
1.448180225E1,-3.957728624E0,-1.176670551E1,1.156929731E0
1.449151496E1,-2.621935368E0,-1.156092262E1,-1.567597985E0
1.450122860E1,-1.487139225E0,-1.072762203E1,-3.765405416E0
1.451094292E1,-1.053739309E0,-9.971191406E0,-3.930510283E0
1.452065652E1,-6.681957245E-1,-9.518648148E0,-3.353540897E0
1.453036923E1,-2.542374134E-1,-9.207581520E0,-2.584846735E0
1.454008287E1,-3.643072546E-1,-8.790931702E0,-1.620239973E0
1.454979725E1,-8.383852243E-1,-8.369495392E0,-3.272185028E-1
1.455951074E1,-1.211665511E0,-8.020143509E0,6.469594240E-1
1.456922355E1,-1.757528186E0,-7.560422421E0,-8.973085321E-3
1.457893714E1,-2.387438774E0,-7.189235687E0,-7.534400225E-1
1.458865152E1,-2.633899450E0,-6.859025955E0,-1.081555843E0
1.459836511E1,-2.578864574E0,-6.640980244E0,-7.821539044E-1
1.460807782E1,-2.507079840E0,-6.535696030E0,-7.582256794E-1
1.461779147E1,-2.504687071E0,-6.468697071E0,-2.003988922E-1
1.462750579E1,-2.507079840E0,-6.356234074E0,2.784647346E-1
1.463721938E1,-2.408974171E0,-6.265306950E0,2.353939265E-1
1.464693209E1,-2.363211393E0,-6.140581131E0,4.366901144E-2
1.465664574E1,-2.305783749E0,-5.937191010E0,-7.597211748E-2
1.466636011E1,-2.346461773E0,-5.644967556E0,-1.310070455E-1
1.467607360E1,-2.454437733E0,-5.460720539E0,-1.381855011E-1
1.468578636E1,-2.621935368E0,-5.501398563E0,-2.626122832E-1
1.469550001E1,-2.748754978E0,-5.726622581E0,-4.806582630E-1
1.470521438E1,-2.693720102E0,-6.133402824E0,-8.395816684E-1
1.471492787E1,-2.475973129E0,-6.676872253E0,-1.323230863E0
1.472464068E1,-2.181356907E0,-7.299305439E0,-1.988734722E0
1.473435428E1,-2.049751759E0,-8.001000404E0,-3.135494947E0
1.474406865E1,-2.066501379E0,-8.822037697E0,-4.715655327E0
1.475378214E1,-2.181356907E0,-9.841979027E0,-6.204888344E0
1.476349496E1,-2.581257343E0,-1.102702427E1,-7.847261906E0
1.477320855E1,-3.119941711E0,-1.223121166E1,-9.913165092E0
1.478292292E1,-3.419044495E0,-1.307408428E1,-1.134975624E1
1.479263652E1,-3.483650684E0,-1.313390446E1,-1.135214901E1
1.480234923E1,-3.299403429E0,-1.246122169E1,-1.011685371E1
1.481206282E1,-2.531008244E0,-1.155374432E1,-8.405088425E0
1.482177720E1,-1.731207132E0,-1.062473106E1,-6.738786697E0
1.483149079E1,-1.379462242E0,-9.887442589E0,-5.177769184E0
1.484120350E1,-1.539781332E0,-9.320044518E0,-3.422932863E0
1.485091709E1,-1.930110574E0,-8.841180801E0,-1.751845241E0
1.486063147E1,-2.346461773E0,-8.491529465E0,-5.237290859E-1
1.487034506E1,-3.062513828E0,-8.714361191E0,-1.525424421E-1
1.488005777E1,-4.175774574E0,-9.944869995E0,-7.869395614E-1
1.488977136E1,-4.398307323E0,-1.141974640E1,-1.720738530E0
1.489948574E1,-2.854039192E0,-1.214746284E1,-2.383849621E0
1.490919933E1,-6.610172391E-1,-1.197996521E1,-3.434896946E0
1.491891204E1,-1.680957973E-1,-1.129502010E1,-4.801796913E0
1.492862563E1,-1.415354609E0,-1.056730270E1,-5.491528034E0
1.493834001E1,-3.816552162E0,-1.027537823E1,-4.629513741E0
1.494805360E1,-6.584150791E0,-1.040937710E1,-3.101995468E0
1.495776631E1,-8.051848412E0,-1.053380394E1,-2.731107950E0
1.496747990E1,-6.651149750E0,-1.019641590E1,-2.546561480E0
1.497719428E1,-4.637888432E0,-8.738288879E0,-7.247261405E-1
1.498690787E1,-4.407878399E0,-7.040880680E0,1.214357495E0
1.499662058E1,-4.901099205E0,-5.843871117E0,1.784148335E0
1.500633417E1,-5.449354649E0,-5.223830700E0,1.109073281E0
1.501604855E1,-5.858826160E0,-5.125426292E0,3.622135222E-1
1.502576214E1,-5.918646812E0,-5.558825970E0,1.016949583E-2
1.503547485E1,-5.633601665E0,-6.542874336E0,-2.333002165E-2
1.504518844E1,-5.030311584E0,-7.823632717E0,1.034895778E-1
1.505490282E1,-4.431806564E0,-9.291330338E0,4.603192508E-1
1.506461631E1,-3.778266907E0,-1.082841969E1,9.248259664E-1
1.507432912E1,-2.889931440E0,-1.173081303E1,1.377368569E0
1.508404272E1,-1.863111496E0,-1.199193001E1,1.449153185E0
