"Time (s)","Acceleration x (m/s^2)","Acceleration y (m/s^2)","Acceleration z (m/s^2)"
4.783782300E-2,-1.561316848E-1,-9.889835358E0,6.493522525E-1
5.755172900E-2,-1.151545867E-1,-9.880263329E0,5.656034350E-1
6.726396800E-2,-8.404789865E-2,-9.868299484E0,4.986044168E-1
7.697709300E-2,-1.223330572E-1,-9.868299484E0,4.962115884E-1
8.669100000E-2,-1.752742529E-1,-9.873085022E0,4.986044168E-1
9.640402000E-2,-2.398804724E-1,-9.861121178E0,4.866403043E-1
1.061163120E-1,-2.877369225E-1,-9.822835922E0,5.033900738E-1
1.158294890E-1,-3.475574851E-1,-9.796515465E0,5.560321808E-1
1.255433430E-1,-3.595215976E-1,-9.789336205E0,6.110670567E-1
1.352563640E-1,-3.738785386E-1,-9.796515465E0,6.684948206E-1
1.449686560E-1,-3.284149170E-1,-9.827621460E0,7.211369276E-1
1.546818330E-1,-3.140579760E-1,-9.880263329E0,7.788637877E-1
1.643956870E-1,-3.212364316E-1,-9.863513947E0,7.645068169E-1
1.741087080E-1,-3.786641955E-1,-9.813264847E0,6.756733060E-1
1.838210000E-1,-4.001995921E-1,-9.774979591E0,6.565307379E-1
1.935341770E-1,-3.667000830E-1,-9.786943436E0,6.445665956E-1
2.032480310E-1,-3.355933726E-1,-9.794121742E0,6.637091637E-1
2.129610520E-1,-3.954139352E-1,-9.758230209E0,3.933202326E-1
2.226733950E-1,-4.241278172E-1,-9.751050949E0,4.483551383E-1
2.323865200E-1,-4.360919297E-1,-9.784550667E0,6.924230456E-1
2.421003750E-1,-3.523431420E-1,-9.825228691E0,6.182455420E-1
2.518135000E-1,-2.207378894E-1,-9.873085022E0,4.292125702E-1
2.615257390E-1,-1.007976532E-1,-9.882657051E0,5.249254704E-1
2.712388640E-1,-2.183450572E-2,-9.894620895E0,5.321039557E-1
2.809527700E-1,-2.901297435E-2,-9.918548584E0,3.717848063E-1
2.906657910E-1,-6.011966988E-2,-9.904191971E0,4.794618487E-1
3.003780830E-1,-1.489532143E-1,-9.882657051E0,7.091727853E-1
3.100912080E-1,-2.183450609E-1,-9.861121178E0,6.469594240E-1
3.198051140E-1,-2.973082066E-1,-9.822835922E0,4.842474759E-1
3.295181350E-1,-3.332005441E-1,-9.830014229E0,5.440680385E-1
3.392304270E-1,-3.068794906E-1,-9.839586258E0,5.703890920E-1
3.489435520E-1,-3.619144261E-1,-9.865906715E0,3.717848063E-1
3.586574580E-1,-3.332005441E-1,-9.892228127E0,4.172484577E-1
3.683704790E-1,-3.188436031E-1,-9.870692253E0,6.110670567E-1
3.780827700E-1,-3.284149170E-1,-9.849157333E0,5.033900738E-1
3.877959480E-1,-3.116651475E-1,-9.849157333E0,3.717848063E-1
3.975098020E-1,-2.590230405E-1,-9.810872078E0,5.656034350E-1
4.072228230E-1,-2.111666054E-1,-9.803693771E0,5.799604058E-1
4.169351140E-1,-2.590230405E-1,-9.782157898E0,4.100699723E-1
4.266482910E-1,-2.829512656E-1,-9.741479874E0,5.009972453E-1
4.363621450E-1,-2.757728100E-1,-9.746265411E0,6.852445602E-1
4.460751660E-1,-2.662015259E-1,-9.779765129E0,6.158527136E-1
4.557875100E-1,-2.063809484E-1,-9.849157333E0,5.464608669E-1
4.655006350E-1,-1.824527234E-1,-9.885049820E0,7.259225845E-1
4.752144890E-1,-2.135594189E-1,-9.894620895E0,6.828517914E-1
4.849276140E-1,-2.949153781E-1,-9.894620895E0,4.459623098E-1
4.946398540E-1,-3.044866920E-1,-9.892228127E0,5.201398134E-1
5.043529790E-1,-2.829512656E-1,-9.870692253E0,6.110670567E-1
5.140668850E-1,-2.685943544E-1,-9.822835922E0,3.622135222E-1
5.237799060E-1,-2.398804724E-1,-9.796515465E0,2.665006220E-1
5.334921980E-1,-2.279163599E-1,-9.791728973E0,5.033900738E-1
5.432053230E-1,-2.709871531E-1,-9.767801285E0,5.727819204E-1
5.529192290E-1,-3.260220885E-1,-9.760622978E0,4.172484577E-1
5.626322500E-1,-3.858426511E-1,-9.765408516E0,5.656034350E-1
5.723445410E-1,-3.403790295E-1,-9.782157898E0,7.477570772E-1
5.820577180E-1,-3.140579760E-1,-9.801301003E0,5.081757307E-1
5.917715730E-1,-2.997010350E-1,-9.856335640E0,4.028915167E-1
6.014846980E-1,-2.350948304E-1,-9.877870560E0,6.541379094E-1
6.111969370E-1,-2.063809484E-1,-9.918548584E0,6.661019921E-1
6.209100620E-1,-1.585244983E-1,-9.973584175E0,4.363910258E-1
6.306239160E-1,-1.127617657E-1,-9.968798637E0,4.986044168E-1
6.403370410E-1,-9.361918271E-2,-9.904191971E0,5.871388316E-1
6.500492810E-1,-1.944168359E-1,-9.856335640E0,3.765704632E-1
6.597624060E-1,-3.116651475E-1,-9.825228691E0,3.550350666E-1
6.694763120E-1,-4.025924206E-1,-9.794121742E0,6.014958024E-1
6.791893330E-1,-4.504488707E-1,-9.741479874E0,6.349952817E-1
6.889016250E-1,-4.360919297E-1,-9.751050949E0,5.273182988E-1
6.986148020E-1,-3.643072546E-1,-9.786943436E0,7.378866673E-1
7.083286560E-1,-2.853440940E-1,-9.822835922E0,7.331010103E-1
7.180417810E-1,-1.752742529E-1,-9.875477791E0,6.900302172E-1
7.277540200E-1,-1.369891018E-1,-9.877870560E0,5.823532343E-1
7.374671450E-1,-1.585244983E-1,-9.870692253E0,5.488536954E-1
7.471810520E-1,-1.609173268E-1,-9.885049820E0,5.560321808E-1
7.568940730E-1,-2.398804724E-1,-9.868299484E0,5.608177781E-1
7.666063640E-1,-2.733799815E-1,-9.815657616E0,5.440680385E-1
7.763195410E-1,-3.236292601E-1,-9.786943436E0,5.464608669E-1
7.860333950E-1,-3.475574851E-1,-9.743872643E0,5.679962635E-1
7.957465200E-1,-3.930211067E-1,-9.739087105E0,6.326025128E-1
8.054587600E-1,-3.810569942E-1,-9.767801285E0,6.948158741E-1
8.151718850E-1,-3.332005441E-1,-9.772586823E0,7.450651526E-1
8.248857910E-1,-3.164508045E-1,-9.827621460E0,6.996015310E-1
8.345988120E-1,-2.901297510E-1,-9.846764565E0,7.139584422E-1
8.443111040E-1,-2.207378894E-1,-9.875477791E0,6.397809386E-1
8.540242810E-1,-1.609173268E-1,-9.897013664E0,5.560321808E-1
8.637381350E-1,-1.345962733E-1,-9.894620895E0,5.009972453E-1
8.734512600E-1,-1.680957973E-1,-9.887442589E0,4.794618487E-1
8.831635000E-1,-2.518445849E-1,-9.849157333E0,5.344967842E-1
8.928766770E-1,-2.614158690E-1,-9.818050385E0,5.344967842E-1
9.025905310E-1,-2.303091735E-1,-9.801301003E0,5.129613280E-1
9.123035520E-1,-1.992024779E-1,-9.782157898E0,5.416752100E-1
9.220158950E-1,-1.968096644E-1,-9.841979027E0,5.895316601E-1
9.317290200E-1,-2.566302419E-1,-9.875477791E0,6.302096844E-1
9.414429270E-1,-3.212364316E-1,-9.865906715E0,6.326025128E-1
9.511559480E-1,-3.332005441E-1,-9.832406998E0,5.249254704E-1
9.608682390E-1,-2.614158690E-1,-9.801301003E0,4.244269133E-1
9.705814160E-1,-2.231307179E-1,-9.834799767E0,4.435695112E-1
9.802953230E-1,-2.063809484E-1,-9.837192535E0,5.009972453E-1
9.900083430E-1,-1.537388563E-1,-9.873085022E0,6.373881102E-1
9.997206350E-1,-1.103689447E-1,-9.908977509E0,7.378866673E-1
1.009433812E0,-1.369891018E-1,-9.904191971E0,7.354938388E-1
1.019147666E0,-1.151545867E-1,-9.877870560E0,6.732804775E-1
1.028860791E0,-1.633101404E-1,-9.873085022E0,5.919244885E-1
1.038573031E0,-2.470589429E-1,-9.837192535E0,5.129613280E-1
1.048286208E0,-2.590230405E-1,-9.832406998E0,4.986044168E-1
1.058000062E0,-2.398804724E-1,-9.830014229E0,5.225326419E-1
1.067713187E0,-2.327020019E-1,-9.818050385E0,5.703890920E-1
1.077425427E0,-1.872383654E-1,-9.822835922E0,5.967101455E-1
1.087138604E0,-1.968096644E-1,-9.839586258E0,6.062814593E-1
1.096852458E0,-3.044866920E-1,-9.846764565E0,6.684948206E-1
1.106565583E0,-3.667000830E-1,-9.815657616E0,6.948158741E-1
1.116277823E0,-3.834498227E-1,-9.770194054E0,6.397809386E-1
1.125991000E0,-3.092723191E-1,-9.753444672E0,6.206383705E-1
1.135704854E0,-2.757728100E-1,-9.784550667E0,6.062814593E-1
1.145417979E0,-2.207378894E-1,-9.832406998E0,6.421737671E-1
1.155130218E0,-2.590230405E-1,-9.873085022E0,6.445665956E-1
1.164843395E0,-3.714857101E-1,-9.839586258E0,5.632106066E-1
1.174557302E0,-3.762713671E-1,-9.801301003E0,4.722833633E-1
1.184270323E0,-3.882354796E-1,-9.765408516E0,4.507479668E-1
1.193982614E0,-3.116651475E-1,-9.806086540E0,4.627120793E-1
1.203695791E0,-2.303091735E-1,-9.851550102E0,5.105685592E-1
1.213409698E0,-1.776670814E-1,-9.920941353E0,5.799604058E-1
1.223122718E0,-1.896311939E-1,-9.971191406E0,6.637091637E-1
1.232835062E0,-1.872383654E-1,-9.975976944E0,6.996015310E-1
1.242548187E0,-2.279163599E-1,-9.947262764E0,6.014958024E-1
1.252262093E0,-2.614158690E-1,-9.906584740E0,6.086742878E-1
1.261975114E0,-3.738785386E-1,-9.832406998E0,6.278168559E-1
1.271687458E0,-4.456632137E-1,-9.774979591E0,6.086742878E-1
1.281400583E0,-5.318048596E-1,-9.712766647E0,6.230311990E-1
1.291114489E0,-5.270192027E-1,-9.707980156E0,6.684948206E-1
1.300827614E0,-3.906283081E-1,-9.753444672E0,6.445665956E-1
1.310539854E0,-2.422732860E-1,-9.801301003E0,6.110670567E-1
1.320253031E0,-1.992024779E-1,-9.851550102E0,5.560321808E-1
1.329966885E0,-2.374876440E-1,-9.885049820E0,5.967101455E-1
1.339680010E0,-2.255235314E-1,-9.904191971E0,5.847460628E-1
1.349392302E0,-2.135594189E-1,-9.894620895E0,5.273182988E-1
1.359105427E0,-1.992024779E-1,-9.904191971E0,5.608177781E-1
1.368819333E0,-1.752742529E-1,-9.923335075E0,5.847460628E-1
1.378532354E0,-1.680957973E-1,-9.861121178E0,5.799604058E-1
1.388244698E0,-1.896311939E-1,-9.803693771E0,5.895316601E-1
1.397957875E0,-2.255235314E-1,-9.741479874E0,6.708876491E-1
1.407671729E0,-2.542374134E-1,-9.739087105E0,6.996015310E-1
1.417384854E0,-3.140579760E-1,-9.729516029E0,7.283154130E-1
1.427097093E0,-3.332005441E-1,-9.774979591E0,7.259225845E-1
1.436810270E0,-3.547359705E-1,-9.827621460E0,6.397809386E-1
1.446524177E0,-3.164508045E-1,-9.849157333E0,5.727819204E-1
1.456237198E0,-2.877369225E-1,-9.873085022E0,5.153541565E-1
1.465949541E0,-1.776670814E-1,-9.885049820E0,4.603192508E-1
1.475662666E0,-1.250249892E-1,-9.853942871E0,4.435695112E-1
1.485376573E0,-1.369891018E-1,-9.815657616E0,4.890331328E-1
1.495089698E0,-2.039881349E-1,-9.796515465E0,5.775675774E-1
1.504801937E0,-1.968096644E-1,-9.806086540E0,6.349952817E-1
1.514515114E0,-2.207378894E-1,-9.806086540E0,7.019943595E-1
1.524229020E0,-2.685943544E-1,-9.844371796E0,6.708876491E-1
1.533942041E0,-2.901297510E-1,-9.818050385E0,5.512465239E-1
1.543654385E0,-2.255235314E-1,-9.849157333E0,5.153541565E-1
1.553367562E0,-1.561316848E-1,-9.868299484E0,5.823532343E-1
1.563081416E0,-1.704886109E-1,-9.858728409E0,5.991029739E-1
1.572794541E0,-1.704886109E-1,-9.851550102E0,5.632106066E-1
1.582506781E0,-2.015953064E-1,-9.849157333E0,6.062814593E-1
1.592219958E0,-2.733799815E-1,-9.818050385E0,5.464608669E-1
1.601933864E0,-2.327020019E-1,-9.791728973E0,5.488536954E-1
1.611646989E0,-2.997010350E-1,-9.794121742E0,6.948158741E-1
1.621359229E0,-3.212364316E-1,-9.784550667E0,6.230311990E-1
1.631072406E0,-3.379862010E-1,-9.794121742E0,5.584250093E-1
1.640786312E0,-4.480560422E-1,-9.796515465E0,6.613163352E-1
1.650499333E0,-3.906283081E-1,-9.827621460E0,6.637091637E-1
1.660211677E0,-2.805584669E-1,-9.856335640E0,6.517450809E-1
1.669924802E0,-1.896311939E-1,-9.853942871E0,6.302096844E-1
1.679638708E0,-1.298106313E-1,-9.856335640E0,6.421737671E-1
1.689351833E0,-1.274178028E-1,-9.899406433E0,6.326025128E-1
1.699064073E0,-1.561316848E-1,-9.906584740E0,6.326025128E-1
1.708777250E0,-2.590230405E-1,-9.865906715E0,6.708876491E-1
1.718491156E0,-3.499503136E-1,-9.837192535E0,5.943173170E-1
1.728204177E0,-4.073780477E-1,-9.820443153E0,5.129613280E-1
1.737916520E0,-4.432703853E-1,-9.798908234E0,4.914259613E-1
1.747629698E0,-4.384847581E-1,-9.774979591E0,4.890331328E-1
1.757343552E0,-4.504488707E-1,-9.731908798E0,5.416752100E-1
1.767056677E0,-4.169493318E-1,-9.765408516E0,5.895316601E-1
1.776768968E0,-3.834498227E-1,-9.798908234E0,7.019943595E-1
1.786482093E0,-3.212364316E-1,-9.818050385E0,7.163512707E-1
1.796196000E0,-2.231307179E-1,-9.849157333E0,6.756733060E-1
1.805909125E0,-1.728814393E-1,-9.870692253E0,7.187440991E-1
1.815621364E0,-1.848455518E-1,-9.928120613E0,6.589235067E-1
1.825334541E0,-2.494517565E-1,-9.858728409E0,5.727819204E-1
1.835048448E0,-2.685943544E-1,-9.868299484E0,5.440680385E-1
1.844761468E0,-2.853440940E-1,-9.877870560E0,4.938187599E-1
1.854473812E0,-3.092723191E-1,-9.868299484E0,4.914259613E-1
1.864186989E0,-2.877369225E-1,-9.880263329E0,5.536393523E-1
1.873900843E0,-2.901297510E-1,-9.880263329E0,5.991029739E-1
1.883613968E0,-2.901297510E-1,-9.861121178E0,6.182455420E-1
1.893326260E0,-2.877369225E-1,-9.834799767E0,6.349952817E-1
1.903039385E0,-3.068794906E-1,-9.846764565E0,6.900302172E-1
1.912753291E0,-3.786641955E-1,-9.832406998E0,7.884350419E-1
1.922466416E0,-3.595215976E-1,-9.801301003E0,6.948158741E-1
1.932178656E0,-3.260220885E-1,-9.765408516E0,5.608177781E-1
1.941891833E0,-3.690928817E-1,-9.722337723E0,5.249254704E-1
1.951605739E0,-4.073780477E-1,-9.751050949E0,6.086742878E-1
1.961318760E0,-4.121637046E-1,-9.818050385E0,7.067800164E-1
1.971031104E0,-4.313062727E-1,-9.827621460E0,7.259225845E-1
1.980744281E0,-3.882354796E-1,-9.774979591E0,6.086742878E-1
1.990458135E0,-3.595215976E-1,-9.743872643E0,4.890331328E-1
2.000171260E0,-3.619144261E-1,-9.758230209E0,5.273182988E-1
2.009883552E0,-3.044866920E-1,-9.746265411E0,6.086742878E-1
2.019596677E0,-2.614158690E-1,-9.794121742E0,6.613163352E-1
2.029310583E0,-2.111666054E-1,-9.822835922E0,7.668996453E-1
2.039023708E0,-1.704886109E-1,-9.877870560E0,7.932206988E-1
2.048735948E0,-1.633101404E-1,-9.930513382E0,7.354938388E-1
2.058449125E0,-1.441675574E-1,-9.952048302E0,6.541379094E-1
2.068163031E0,-1.728814393E-1,-9.928120613E0,5.703890920E-1
2.077876052E0,-1.920240223E-1,-9.930513382E0,4.627120793E-1
2.087588395E0,-1.441675574E-1,-9.908977509E0,4.507479668E-1
2.097301573E0,-1.223330572E-1,-9.904191971E0,4.603192508E-1
2.107015427E0,-1.298106313E-1,-9.868299484E0,4.746761918E-1
2.116728552E0,-1.633101404E-1,-9.822835922E0,5.584250093E-1
2.126440791E0,-2.015953064E-1,-9.803693771E0,6.684948206E-1
2.136153968E0,-3.260220885E-1,-9.765408516E0,7.716853023E-1
2.145867875E0,-3.954139352E-1,-9.729516029E0,8.530412912E-1
2.155581000E0,-4.193421602E-1,-9.748658180E0,8.602197170E-1
2.165293239E0,-4.336991012E-1,-9.765408516E0,7.645068169E-1
2.175006416E0,-3.667000830E-1,-9.794121742E0,6.780661345E-1
2.184720323E0,-2.494517565E-1,-9.834799767E0,6.780661345E-1
2.194433343E0,-1.752742529E-1,-9.858728409E0,6.684948206E-1
2.204145687E0,-1.968096644E-1,-9.892228127E0,6.230311990E-1
2.213858812E0,-2.398804724E-1,-9.863513947E0,5.703890920E-1
2.223572718E0,-3.068794906E-1,-9.837192535E0,5.895316601E-1
2.233285843E0,-3.499503136E-1,-9.849157333E0,6.158527136E-1
2.242998083E0,-4.097708762E-1,-9.830014229E0,6.421737671E-1
2.252711260E0,-4.528416991E-1,-9.801301003E0,6.852445602E-1
2.262425166E0,-4.169493318E-1,-9.813264847E0,6.948158741E-1
2.272138187E0,-4.743770957E-1,-9.763015747E0,6.780661345E-1
2.281850531E0,-4.911268353E-1,-9.751050949E0,7.908278704E-1
2.291563708E0,-3.188436031E-1,-9.813264847E0,8.386843204E-1
2.301277562E0,-1.896311939E-1,-9.861121178E0,9.439685345E-1
2.310990687E0,-1.441675574E-1,-9.858728409E0,9.296116233E-1
2.320702927E0,-1.513460279E-1,-9.844371796E0,7.597211599E-1
2.330416104E0,-2.279163599E-1,-9.813264847E0,6.182455420E-1
2.340130010E0,-2.733799815E-1,-9.825228691E0,6.421737671E-1
2.349843135E0,-3.355933726E-1,-9.844371796E0,6.684948206E-1
2.359555375E0,-3.643072546E-1,-9.841979027E0,6.972087026E-1
2.369268552E0,-3.738785386E-1,-9.808479309E0,7.525427341E-1
2.378982406E0,-3.379862010E-1,-9.806086540E0,7.621139884E-1
2.388695531E0,-3.523431420E-1,-9.779765129E0,7.378866673E-1
2.398407823E0,-3.403790295E-1,-9.791728973E0,7.211369276E-1
2.408120948E0,-3.738785386E-1,-9.820443153E0,7.019943595E-1
2.417834854E0,-4.049852192E-1,-9.839586258E0,6.206383705E-1
2.427547979E0,-4.025924206E-1,-9.834799767E0,5.919244885E-1
2.437260218E0,-3.236292601E-1,-9.849157333E0,5.368895531E-1
2.446973395E0,-2.446661144E-1,-9.844371796E0,4.914259613E-1
2.456687250E0,-2.231307179E-1,-9.880263329E0,5.177469850E-1
2.466400375E0,-1.728814393E-1,-9.875477791E0,5.967101455E-1
2.476112666E0,-1.345962733E-1,-9.875477791E0,6.349952817E-1
2.485825791E0,-8.644071966E-2,-9.853942871E0,6.517450809E-1
2.495539698E0,-3.140579537E-2,-9.861121178E0,6.828517914E-1
2.505252823E0,-5.533402413E-2,-9.858728409E0,6.852445602E-1
2.514965062E0,-1.127617657E-1,-9.830014229E0,6.684948206E-1
2.524678239E0,-1.561316848E-1,-9.806086540E0,6.637091637E-1
2.534392093E0,-2.374876440E-1,-9.784550667E0,6.661019921E-1
2.544105218E0,-2.853440940E-1,-9.755837440E0,6.373881102E-1
2.553817510E0,-3.260220885E-1,-9.688838005E0,5.632106066E-1
2.563530635E0,-3.379862010E-1,-9.667302132E0,5.656034350E-1
2.573244541E0,-3.332005441E-1,-9.696016312E0,6.661019921E-1
2.582957666E0,-3.164508045E-1,-9.779765129E0,8.721838593E-1
2.592669906E0,-2.877369225E-1,-9.865906715E0,9.439685345E-1
2.602383083E0,-1.728814393E-1,-9.894620895E0,9.391828775E-1
2.612096937E0,-9.840483218E-2,-9.901799202E0,9.439685345E-1
2.621810062E0,-5.054837838E-2,-9.913763046E0,9.008977413E-1
2.631522302E0,-8.644071966E-2,-9.908977509E0,8.171489239E-1
2.641235479E0,-1.345962733E-1,-9.880263329E0,6.613163352E-1
2.650949385E0,-2.135594189E-1,-9.825228691E0,5.608177781E-1
2.660662406E0,-3.044866920E-1,-9.810872078E0,5.225326419E-1
2.670374750E0,-4.217349887E-1,-9.808479309E0,5.751747489E-1
2.680087875E0,-5.246263742E-1,-9.837192535E0,6.708876491E-1
2.689801781E0,-5.916253924E-1,-9.853942871E0,6.780661345E-1
2.699514906E0,-5.964110494E-1,-9.837192535E0,6.780661345E-1
2.709227145E0,-5.844469070E-1,-9.849157333E0,6.684948206E-1
2.718940323E0,-5.413761139E-1,-9.904191971E0,6.948158741E-1
2.728654229E0,-3.643072546E-1,-9.942477226E0,7.067800164E-1
2.738367250E0,-2.231307179E-1,-9.930513382E0,6.613163352E-1
2.748079541E0,-1.728814393E-1,-9.868299484E0,6.397809386E-1
2.757792718E0,-1.322034448E-1,-9.858728409E0,7.115656137E-1
2.767506625E0,-1.465603858E-1,-9.844371796E0,7.668996453E-1
2.777219645E0,-2.135594189E-1,-9.849157333E0,7.716853023E-1
2.786931989E0,-2.685943544E-1,-9.825228691E0,7.716853023E-1
2.796645166E0,-4.217349887E-1,-9.770194054E0,7.331010103E-1
2.806359020E0,-5.413761139E-1,-9.734301567E0,6.780661345E-1
2.816072145E0,-5.844469070E-1,-9.746265411E0,6.326025128E-1
2.825784385E0,-5.102694035E-1,-9.758230209E0,5.871388316E-1
2.835497562E0,-3.978067636E-1,-9.758230209E0,5.895316601E-1
2.845211416E0,-3.116651475E-1,-9.777372360E0,6.637091637E-1
2.854924541E0,-2.518445849E-1,-9.806086540E0,7.235297561E-1
2.864636781E0,-1.465603858E-1,-9.844371796E0,7.525427341E-1
2.874349958E0,-9.122636169E-2,-9.844371796E0,7.211369276E-1
2.884063864E0,-3.619144112E-2,-9.853942871E0,6.948158741E-1
2.893776885E0,-8.644071966E-2,-9.863513947E0,6.948158741E-1
2.903489229E0,-1.007976532E-1,-9.875477791E0,6.948158741E-1
2.913202354E0,-1.199402362E-1,-9.856335640E0,7.354938388E-1
2.922916260E0,-1.537388563E-1,-9.841979027E0,7.211369276E-1
2.932629385E0,-2.087737769E-1,-9.844371796E0,6.828517914E-1
2.942341625E0,-2.685943544E-1,-9.834799767E0,6.613163352E-1
2.952054802E0,-3.355933726E-1,-9.834799767E0,6.684948206E-1
2.961768656E0,-4.001995921E-1,-9.832406998E0,5.608177781E-1
2.971481781E0,-4.408775866E-1,-9.810872078E0,5.416752100E-1
2.981194020E0,-4.169493318E-1,-9.770194054E0,5.727819204E-1
2.990907198E0,-4.121637046E-1,-9.779765129E0,6.302096844E-1
3.000621104E0,-3.595215976E-1,-9.820443153E0,7.019943595E-1
3.010334125E0,-2.685943544E-1,-9.825228691E0,7.908278704E-1
3.020046416E0,-2.063809484E-1,-9.846764565E0,7.812566161E-1
3.029759593E0,-1.968096644E-1,-9.870692253E0,7.426723242E-1
3.039473500E0,-1.776670814E-1,-9.880263329E0,6.876373887E-1
3.049186520E0,-1.537388563E-1,-9.858728409E0,6.421737671E-1
3.058898864E0,-1.896311939E-1,-9.851550102E0,6.349952817E-1
3.068611989E0,-2.685943544E-1,-9.839586258E0,6.014958024E-1
3.078325895E0,-3.260220885E-1,-9.832406998E0,5.967101455E-1
3.088038916E0,-3.332005441E-1,-9.815657616E0,6.134598851E-1
3.097751260E0,-3.068794906E-1,-9.772586823E0,5.703890920E-1
3.107464385E0,-2.997010350E-1,-9.729516029E0,5.703890920E-1
3.117178291E0,-2.494517565E-1,-9.755837440E0,7.597211599E-1
3.126891416E0,-2.303091735E-1,-9.803693771E0,8.865407705E-1
3.136603656E0,-1.992024779E-1,-9.832406998E0,8.650053740E-1
3.146316833E0,-1.103689447E-1,-9.868299484E0,8.386843204E-1
3.156030687E0,-8.883354068E-2,-9.885049820E0,8.003991842E-1
3.165743812E0,-1.417747438E-1,-9.856335640E0,6.589235067E-1
3.175456052E0,-1.896311939E-1,-9.846764565E0,5.679962635E-1
3.185169177E0,-2.422732860E-1,-9.851550102E0,5.512465239E-1
3.194883083E0,-2.590230405E-1,-9.861121178E0,5.033900738E-1
3.204596208E0,-2.542374134E-1,-9.832406998E0,5.344967842E-1
3.214308448E0,-2.614158690E-1,-9.808479309E0,5.895316601E-1
3.224021625E0,-2.829512656E-1,-9.818050385E0,6.326025128E-1
3.233735479E0,-3.068794906E-1,-9.801301003E0,5.967101455E-1
3.243448604E0,-2.925225794E-1,-9.779765129E0,6.373881102E-1
3.253160843E0,-2.494517565E-1,-9.806086540E0,7.211369276E-1
3.262874020E0,-2.135594189E-1,-9.815657616E0,7.402794957E-1
3.272587875E0,-1.728814393E-1,-9.832406998E0,7.402794957E-1
3.282301000E0,-1.465603858E-1,-9.856335640E0,7.211369276E-1
3.292013239E0,-1.896311939E-1,-9.844371796E0,7.331010103E-1
3.301726416E0,-1.776670814E-1,-9.873085022E0,7.621139884E-1
3.311440270E0,-2.159522474E-1,-9.851550102E0,7.740781307E-1
3.321153395E0,-3.092723191E-1,-9.834799767E0,7.501499057E-1
3.330865635E0,-3.643072546E-1,-9.822835922E0,6.924230456E-1
3.340578812E0,-4.265206456E-1,-9.815657616E0,7.043871880E-1
3.350292666E0,-4.839483798E-1,-9.815657616E0,7.378866673E-1
3.360005791E0,-4.839483798E-1,-9.796515465E0,7.235297561E-1
3.369718031E0,-4.289134443E-1,-9.786943436E0,7.450651526E-1
3.379431208E0,-3.379862010E-1,-9.794121742E0,7.621139884E-1
3.389145062E0,-2.901297510E-1,-9.794121742E0,7.450651526E-1
3.398858187E0,-2.973082066E-1,-9.825228691E0,7.331010103E-1
3.408570427E0,-2.997010350E-1,-9.870692253E0,6.852445602E-1
3.418283604E0,-3.092723191E-1,-9.861121178E0,6.182455420E-1
3.427997458E0,-2.709871531E-1,-9.863513947E0,5.297111273E-1
3.437710583E0,-3.092723191E-1,-9.846764565E0,4.962115884E-1
3.447422823E0,-2.997010350E-1,-9.844371796E0,4.842474759E-1
3.457135948E0,-3.068794906E-1,-9.815657616E0,5.129613280E-1
3.466849854E0,-3.595215976E-1,-9.820443153E0,5.823532343E-1
3.476562875E0,-3.451646566E-1,-9.832406998E0,6.397809386E-1
3.486275218E0,-2.614158690E-1,-9.822835922E0,6.756733060E-1
3.495988343E0,-1.680957973E-1,-9.834799767E0,6.828517914E-1
3.505702250E0,-1.800599098E-1,-9.851550102E0,7.115656137E-1
3.515415270E0,-1.704886109E-1,-9.844371796E0,7.115656137E-1
3.525127614E0,-1.704886109E-1,-9.846764565E0,7.163512707E-1
3.534840739E0,-2.255235314E-1,-9.875477791E0,7.163512707E-1
3.544554645E0,-2.685943544E-1,-9.920941353E0,7.354938388E-1
3.554267666E0,-2.853440940E-1,-9.904191971E0,6.756733060E-1
3.563980010E0,-3.020938635E-1,-9.863513947E0,5.727819204E-1
3.573693135E0,-3.690928817E-1,-9.825228691E0,4.986044168E-1
3.583407041E0,-4.121637046E-1,-9.770194054E0,4.722833633E-1
3.593120062E0,-4.648058116E-1,-9.755837440E0,5.153541565E-1
3.602832354E0,-4.624129832E-1,-9.755837440E0,6.206383705E-1
3.612545531E0,-4.145565331E-1,-9.815657616E0,6.948158741E-1
3.622259385E0,-3.714857101E-1,-9.846764565E0,6.948158741E-1
3.631972510E0,-2.997010350E-1,-9.825228691E0,6.589235067E-1
3.641684750E0,-2.709871531E-1,-9.830014229E0,6.756733060E-1
3.651397875E0,-2.327020019E-1,-9.820443153E0,6.708876491E-1
3.661111781E0,-3.068794906E-1,-9.803693771E0,6.804589629E-1
3.670824802E0,-3.236292601E-1,-9.808479309E0,6.684948206E-1
3.680537145E0,-3.260220885E-1,-9.782157898E0,6.589235067E-1
3.690250270E0,-3.212364316E-1,-9.755837440E0,6.373881102E-1
3.699964177E0,-2.877369225E-1,-9.774979591E0,6.661019921E-1
3.709677198E0,-2.805584669E-1,-9.777372360E0,6.924230456E-1
3.719389489E0,-2.159522474E-1,-9.782157898E0,6.469594240E-1
3.729102666E0,-1.992024779E-1,-9.820443153E0,6.373881102E-1
3.738816573E0,-1.824527234E-1,-9.853942871E0,7.259225845E-1
3.748529593E0,-1.848455518E-1,-9.887442589E0,8.219345808E-1
3.758241885E0,-2.135594189E-1,-9.899406433E0,8.195417523E-1
3.767955062E0,-2.398804724E-1,-9.875477791E0,7.980063558E-1
3.777668916E0,-2.398804724E-1,-9.894620895E0,7.549355626E-1
3.787382041E0,-2.614158690E-1,-9.925727844E0,6.565307379E-1
3.797094281E0,-3.379862010E-1,-9.880263329E0,5.081757307E-1
3.806807406E0,-4.025924206E-1,-9.818050385E0,4.483551383E-1
3.816521312E0,-4.815555513E-1,-9.770194054E0,4.435695112E-1
3.826234333E0,-5.485545993E-1,-9.739087105E0,5.057829022E-1
3.835946625E0,-4.983053207E-1,-9.751050949E0,6.254240274E-1
3.845659802E0,-3.906283081E-1,-9.784550667E0,6.876373887E-1
3.855373708E0,-2.925225794E-1,-9.794121742E0,7.354938388E-1
3.865086729E0,-2.709871531E-1,-9.767801285E0,7.645068169E-1
3.874799020E0,-2.303091735E-1,-9.815657616E0,7.450651526E-1
3.884512198E0,-2.614158690E-1,-9.837192535E0,7.259225845E-1
3.894226052E0,-2.877369225E-1,-9.861121178E0,6.852445602E-1
3.903939073E0,-2.901297510E-1,-9.880263329E0,6.613163352E-1
3.913651416E0,-3.044866920E-1,-9.892228127E0,6.397809386E-1
3.923364541E0,-2.853440940E-1,-9.885049820E0,6.062814593E-1
3.933078448E0,-2.638086975E-1,-9.880263329E0,5.703890920E-1
3.942791468E0,-2.685943544E-1,-9.851550102E0,6.086742878E-1
3.952503760E0,-2.973082066E-1,-9.841979027E0,6.014958024E-1
3.962216937E0,-3.643072546E-1,-9.808479309E0,5.656034350E-1
3.971930791E0,-4.097708762E-1,-9.746265411E0,4.938187599E-1
3.981643916E0,-3.978067636E-1,-9.739087105E0,5.033900738E-1
3.991356156E0,-3.284149170E-1,-9.767801285E0,5.632106066E-1
4.001069281E0,-2.255235314E-1,-9.825228691E0,6.756733060E-1
4.010783187E0,-2.039881349E-1,-9.882657051E0,7.764709592E-1
4.020496208E0,-2.494517565E-1,-9.875477791E0,7.740781307E-1
4.030208552E0,-2.614158690E-1,-9.839586258E0,7.402794957E-1
4.039921677E0,-2.901297510E-1,-9.820443153E0,6.541379094E-1
4.049635531E0,-3.260220885E-1,-9.830014229E0,6.038886309E-1
4.059348656E0,-3.284149170E-1,-9.851550102E0,6.134598851E-1
4.069060895E0,-3.571287692E-1,-9.856335640E0,5.871388316E-1
4.078774073E0,-3.547359705E-1,-9.839586258E0,5.656034350E-1
4.088487927E0,-3.714857101E-1,-9.801301003E0,5.297111273E-1
4.098200948E0,-4.025924206E-1,-9.774979591E0,5.991029739E-1
4.107913291E0,-3.882354796E-1,-9.789336205E0,6.421737671E-1
4.117626416E0,-3.403790295E-1,-9.810872078E0,6.708876491E-1
4.127340270E0,-2.853440940E-1,-9.830014229E0,6.661019921E-1
4.137053395E0,-2.733799815E-1,-9.856335640E0,6.134598851E-1
4.146765635E0,-2.566302419E-1,-9.877870560E0,5.991029739E-1
4.156478812E0,-2.470589429E-1,-9.897013664E0,6.110670567E-1
4.166192666E0,-2.350948304E-1,-9.906584740E0,5.943173170E-1
4.175905687E0,-2.063809484E-1,-9.892228127E0,5.823532343E-1
4.185618031E0,-2.231307179E-1,-9.853942871E0,6.302096844E-1
4.195331156E0,-2.733799815E-1,-9.822835922E0,7.283154130E-1
4.205045062E0,-3.355933726E-1,-9.784550667E0,7.621139884E-1
4.214758083E0,-4.145565331E-1,-9.717552185E0,7.477570772E-1
4.224470375E0,-4.313062727E-1,-9.684052467E0,7.788637877E-1
4.234183552E0,-4.145565331E-1,-9.698409081E0,8.243274093E-1
4.243897406E0,-3.786641955E-1,-9.734301567E0,8.434699774E-1
4.253610427E0,-3.236292601E-1,-9.794121742E0,8.530412912E-1
4.263322770E0,-2.829512656E-1,-9.865906715E0,7.764709592E-1
4.273035895E0,-2.422732860E-1,-9.894620895E0,7.235297561E-1
4.282749750E0,-2.422732860E-1,-9.897013664E0,6.397809386E-1
4.292462875E0,-2.494517565E-1,-9.875477791E0,5.919244885E-1
4.302175114E0,-2.805584669E-1,-9.856335640E0,5.799604058E-1
4.311888291E0,-1.872383654E-1,-9.882657051E0,6.326025128E-1
4.321602145E0,-1.585244983E-1,-9.887442589E0,6.445665956E-1
4.331315166E0,-2.087737769E-1,-9.841979027E0,6.110670567E-1
4.341027510E0,-2.159522474E-1,-9.827621460E0,5.967101455E-1
4.350740635E0,-2.159522474E-1,-9.810872078E0,6.134598851E-1
4.360454489E0,-2.518445849E-1,-9.786943436E0,5.967101455E-1
4.370167614E0,-2.949153781E-1,-9.760622978E0,6.349952817E-1
4.379879854E0,-3.164508045E-1,-9.784550667E0,6.613163352E-1
4.389592979E0,-3.140579760E-1,-9.820443153E0,6.804589629E-1
4.399306885E0,-3.260220885E-1,-9.849157333E0,6.661019921E-1
4.409019906E0,-3.164508045E-1,-9.877870560E0,6.421737671E-1
4.418732198E0,-2.614158690E-1,-9.877870560E0,6.493522525E-1
4.428445375E0,-2.566302419E-1,-9.906584740E0,6.134598851E-1
4.438159229E0,-2.901297510E-1,-9.928120613E0,5.991029739E-1
4.447872250E0,-2.398804724E-1,-9.920941353E0,6.230311990E-1
4.457584593E0,-1.824527234E-1,-9.913763046E0,6.517450809E-1
4.467297718E0,-1.537388563E-1,-9.892228127E0,6.278168559E-1
4.477011625E0,-1.944168359E-1,-9.846764565E0,6.302096844E-1
4.486724645E0,-2.327020019E-1,-9.806086540E0,6.493522525E-1
4.496436937E0,-2.662015259E-1,-9.751050949E0,6.828517914E-1
4.506150062E0,-3.523431420E-1,-9.729516029E0,7.645068169E-1
4.515863968E0,-4.600201547E-1,-9.710372925E0,8.602197170E-1
4.525576989E0,-5.030909777E-1,-9.755837440E0,8.913264275E-1
4.535289281E0,-5.246263742E-1,-9.782157898E0,7.956135273E-1
4.545002458E0,-5.222335458E-1,-9.801301003E0,6.924230456E-1
4.554716312E0,-4.743770957E-1,-9.830014229E0,6.278168559E-1
4.564429437E0,-4.480560422E-1,-9.818050385E0,5.895316601E-1
4.574141677E0,-4.791627228E-1,-9.806086540E0,6.445665956E-1
4.583854802E0,-4.671986103E-1,-9.803693771E0,7.621139884E-1
4.593568708E0,-4.121637046E-1,-9.830014229E0,7.884350419E-1
4.603281729E0,-3.547359705E-1,-9.846764565E0,7.597211599E-1
4.612994020E0,-3.571287692E-1,-9.839586258E0,7.621139884E-1
4.622707198E0,-3.379862010E-1,-9.841979027E0,7.477570772E-1
4.632421052E0,-3.068794906E-1,-9.875477791E0,7.115656137E-1
4.642134073E0,-2.925225794E-1,-9.887442589E0,6.948158741E-1
4.651846416E0,-2.877369225E-1,-9.906584740E0,6.589235067E-1
4.661559541E0,-2.877369225E-1,-9.875477791E0,6.230311990E-1
4.671273395E0,-2.805584669E-1,-9.837192535E0,6.062814593E-1
4.680986520E0,-2.685943544E-1,-9.822835922E0,5.775675774E-1
4.690698760E0,-3.475574851E-1,-9.782157898E0,6.134598851E-1
4.700411885E0,-4.193421602E-1,-9.777372360E0,6.134598851E-1
4.710125791E0,-4.313062727E-1,-9.736694336E0,6.876373887E-1
4.719838812E0,-3.930211067E-1,-9.751050949E0,7.211369276E-1
4.729551104E0,-4.001995921E-1,-9.789336205E0,7.402794957E-1
4.739264281E0,-3.379862010E-1,-9.825228691E0,8.243274093E-1
4.748978135E0,-2.685943544E-1,-9.868299484E0,7.211369276E-1
4.758691156E0,-2.087737769E-1,-9.882657051E0,6.613163352E-1
4.768403500E0,-1.944168359E-1,-9.911370277E0,7.163512707E-1
4.778116625E0,-1.824527234E-1,-9.928120613E0,6.804589629E-1
4.787830479E0,-1.417747438E-1,-9.906584740E0,6.589235067E-1
4.797543604E0,-1.609173268E-1,-9.853942871E0,6.900302172E-1
4.807255843E0,-2.566302419E-1,-9.803693771E0,7.019943595E-1
4.816968968E0,-3.188436031E-1,-9.786943436E0,6.804589629E-1
4.826682875E0,-3.188436031E-1,-9.794121742E0,6.589235067E-1
4.836395895E0,-3.236292601E-1,-9.782157898E0,5.823532343E-1
4.846108187E0,-3.499503136E-1,-9.753444672E0,5.488536954E-1
4.855821364E0,-4.121637046E-1,-9.760622978E0,5.823532343E-1
4.865535218E0,-4.049852192E-1,-9.758230209E0,5.847460628E-1
4.875248239E0,-3.619144261E-1,-9.777372360E0,6.230311990E-1
4.884960583E0,-2.973082066E-1,-9.832406998E0,6.996015310E-1
4.894673708E0,-2.518445849E-1,-9.877870560E0,6.637091637E-1
4.904387562E0,-1.800599098E-1,-9.906584740E0,5.703890920E-1
4.914100687E0,-1.298106313E-1,-9.956833839E0,5.464608669E-1
4.923812927E0,-7.208377868E-2,-9.971191406E0,5.656034350E-1
4.933526052E0,-6.490531564E-2,-9.990333557E0,6.134598851E-1
4.943239958E0,-1.872383654E-1,-9.925727844E0,6.684948206E-1
4.952952979E0,-2.997010350E-1,-9.849157333E0,6.637091637E-1
4.962665270E0,-4.384847581E-1,-9.789336205E0,6.158527136E-1
4.972378395E0,-4.576273263E-1,-9.753444672E0,5.656034350E-1
4.982092302E0,-4.265206456E-1,-9.779765129E0,5.512465239E-1
4.991805323E0,-4.025924206E-1,-9.801301003E0,5.943173170E-1
5.001517614E0,-3.260220885E-1,-9.853942871E0,7.019943595E-1
5.011230791E0,-2.422732860E-1,-9.875477791E0,7.932206988E-1
5.020944645E0,-1.298106313E-1,-9.897013664E0,8.889335990E-1
5.030657666E0,-7.926224917E-2,-9.913763046E0,8.410771489E-1
5.040370010E0,-9.361918271E-2,-9.897013664E0,7.980063558E-1
5.050083135E0,-1.776670814E-1,-9.844371796E0,7.331010103E-1
5.059796989E0,-2.877369225E-1,-9.796515465E0,6.732804775E-1
5.069510114E0,-4.552344978E-1,-9.731908798E0,6.756733060E-1
5.079222354E0,-6.179464459E-1,-9.691230774E0,7.067800164E-1
5.088935479E0,-6.996015310E-1,-9.633803368E0,7.378866673E-1
5.098649385E0,-7.115656137E-1,-9.638588905E0,7.235297561E-1
5.108362406E0,-6.610172391E-1,-9.669695854E0,7.426723242E-1
5.118074698E0,-5.389832854E-1,-9.707980156E0,7.908278704E-1
5.127787875E0,-4.001995921E-1,-9.770194054E0,7.836494446E-1
5.137501729E0,-3.020938635E-1,-9.830014229E0,7.378866673E-1
5.147214750E0,-1.728814393E-1,-9.923335075E0,7.259225845E-1
5.156927093E0,-1.513460279E-1,-1.000947666E1,7.283154130E-1
5.166640218E0,-1.848455518E-1,-1.001665497E1,5.919244885E-1
5.176354073E0,-1.752742529E-1,-9.990333557E0,4.890331328E-1
5.186067198E0,-1.896311939E-1,-9.928120613E0,4.603192508E-1
5.195779437E0,-2.327020019E-1,-9.889835358E0,5.009972453E-1
5.205492562E0,-2.877369225E-1,-9.849157333E0,5.895316601E-1
5.215206468E0,-3.332005441E-1,-9.765408516E0,6.397809386E-1
5.224919489E0,-4.169493318E-1,-9.696016312E0,6.780661345E-1
5.234631781E0,-4.600201547E-1,-9.696016312E0,7.235297561E-1
5.244344958E0,-4.241278172E-1,-9.705587387E0,7.115656137E-1
5.254058812E0,-3.451646566E-1,-9.734301567E0,6.852445602E-1
5.263771833E0,-2.949153781E-1,-9.774979591E0,6.828517914E-1
5.273484177E0,-2.183450609E-1,-9.832406998E0,6.397809386E-1
5.283197302E0,-1.752742529E-1,-9.901799202E0,6.110670567E-1
5.292911156E0,-1.633101404E-1,-9.961619377E0,5.344967842E-1
5.302624281E0,-1.369891018E-1,-9.990333557E0,4.316053987E-1
5.312336520E0,-1.151545867E-1,-9.968798637E0,3.861417472E-1
5.322049645E0,-1.175474152E-1,-9.952048302E0,4.244269133E-1
5.331763552E0,-1.633101404E-1,-9.952048302E0,5.847460628E-1
5.341476573E0,-2.446661144E-1,-9.932906151E0,6.972087026E-1
5.351188864E0,-3.044866920E-1,-9.868299484E0,7.115656137E-1
5.360902041E0,-3.595215976E-1,-9.755837440E0,6.302096844E-1
5.370615895E0,-3.906283081E-1,-9.662516594E0,5.775675774E-1
5.380328916E0,-4.480560422E-1,-9.604789734E0,6.421737671E-1
5.390041260E0,-3.930211067E-1,-9.667302132E0,7.884350419E-1
5.399754385E0,-2.997010350E-1,-9.743872643E0,8.219345808E-1
5.409468291E0,-2.542374134E-1,-9.777372360E0,7.283154130E-1
5.419181312E0,-1.824527234E-1,-9.846764565E0,6.972087026E-1
5.428893604E0,-1.824527234E-1,-9.877870560E0,6.302096844E-1
5.438606729E0,-1.824527234E-1,-9.868299484E0,5.775675774E-1
5.448320635E0,-1.274178028E-1,-9.892228127E0,5.751747489E-1
5.458033656E0,-1.369891018E-1,-9.875477791E0,5.823532343E-1
5.467745948E0,-1.561316848E-1,-9.861121178E0,5.632106066E-1
5.477459125E0,-1.489532143E-1,-9.853942871E0,5.919244885E-1
5.487172979E0,-1.704886109E-1,-9.839586258E0,5.775675774E-1
5.496886104E0,-2.135594189E-1,-9.820443153E0,6.086742878E-1
5.506598343E0,-2.829512656E-1,-9.810872078E0,6.254240274E-1
5.516311468E0,-3.571287692E-1,-9.818050385E0,6.469594240E-1
5.526025375E0,-4.025924206E-1,-9.830014229E0,6.278168559E-1
5.535738395E0,-3.595215976E-1,-9.825228691E0,5.560321808E-1
5.545450687E0,-3.332005441E-1,-9.810872078E0,5.081757307E-1
5.555163864E0,-2.973082066E-1,-9.827621460E0,5.440680385E-1
5.564877718E0,-2.662015259E-1,-9.865906715E0,6.086742878E-1
5.574590739E0,-2.566302419E-1,-9.875477791E0,6.421737671E-1
5.584303083E0,-2.518445849E-1,-9.846764565E0,6.062814593E-1
5.594016208E0,-2.422732860E-1,-9.822835922E0,5.679962635E-1
5.603730114E0,-2.015953064E-1,-9.822835922E0,6.230311990E-1
5.613443135E0,-2.398804724E-1,-9.853942871E0,6.900302172E-1
5.623155427E0,-2.638086975E-1,-9.868299484E0,6.780661345E-1
5.632868552E0,-3.188436031E-1,-9.863513947E0,6.804589629E-1
5.642582458E0,-3.332005441E-1,-9.865906715E0,6.876373887E-1
5.652295479E0,-3.236292601E-1,-9.873085022E0,6.900302172E-1
5.662007823E0,-2.662015259E-1,-9.863513947E0,7.067800164E-1
5.671720948E0,-2.494517565E-1,-9.844371796E0,6.900302172E-1
5.681434802E0,-2.709871531E-1,-9.832406998E0,6.828517914E-1
5.691147927E0,-3.164508045E-1,-9.825228691E0,6.828517914E-1
5.700860166E0,-3.212364316E-1,-9.794121742E0,7.019943595E-1
5.710573291E0,-3.762713671E-1,-9.779765129E0,6.924230456E-1
5.720287198E0,-4.576273263E-1,-9.748658180E0,6.397809386E-1
5.730000218E0,-4.648058116E-1,-9.743872643E0,5.967101455E-1
5.739712510E0,-4.360919297E-1,-9.767801285E0,6.254240274E-1
5.749425687E0,-4.217349887E-1,-9.763015747E0,5.871388316E-1
5.759139541E0,-3.499503136E-1,-9.803693771E0,6.038886309E-1
5.768852666E0,-3.284149170E-1,-9.844371796E0,7.235297561E-1
5.778564906E0,-2.877369225E-1,-9.880263329E0,7.597211599E-1
5.788278031E0,-2.494517565E-1,-9.889835358E0,7.307082415E-1
5.797991937E0,-1.657029688E-1,-9.901799202E0,6.804589629E-1
5.807704958E0,-1.250249892E-1,-9.894620895E0,6.445665956E-1
5.817417250E0,-1.369891018E-1,-9.885049820E0,6.230311990E-1
5.827130427E0,-1.872383654E-1,-9.870692253E0,6.421737671E-1
5.836844281E0,-2.446661144E-1,-9.839586258E0,6.421737671E-1
5.846557302E0,-2.949153781E-1,-9.839586258E0,6.613163352E-1
5.856269645E0,-3.571287692E-1,-9.827621460E0,6.996015310E-1
5.865982770E0,-3.571287692E-1,-9.820443153E0,7.115656137E-1
5.875696625E0,-3.571287692E-1,-9.822835922E0,7.235297561E-1
5.885409750E0,-3.954139352E-1,-9.810872078E0,6.637091637E-1
5.895121989E0,-4.384847581E-1,-9.772586823E0,5.991029739E-1
5.904835114E0,-4.504488707E-1,-9.739087105E0,5.679962635E-1
5.914549020E0,-3.954139352E-1,-9.753444672E0,6.613163352E-1
5.924262041E0,-3.260220885E-1,-9.774979591E0,6.804589629E-1
5.933974385E0,-2.566302419E-1,-9.813264847E0,6.732804775E-1
5.943687510E0,-2.111666054E-1,-9.839586258E0,7.477570772E-1
5.953401364E0,-2.135594189E-1,-9.846764565E0,8.075776696E-1
5.963114489E0,-1.824527234E-1,-9.870692253E0,7.573283911E-1
5.972826729E0,-2.039881349E-1,-9.901799202E0,6.852445602E-1
5.982539854E0,-2.733799815E-1,-9.875477791E0,6.589235067E-1
5.992253760E0,-2.685943544E-1,-9.882657051E0,6.613163352E-1
6.001966781E0,-2.805584669E-1,-9.870692253E0,5.727819204E-1
6.011679073E0,-2.494517565E-1,-9.901799202E0,5.033900738E-1
6.021392250E0,-2.757728100E-1,-9.913763046E0,4.938187599E-1
6.031106104E0,-2.662015259E-1,-9.868299484E0,5.584250093E-1
6.040819125E0,-2.853440940E-1,-9.818050385E0,6.326025128E-1
6.050531468E0,-2.805584669E-1,-9.818050385E0,7.426723242E-1
6.060244593E0,-3.044866920E-1,-9.818050385E0,8.027920127E-1
6.069958448E0,-2.327020019E-1,-9.827621460E0,8.362914920E-1
6.079671573E0,-2.398804724E-1,-9.820443153E0,7.812566161E-1
6.089383812E0,-3.068794906E-1,-9.806086540E0,7.692924738E-1
6.099096937E0,-5.030909777E-1,-9.786943436E0,6.876373887E-1
6.108810843E0,-5.605186820E-1,-9.727123260E0,5.273182988E-1
6.118523864E0,-4.863412082E-1,-9.731908798E0,4.387838542E-1
6.128236156E0,-3.379862010E-1,-9.774979591E0,3.981058598E-1
6.137949333E0,-1.968096644E-1,-9.827621460E0,4.100699723E-1
6.147663187E0,-6.251249462E-2,-9.846764565E0,4.962115884E-1
6.157376312E0,2.602194622E-2,-9.870692253E0,5.823532343E-1
6.167088552E0,4.755735025E-2,-9.940084457E0,7.908278704E-1
6.176801677E0,-7.208377868E-2,-9.985548019E0,8.506484628E-1
6.186515531E0,-2.063809484E-1,-9.899406433E0,6.972087026E-1
6.196228656E0,-2.614158690E-1,-9.803693771E0,5.440680385E-1
6.205940895E0,-2.949153781E-1,-9.763015747E0,5.009972453E-1
6.215654020E0,-2.877369225E-1,-9.782157898E0,5.009972453E-1
6.225367927E0,-2.757728100E-1,-9.791728973E0,5.751747489E-1
6.235080948E0,-2.303091735E-1,-9.827621460E0,6.996015310E-1
6.244793239E0,-2.279163599E-1,-9.849157333E0,7.283154130E-1
6.254506416E0,-2.470589429E-1,-9.853942871E0,6.493522525E-1
6.264220270E0,-2.614158690E-1,-9.815657616E0,5.919244885E-1
6.273933291E0,-2.662015259E-1,-9.782157898E0,4.962115884E-1
6.283645635E0,-2.638086975E-1,-9.755837440E0,4.938187599E-1
6.293358760E0,-2.757728100E-1,-9.748658180E0,5.919244885E-1
6.303072614E0,-2.877369225E-1,-9.798908234E0,7.067800164E-1
6.312785739E0,-3.044866920E-1,-9.822835922E0,7.549355626E-1
6.322497979E0,-3.116651475E-1,-9.865906715E0,8.219345808E-1
6.332211104E0,-2.901297510E-1,-9.913763046E0,7.740781307E-1
6.341925010E0,-2.901297510E-1,-9.897013664E0,6.445665956E-1
6.351638031E0,-3.284149170E-1,-9.887442589E0,5.943173170E-1
6.361350323E0,-3.714857101E-1,-9.846764565E0,6.086742878E-1
6.371063500E0,-3.882354796E-1,-9.803693771E0,5.991029739E-1
6.380777354E0,-3.619144261E-1,-9.763015747E0,5.991029739E-1
6.390490375E0,-3.284149170E-1,-9.772586823E0,6.756733060E-1
6.400202666E0,-3.212364316E-1,-9.770194054E0,7.115656137E-1
6.409915843E0,-3.044866920E-1,-9.777372360E0,7.139584422E-1
6.419629698E0,-2.638086975E-1,-9.798908234E0,6.780661345E-1
6.429342718E0,-2.470589429E-1,-9.820443153E0,6.684948206E-1
6.439055062E0,-2.614158690E-1,-9.832406998E0,6.134598851E-1
6.448768187E0,-2.685943544E-1,-9.837192535E0,5.895316601E-1
6.458482093E0,-2.470589429E-1,-9.889835358E0,5.608177781E-1
6.468195114E0,-2.207378894E-1,-9.911370277E0,5.129613280E-1
6.477907406E0,-2.039881349E-1,-9.904191971E0,5.656034350E-1
6.487620531E0,-2.015953064E-1,-9.930513382E0,6.326025128E-1
6.497334437E0,-2.183450609E-1,-9.944869995E0,6.924230456E-1
6.507047458E0,-2.398804724E-1,-9.870692253E0,6.062814593E-1
6.516759750E0,-3.020938635E-1,-9.765408516E0,5.751747489E-1
6.526472875E0,-3.595215976E-1,-9.705587387E0,6.110670567E-1
6.536186781E0,-3.762713671E-1,-9.727123260E0,6.661019921E-1
6.545899802E0,-3.523431420E-1,-9.777372360E0,6.972087026E-1
6.555612145E0,-2.207378894E-1,-9.832406998E0,6.780661345E-1
6.565325270E0,-1.322034448E-1,-9.873085022E0,5.919244885E-1
6.575039125E0,-1.369891018E-1,-9.894620895E0,5.416752100E-1
6.584752145E0,-1.704886109E-1,-9.923335075E0,5.727819204E-1
6.594464489E0,-2.135594189E-1,-9.904191971E0,5.464608669E-1
6.604177614E0,-2.805584669E-1,-9.834799767E0,5.632106066E-1
6.613891468E0,-3.212364316E-1,-9.794121742E0,5.967101455E-1
6.623604593E0,-3.236292601E-1,-9.782157898E0,6.589235067E-1
6.633316833E0,-3.738785386E-1,-9.786943436E0,7.716853023E-1
6.643029958E0,-3.547359705E-1,-9.834799767E0,8.243274093E-1
6.652743864E0,-3.140579760E-1,-9.834799767E0,7.692924738E-1
6.662456885E0,-3.140579760E-1,-9.808479309E0,7.259225845E-1
6.672169177E0,-3.523431420E-1,-9.851550102E0,7.259225845E-1
6.681882302E0,-3.882354796E-1,-9.846764565E0,6.780661345E-1
6.691596208E0,-3.571287692E-1,-9.818050385E0,5.584250093E-1
6.701309229E0,-3.427718580E-1,-9.827621460E0,5.129613280E-1
6.711021520E0,-3.188436031E-1,-9.849157333E0,5.177469850E-1
6.720734698E0,-2.662015259E-1,-9.844371796E0,5.368895531E-1
6.730448552E0,-2.183450609E-1,-9.822835922E0,6.206383705E-1
6.740161573E0,-1.704886109E-1,-9.815657616E0,6.541379094E-1
6.749873864E0,-1.223330572E-1,-9.825228691E0,7.354938388E-1
6.759587041E0,-1.561316848E-1,-9.818050385E0,7.091727853E-1
6.769300895E0,-1.824527234E-1,-9.837192535E0,6.541379094E-1
6.779013916E0,-2.135594189E-1,-9.830014229E0,6.278168559E-1
6.788726260E0,-2.446661144E-1,-9.849157333E0,6.278168559E-1
6.798439385E0,-2.973082066E-1,-9.834799767E0,6.708876491E-1
6.808153239E0,-3.762713671E-1,-9.820443153E0,7.043871880E-1
6.817866260E0,-4.025924206E-1,-9.786943436E0,6.708876491E-1
6.827578604E0,-3.547359705E-1,-9.760622978E0,6.206383705E-1
6.837291729E0,-3.236292601E-1,-9.767801285E0,6.421737671E-1
6.847005583E0,-3.212364316E-1,-9.791728973E0,6.517450809E-1
6.856718708E0,-3.140579760E-1,-9.803693771E0,6.565307379E-1
6.866430948E0,-3.188436031E-1,-9.849157333E0,6.996015310E-1
6.876144073E0,-2.757728100E-1,-9.873085022E0,7.402794957E-1
6.885857927E0,-2.590230405E-1,-9.858728409E0,6.302096844E-1
6.895571052E0,-2.087737769E-1,-9.868299484E0,5.727819204E-1
6.905283291E0,-2.159522474E-1,-9.899406433E0,5.871388316E-1
6.914996416E0,-2.973082066E-1,-9.877870560E0,5.368895531E-1
6.924710323E0,-3.140579760E-1,-9.853942871E0,5.751747489E-1
6.934423343E0,-2.997010350E-1,-9.839586258E0,6.206383705E-1
6.944135635E0,-2.949153781E-1,-9.832406998E0,6.708876491E-1
6.953848760E0,-2.853440940E-1,-9.820443153E0,6.852445602E-1
6.963562666E0,-2.925225794E-1,-9.815657616E0,6.972087026E-1
6.973275687E0,-2.829512656E-1,-9.813264847E0,7.163512707E-1
6.982987979E0,-2.685943544E-1,-9.798908234E0,7.187440991E-1
6.992701104E0,-2.901297510E-1,-9.803693771E0,7.019943595E-1
7.002415010E0,-2.853440940E-1,-9.806086540E0,6.756733060E-1
7.012128031E0,-2.901297510E-1,-9.815657616E0,7.067800164E-1
7.021840323E0,-2.494517565E-1,-9.810872078E0,6.708876491E-1
7.031553448E0,-2.207378894E-1,-9.820443153E0,6.924230456E-1
7.041267354E0,-2.183450609E-1,-9.830014229E0,6.661019921E-1
7.050980375E0,-2.039881349E-1,-9.822835922E0,6.134598851E-1
7.060692666E0,-2.997010350E-1,-9.834799767E0,6.445665956E-1
7.070405791E0,-3.188436031E-1,-9.858728409E0,6.589235067E-1
7.080119698E0,-2.877369225E-1,-9.880263329E0,6.421737671E-1
7.089832718E0,-2.518445849E-1,-9.868299484E0,6.302096844E-1
7.099545010E0,-2.350948304E-1,-9.870692253E0,6.373881102E-1
7.109258135E0,-2.422732860E-1,-9.887442589E0,6.158527136E-1
7.118972041E0,-2.255235314E-1,-9.873085022E0,5.751747489E-1
7.128685062E0,-2.422732860E-1,-9.830014229E0,5.632106066E-1
7.138397354E0,-2.350948304E-1,-9.839586258E0,6.397809386E-1
7.148110479E0,-2.422732860E-1,-9.858728409E0,6.852445602E-1
7.157824385E0,-2.231307179E-1,-9.820443153E0,6.637091637E-1
7.167537406E0,-2.518445849E-1,-9.763015747E0,6.230311990E-1
7.177249698E0,-3.260220885E-1,-9.715159416E0,6.302096844E-1
7.186962823E0,-3.475574851E-1,-9.717552185E0,6.541379094E-1
7.196676729E0,-3.212364316E-1,-9.763015747E0,6.996015310E-1
7.206389750E0,-2.829512656E-1,-9.808479309E0,7.450651526E-1
7.216102041E0,-2.159522474E-1,-9.868299484E0,7.354938388E-1
7.225815166E0,-1.657029688E-1,-9.918548584E0,7.115656137E-1
7.235529073E0,-2.542374134E-1,-9.918548584E0,7.043871880E-1
7.245242093E0,-2.997010350E-1,-9.889835358E0,6.397809386E-1
7.254954385E0,-3.116651475E-1,-9.846764565E0,5.608177781E-1
7.264667510E0,-3.379862010E-1,-9.818050385E0,5.177469850E-1
7.274381416E0,-3.355933726E-1,-9.820443153E0,4.794618487E-1
7.284094437E0,-3.044866920E-1,-9.813264847E0,4.890331328E-1
7.293806729E0,-3.499503136E-1,-9.772586823E0,5.392823815E-1
7.303519854E0,-3.140579760E-1,-9.774979591E0,6.756733060E-1
7.313233760E0,-2.398804724E-1,-9.808479309E0,7.573283911E-1
7.322946781E0,-1.657029688E-1,-9.825228691E0,7.980063558E-1
7.332659073E0,-1.175474152E-1,-9.837192535E0,8.315058947E-1
7.342372198E0,-1.633101404E-1,-9.868299484E0,8.554341197E-1
7.352086104E0,-2.327020019E-1,-9.887442589E0,8.338986635E-1
7.361799125E0,-3.547359705E-1,-9.853942871E0,7.549355626E-1
7.371511416E0,-4.456632137E-1,-9.827621460E0,5.751747489E-1
7.381224541E0,-4.432703853E-1,-9.834799767E0,4.818546474E-1
7.390938395E0,-4.695914388E-1,-9.858728409E0,5.416752100E-1
7.400651520E0,-4.384847581E-1,-9.901799202E0,5.632106066E-1
7.410363760E0,-2.877369225E-1,-9.920941353E0,5.368895531E-1
7.420076885E0,-2.015953064E-1,-9.928120613E0,5.488536954E-1
7.429790739E0,-1.920240223E-1,-9.932906151E0,5.919244885E-1
7.439503864E0,-2.015953064E-1,-9.916155815E0,6.469594240E-1
7.449216104E0,-2.183450609E-1,-9.861121178E0,6.756733060E-1
7.458929229E0,-2.255235314E-1,-9.815657616E0,6.900302172E-1
7.468643083E0,-2.614158690E-1,-9.767801285E0,6.708876491E-1
7.478356104E0,-3.571287692E-1,-9.758230209E0,6.517450809E-1
7.488068395E0,-4.576273263E-1,-9.753444672E0,6.086742878E-1
7.497781573E0,-4.289134443E-1,-9.741479874E0,6.110670567E-1
7.507495427E0,-4.265206456E-1,-9.746265411E0,6.637091637E-1
7.517208448E0,-3.475574851E-1,-9.763015747E0,7.549355626E-1
7.526920739E0,-3.236292601E-1,-9.794121742E0,8.003991842E-1
7.536633864E0,-3.212364316E-1,-9.770194054E0,7.692924738E-1
7.546347770E0,-2.877369225E-1,-9.767801285E0,7.283154130E-1
7.556060791E0,-2.350948304E-1,-9.798908234E0,7.163512707E-1
7.565773083E0,-1.776670814E-1,-9.846764565E0,6.900302172E-1
7.575486208E0,-6.490531564E-2,-9.887442589E0,6.876373887E-1
7.585200114E0,-1.944168471E-2,-9.904191971E0,6.708876491E-1
7.594913135E0,-1.704886183E-2,-9.899406433E0,6.708876491E-1
7.604625427E0,-1.872383654E-1,-9.897013664E0,7.115656137E-1
7.614338552E0,-2.781656384E-1,-9.901799202E0,7.450651526E-1
7.624052406E0,-3.714857101E-1,-9.846764565E0,6.589235067E-1
7.633765531E0,-4.815555513E-1,-9.777372360E0,5.488536954E-1
7.643477770E0,-4.791627228E-1,-9.729516029E0,5.464608669E-1
7.653190895E0,-4.217349887E-1,-9.724730492E0,5.584250093E-1
7.662904750E0,-3.499503136E-1,-9.739087105E0,6.110670567E-1
7.672617875E0,-2.997010350E-1,-9.770194054E0,7.067800164E-1
7.682330114E0,-2.757728100E-1,-9.791728973E0,8.841479421E-1
7.692043239E0,-1.968096644E-1,-9.882657051E0,9.104689956E-1
7.701757093E0,-1.465603858E-1,-9.897013664E0,7.764709592E-1
7.711470114E0,9.272187948E-3,-9.897013664E0,6.780661345E-1
7.721182406E0,4.516452923E-2,-9.853942871E0,6.326025128E-1
7.730895531E0,-8.883354068E-2,-9.820443153E0,6.206383705E-1
7.740609437E0,-2.446661144E-1,-9.810872078E0,6.110670567E-1
7.750322458E0,-2.973082066E-1,-9.818050385E0,6.062814593E-1
7.760034750E0,-3.403790295E-1,-9.822835922E0,5.871388316E-1
7.769747875E0,-3.762713671E-1,-9.825228691E0,6.278168559E-1
7.779461729E0,-3.451646566E-1,-9.822835922E0,6.230311990E-1
7.789174854E0,-3.308077157E-1,-9.813264847E0,6.014958024E-1
7.798887093E0,-2.494517565E-1,-9.853942871E0,5.703890920E-1
7.808600218E0,-2.039881349E-1,-9.877870560E0,6.014958024E-1
7.818314073E0,-1.151545867E-1,-9.906584740E0,5.967101455E-1
7.828027093E0,-7.686942816E-2,-9.920941353E0,5.799604058E-1
7.837739385E0,-6.729813665E-2,-9.894620895E0,6.014958024E-1
7.847452510E0,-1.079761237E-1,-9.841979027E0,6.134598851E-1
7.857166416E0,-1.537388563E-1,-9.822835922E0,6.708876491E-1
7.866879437E0,-2.279163599E-1,-9.808479309E0,7.716853023E-1
7.876591729E0,-2.470589429E-1,-9.789336205E0,7.549355626E-1
7.886304854E0,-2.829512656E-1,-9.770194054E0,7.283154130E-1
7.896018708E0,-3.020938635E-1,-9.774979591E0,6.996015310E-1
7.905731833E0,-3.140579760E-1,-9.786943436E0,7.091727853E-1
7.915444073E0,-2.973082066E-1,-9.803693771E0,6.565307379E-1
7.925157198E0,-2.829512656E-1,-9.822835922E0,6.684948206E-1
7.934871052E0,-3.020938635E-1,-9.853942871E0,7.019943595E-1
7.944584073E0,-2.542374134E-1,-9.868299484E0,6.900302172E-1
7.954296364E0,-2.159522474E-1,-9.897013664E0,7.139584422E-1
7.964009489E0,-2.398804724E-1,-9.892228127E0,7.426723242E-1
7.973723395E0,-3.427718580E-1,-9.858728409E0,7.307082415E-1
7.983436416E0,-3.188436031E-1,-9.863513947E0,7.043871880E-1
7.993148708E0,-3.044866920E-1,-9.825228691E0,6.302096844E-1
8.002861833E0,-2.398804724E-1,-9.791728973E0,5.751747489E-1
8.012575687E0,-2.255235314E-1,-9.774979591E0,6.086742878E-1
8.022288708E0,-2.422732860E-1,-9.789336205E0,6.852445602E-1
8.032001000E0,-2.303091735E-1,-9.784550667E0,7.307082415E-1
8.041714125E0,-2.327020019E-1,-9.794121742E0,7.525427341E-1
8.051428031E0,-2.638086975E-1,-9.798908234E0,7.573283911E-1
8.061141052E0,-2.829512656E-1,-9.798908234E0,7.549355626E-1
8.070853343E0,-3.212364316E-1,-9.794121742E0,7.043871880E-1
8.080566468E0,-3.595215976E-1,-9.794121742E0,6.661019921E-1
8.090280323E0,-2.949153781E-1,-9.837192535E0,6.804589629E-1
8.099993448E0,-1.872383654E-1,-9.880263329E0,6.876373887E-1
8.109705635E0,-1.031904742E-1,-9.916155815E0,6.326025128E-1
8.119418812E0,-1.298106313E-1,-9.889835358E0,6.421737671E-1
8.129132666E0,-1.872383654E-1,-9.851550102E0,6.780661345E-1
8.138845687E0,-2.566302419E-1,-9.784550667E0,6.565307379E-1
8.148557979E0,-3.475574851E-1,-9.751050949E0,6.469594240E-1
8.158271104E0,-3.906283081E-1,-9.753444672E0,6.852445602E-1
8.167985010E0,-3.762713671E-1,-9.786943436E0,7.740781307E-1
8.177698031E0,-3.762713671E-1,-9.834799767E0,8.051848412E-1
8.187410323E0,-3.260220885E-1,-9.858728409E0,8.003991842E-1
8.197123448E0,-3.355933726E-1,-9.841979027E0,7.307082415E-1
8.206837302E0,-3.044866920E-1,-9.865906715E0,6.708876491E-1
8.216550323E0,-2.853440940E-1,-9.885049820E0,6.230311990E-1
8.226262614E0,-3.092723191E-1,-9.880263329E0,5.895316601E-1
8.235975739E0,-3.068794906E-1,-9.863513947E0,5.895316601E-1
8.245689645E0,-2.518445849E-1,-9.830014229E0,6.182455420E-1
8.255402666E0,-2.087737769E-1,-9.832406998E0,6.637091637E-1
8.265114958E0,-2.111666054E-1,-9.822835922E0,6.804589629E-1
8.274828083E0,-2.327020019E-1,-9.834799767E0,6.972087026E-1
8.284541937E0,-3.092723191E-1,-9.837192535E0,7.139584422E-1
8.294254958E0,-3.667000830E-1,-9.810872078E0,6.780661345E-1
8.303967250E0,-4.025924206E-1,-9.777372360E0,6.708876491E-1
8.313680375E0,-3.762713671E-1,-9.784550667E0,6.732804775E-1
8.323394281E0,-3.212364316E-1,-9.813264847E0,6.302096844E-1
8.333107302E0,-2.350948304E-1,-9.841979027E0,5.775675774E-1
8.342819593E0,-1.704886109E-1,-9.861121178E0,5.799604058E-1
8.352532718E0,-5.294119939E-2,-9.870692253E0,6.230311990E-1
8.362246573E0,-1.151545867E-1,-9.901799202E0,6.756733060E-1
8.371959698E0,-1.920240223E-1,-9.920941353E0,6.589235067E-1
8.381671937E0,-2.614158690E-1,-9.868299484E0,6.397809386E-1
8.391385062E0,-3.164508045E-1,-9.820443153E0,6.254240274E-1
8.401098916E0,-3.355933726E-1,-9.796515465E0,6.206383705E-1
8.410811937E0,-3.738785386E-1,-9.784550667E0,6.613163352E-1
8.420524229E0,-3.260220885E-1,-9.813264847E0,7.477570772E-1
8.430237354E0,-3.092723191E-1,-9.832406998E0,7.884350419E-1
8.439951260E0,-3.403790295E-1,-9.825228691E0,7.692924738E-1
8.449664281E0,-3.068794906E-1,-9.822835922E0,7.354938388E-1
8.459376573E0,-3.738785386E-1,-9.808479309E0,6.637091637E-1
8.469089698E0,-3.571287692E-1,-9.851550102E0,5.919244885E-1
8.478803604E0,-2.925225794E-1,-9.846764565E0,6.373881102E-1
8.488516625E0,-2.015953064E-1,-9.822835922E0,6.708876491E-1
8.498228916E0,-1.824527234E-1,-9.782157898E0,6.876373887E-1
8.507942041E0,-1.417747438E-1,-9.736694336E0,7.019943595E-1
8.517655895E0,-7.686942816E-2,-9.734301567E0,7.549355626E-1
8.527368916E0,-2.015953064E-1,-9.724730492E0,7.621139884E-1
8.537081260E0,-3.260220885E-1,-9.724730492E0,7.163512707E-1
8.546794385E0,-3.882354796E-1,-9.813264847E0,7.501499057E-1
8.556508239E0,-5.006981492E-1,-9.870692253E0,7.668996453E-1
8.566221260E0,-4.983053207E-1,-9.904191971E0,6.134598851E-1
8.575933552E0,-4.193421602E-1,-9.913763046E0,4.674977362E-1
8.585646677E0,-2.446661144E-1,-9.930513382E0,4.004986882E-1
8.595360583E0,-1.298106313E-1,-9.966405869E0,4.627120793E-1
8.605073604E0,-9.122636169E-2,-9.961619377E0,5.273182988E-1
8.614785895E0,-7.208377868E-2,-9.930513382E0,6.541379094E-1
8.624499020E0,-1.079761237E-1,-9.853942871E0,7.764709592E-1
8.634212927E0,-1.896311939E-1,-9.813264847E0,7.525427341E-1
8.643925948E0,-2.638086975E-1,-9.755837440E0,6.948158741E-1
8.653638239E0,-3.236292601E-1,-9.727123260E0,6.278168559E-1
8.663351364E0,-3.379862010E-1,-9.753444672E0,6.158527136E-1
8.673065270E0,-3.714857101E-1,-9.777372360E0,5.895316601E-1
8.682778291E0,-3.810569942E-1,-9.765408516E0,6.373881102E-1
8.692490583E0,-3.068794906E-1,-9.798908234E0,7.331010103E-1
8.702203708E0,-2.997010350E-1,-9.777372360E0,6.086742878E-1
8.711917562E0,-2.685943544E-1,-9.772586823E0,6.541379094E-1
8.721630687E0,-2.255235314E-1,-9.746265411E0,6.182455420E-1
8.731342927E0,-1.417747438E-1,-9.789336205E0,7.043871880E-1
8.741056052E0,-1.199402362E-1,-9.853942871E0,7.402794957E-1
8.750769958E0,-7.447660714E-2,-9.918548584E0,7.091727853E-1
8.760482979E0,-8.404789865E-2,-9.920941353E0,6.445665956E-1
8.770195270E0,-1.223330572E-1,-9.937691689E0,5.632106066E-1
8.779908395E0,-1.896311939E-1,-9.935298920E0,6.373881102E-1
8.789622302E0,-2.662015259E-1,-9.913763046E0,6.038886309E-1
8.799335323E0,-3.188436031E-1,-9.923335075E0,6.756733060E-1
8.809047614E0,-3.379862010E-1,-9.897013664E0,6.254240274E-1
8.818760739E0,-3.451646566E-1,-9.849157333E0,6.182455420E-1
8.828474645E0,-3.643072546E-1,-9.822835922E0,5.991029739E-1
8.838187666E0,-4.217349887E-1,-9.789336205E0,5.871388316E-1
8.847899958E0,-4.145565331E-1,-9.782157898E0,6.397809386E-1
8.857613083E0,-4.001995921E-1,-9.789336205E0,6.900302172E-1
8.867326989E0,-3.451646566E-1,-9.798908234E0,6.996015310E-1
8.877040010E0,-2.638086975E-1,-9.832406998E0,7.307082415E-1
8.886752302E0,-1.920240223E-1,-9.844371796E0,7.211369276E-1
8.896465479E0,-1.848455518E-1,-9.846764565E0,6.876373887E-1
8.906179333E0,-1.992024779E-1,-9.834799767E0,6.278168559E-1
8.915892354E0,-2.398804724E-1,-9.825228691E0,5.656034350E-1
8.925604645E0,-3.284149170E-1,-9.743872643E0,5.368895531E-1
8.935317823E0,-3.140579760E-1,-9.734301567E0,5.416752100E-1
8.945031677E0,-3.188436031E-1,-9.758230209E0,5.679962635E-1
8.954744802E0,-2.757728100E-1,-9.806086540E0,6.804589629E-1
8.964457041E0,-2.398804724E-1,-9.841979027E0,7.573283911E-1
8.974170166E0,-1.824527234E-1,-9.865906715E0,7.307082415E-1
8.983884073E0,-1.127617657E-1,-9.865906715E0,6.804589629E-1
8.993597093E0,-9.601201117E-2,-9.882657051E0,6.278168559E-1
9.003309385E0,-1.489532143E-1,-9.899406433E0,6.230311990E-1
9.013022510E0,-1.992024779E-1,-9.930513382E0,5.919244885E-1
9.022736416E0,-2.685943544E-1,-9.911370277E0,5.608177781E-1
9.032449437E0,-2.901297510E-1,-9.856335640E0,5.727819204E-1
9.042161781E0,-3.499503136E-1,-9.794121742E0,5.679962635E-1
9.051874906E0,-4.169493318E-1,-9.770194054E0,6.014958024E-1
9.061588760E0,-4.815555513E-1,-9.751050949E0,6.445665956E-1
9.071301885E0,-4.935196638E-1,-9.774979591E0,6.565307379E-1
9.081014125E0,-3.954139352E-1,-9.808479309E0,6.206383705E-1
9.090727250E0,-2.997010350E-1,-9.858728409E0,5.919244885E-1
9.100441156E0,-2.207378894E-1,-9.870692253E0,5.536393523E-1
9.110154177E0,-1.585244983E-1,-9.892228127E0,5.871388316E-1
9.119866468E0,-1.055833027E-1,-9.899406433E0,5.991029739E-1
9.129579645E0,-1.199402362E-1,-9.885049820E0,5.967101455E-1
9.139293500E0,-1.489532143E-1,-9.858728409E0,5.847460628E-1
9.149006625E0,-1.680957973E-1,-9.839586258E0,6.110670567E-1
9.158718864E0,-2.446661144E-1,-9.830014229E0,6.876373887E-1
9.168432041E0,-3.571287692E-1,-9.789336205E0,7.211369276E-1
9.178145895E0,-4.432703853E-1,-9.741479874E0,6.780661345E-1
9.187859020E0,-4.313062727E-1,-9.746265411E0,6.708876491E-1
9.197571260E0,-3.786641955E-1,-9.767801285E0,6.254240274E-1
9.207284385E0,-2.757728100E-1,-9.808479309E0,6.302096844E-1
9.216998291E0,-1.848455518E-1,-9.832406998E0,6.732804775E-1
9.226711312E0,-1.657029688E-1,-9.897013664E0,6.948158741E-1
9.236423604E0,-1.489532143E-1,-9.918548584E0,6.661019921E-1
9.246136781E0,-1.944168359E-1,-9.911370277E0,5.775675774E-1
9.255850635E0,-2.805584669E-1,-9.882657051E0,5.201398134E-1
9.265563760E0,-3.523431420E-1,-9.868299484E0,5.129613280E-1
9.275276000E0,-3.667000830E-1,-9.834799767E0,4.363910258E-1
9.284989177E0,-3.427718580E-1,-9.798908234E0,4.698905349E-1
9.294703031E0,-3.475574851E-1,-9.767801285E0,5.679962635E-1
9.304416156E0,-4.073780477E-1,-9.753444672E0,6.900302172E-1
9.314128395E0,-4.935196638E-1,-9.767801285E0,7.932206988E-1
9.323841573E0,-5.030909777E-1,-9.763015747E0,8.195417523E-1
9.333555427E0,-4.456632137E-1,-9.758230209E0,7.956135273E-1
9.343268552E0,-4.169493318E-1,-9.753444672E0,7.211369276E-1
9.352980791E0,-3.092723191E-1,-9.808479309E0,7.043871880E-1
9.362693916E0,-1.298106313E-1,-9.868299484E0,7.426723242E-1
9.372407823E0,-1.274178028E-1,-9.887442589E0,6.110670567E-1
9.382120948E0,-1.298106313E-1,-9.875477791E0,5.009972453E-1
9.391833187E0,-1.752742529E-1,-9.880263329E0,4.627120793E-1
9.401546312E0,-2.374876440E-1,-9.873085022E0,4.411766827E-1
9.411260218E0,-2.422732860E-1,-9.882657051E0,4.339981973E-1
9.420973343E0,-2.279163599E-1,-9.875477791E0,4.603192508E-1
9.430685583E0,-2.183450609E-1,-9.873085022E0,5.512465239E-1
9.440398760E0,-2.183450609E-1,-9.863513947E0,6.421737671E-1
9.450112614E0,-2.470589429E-1,-9.853942871E0,6.110670567E-1
9.459825739E0,-3.092723191E-1,-9.820443153E0,5.727819204E-1
9.469537979E0,-3.284149170E-1,-9.798908234E0,5.991029739E-1
9.479251156E0,-2.685943544E-1,-9.813264847E0,5.847460628E-1
9.488965010E0,-2.327020019E-1,-9.849157333E0,5.632106066E-1
9.498678135E0,-2.111666054E-1,-9.892228127E0,5.775675774E-1
9.508390375E0,-2.279163599E-1,-9.868299484E0,5.344967842E-1
9.518103552E0,-2.374876440E-1,-9.844371796E0,4.914259613E-1
9.527817458E0,-2.685943544E-1,-9.851550102E0,4.986044168E-1
9.537530479E0,-2.303091735E-1,-9.873085022E0,5.368895531E-1
9.547242770E0,-1.417747438E-1,-9.889835358E0,5.608177781E-1
9.556955948E0,-1.322034448E-1,-9.858728409E0,6.134598851E-1
9.566669854E0,-1.896311939E-1,-9.806086540E0,6.565307379E-1
9.576382875E0,-3.068794906E-1,-9.743872643E0,6.876373887E-1
9.586095218E0,-4.121637046E-1,-9.686445236E0,6.996015310E-1
9.595808343E0,-4.456632137E-1,-9.662516594E0,6.972087026E-1
9.605522250E0,-4.528416991E-1,-9.684052467E0,7.019943595E-1
9.615235375E0,-3.523431420E-1,-9.743872643E0,7.139584422E-1
9.624947614E0,-2.662015259E-1,-9.839586258E0,7.187440991E-1
9.634660791E0,-2.374876440E-1,-9.942477226E0,6.661019921E-1
9.644374645E0,-2.231307179E-1,-9.952048302E0,5.991029739E-1
9.654087770E0,-2.063809484E-1,-9.944869995E0,5.488536954E-1
9.663800010E0,-1.872383654E-1,-9.952048302E0,5.799604058E-1
9.673513187E0,-1.585244983E-1,-9.932906151E0,6.397809386E-1
9.683227093E0,-1.776670814E-1,-9.897013664E0,7.163512707E-1
9.692940114E0,-1.465603858E-1,-9.844371796E0,7.426723242E-1
9.702652458E0,-1.776670814E-1,-9.772586823E0,7.331010103E-1
9.712365583E0,-2.973082066E-1,-9.696016312E0,7.307082415E-1
9.722079489E0,-4.145565331E-1,-9.616754532E0,7.692924738E-1
9.731792614E0,-4.456632137E-1,-9.636196136E0,7.668996453E-1
9.741504854E0,-4.121637046E-1,-9.696016312E0,7.501499057E-1
9.751218031E0,-2.853440940E-1,-9.796515465E0,7.501499057E-1
9.760931885E0,-1.776670814E-1,-9.877870560E0,6.828517914E-1
9.770645010E0,-1.250249892E-1,-9.952048302E0,6.278168559E-1
9.780357302E0,-8.883354068E-2,-1.000469017E1,5.823532343E-1
9.790070427E0,-1.055833027E-1,-9.999904633E0,5.823532343E-1
9.799784333E0,-1.537388563E-1,-9.971191406E0,5.847460628E-1
9.809497458E0,-2.183450609E-1,-9.911370277E0,5.584250093E-1
9.819209698E0,-2.638086975E-1,-9.822835922E0,5.321039557E-1
9.828922875E0,-3.284149170E-1,-9.786943436E0,5.751747489E-1
9.838636729E0,-3.858426511E-1,-9.767801285E0,5.991029739E-1
9.848349854E0,-3.571287692E-1,-9.753444672E0,6.326025128E-1
9.858062145E0,-3.068794906E-1,-9.753444672E0,6.756733060E-1
9.867775270E0,-2.350948304E-1,-9.794121742E0,7.163512707E-1
9.877489177E0,-2.446661144E-1,-9.786943436E0,6.852445602E-1
9.887202198E0,-2.877369225E-1,-9.779765129E0,7.019943595E-1
9.896914541E0,-2.733799815E-1,-9.832406998E0,7.716853023E-1
9.906627718E0,-3.092723191E-1,-9.856335640E0,7.549355626E-1
9.916341573E0,-2.566302419E-1,-9.861121178E0,6.565307379E-1
9.926054698E0,-1.752742529E-1,-9.870692253E0,5.775675774E-1
9.935766989E0,-1.369891018E-1,-9.889835358E0,5.679962635E-1
9.945480114E0,-1.968096644E-1,-9.901799202E0,5.991029739E-1
9.955194020E0,-2.877369225E-1,-9.906584740E0,6.110670567E-1
9.964907145E0,-3.355933726E-1,-9.897013664E0,6.038886309E-1
9.974619385E0,-3.355933726E-1,-9.887442589E0,5.464608669E-1
9.984332562E0,-3.786641955E-1,-9.827621460E0,5.057829022E-1
9.994046468E0,-3.882354796E-1,-9.803693771E0,5.536393523E-1
1.000375949E1,-3.355933726E-1,-9.806086540E0,5.991029739E-1
1.001347183E1,-3.284149170E-1,-9.782157898E0,6.326025128E-1
1.002318496E1,-3.379862010E-1,-9.770194054E0,6.972087026E-1
1.003289886E1,-3.188436031E-1,-9.763015747E0,7.378866673E-1
1.004261199E1,-3.116651475E-1,-9.808479309E0,7.426723242E-1
1.005232423E1,-3.332005441E-1,-9.827621460E0,7.139584422E-1
1.006203741E1,-3.044866920E-1,-9.822835922E0,5.799604058E-1
1.007175131E1,-2.662015259E-1,-9.837192535E0,5.201398134E-1
1.008146433E1,-2.470589429E-1,-9.858728409E0,5.440680385E-1
1.009117668E1,-2.303091735E-1,-9.877870560E0,6.230311990E-1
1.010088985E1,-2.183450609E-1,-9.897013664E0,6.517450809E-1
1.011060371E1,-2.303091735E-1,-9.892228127E0,6.780661345E-1
1.012031683E1,-2.949153781E-1,-9.849157333E0,6.421737671E-1
1.013002912E1,-3.284149170E-1,-9.818050385E0,6.349952817E-1
1.013974225E1,-3.475574851E-1,-9.763015747E0,6.254240274E-1
1.014945616E1,-4.313062727E-1,-9.746265411E0,6.230311990E-1
1.015916928E1,-4.576273263E-1,-9.722337723E0,5.871388316E-1
1.016888152E1,-3.906283081E-1,-9.763015747E0,5.488536954E-1
1.017859470E1,-2.733799815E-1,-9.806086540E0,5.416752100E-1
1.018830860E1,-1.417747438E-1,-9.841979027E0,5.273182988E-1
1.019802162E1,-3.858426586E-2,-9.853942871E0,5.823532343E-1
1.020773397E1,-2.691925503E-3,-9.863513947E0,6.469594240E-1
1.021744715E1,4.486542661E-3,-9.892228127E0,7.235297561E-1
1.022716100E1,-8.165507019E-2,-9.892228127E0,7.956135273E-1
1.023687412E1,-1.872383654E-1,-9.832406998E0,7.956135273E-1
1.024658636E1,-2.829512656E-1,-9.841979027E0,6.852445602E-1
1.025629954E1,-4.001995921E-1,-9.832406998E0,6.373881102E-1
1.026601345E1,-4.001995921E-1,-9.827621460E0,5.679962635E-1
1.027572657E1,-3.236292601E-1,-9.834799767E0,5.871388316E-1
1.028543881E1,-2.470589429E-1,-9.920941353E0,5.967101455E-1
1.029515199E1,-1.345962733E-1,-9.975976944E0,6.302096844E-1
1.030486590E1,-6.011966988E-2,-9.985548019E0,6.158527136E-1
1.031457892E1,-1.345962733E-1,-9.928120613E0,5.344967842E-1
1.032429126E1,-1.657029688E-1,-9.877870560E0,5.057829022E-1
1.033400444E1,-2.374876440E-1,-9.791728973E0,5.297111273E-1
1.034371829E1,-3.284149170E-1,-9.698409081E0,5.321039557E-1
1.035343142E1,-4.576273263E-1,-9.660123825E0,6.230311990E-1
1.036314371E1,-5.724828243E-1,-9.640981674E0,7.283154130E-1
1.037285683E1,-5.820540786E-1,-9.645767212E0,8.410771489E-1
1.038257074E1,-4.791627228E-1,-9.688838005E0,8.769695163E-1
1.039228386E1,-3.954139352E-1,-9.748658180E0,8.195417523E-1
1.040199610E1,-2.757728100E-1,-9.818050385E0,7.426723242E-1
1.041170928E1,-1.441675574E-1,-9.870692253E0,6.493522525E-1
1.042142319E1,-3.619144112E-2,-9.906584740E0,5.632106066E-1
1.043113621E1,-6.490531564E-2,-9.964012146E0,5.871388316E-1
1.044084855E1,-7.686942816E-2,-9.949655533E0,5.919244885E-1
1.045056173E1,-8.644071966E-2,-9.961619377E0,6.086742878E-1
1.046027564E1,-1.369891018E-1,-9.954441071E0,6.373881102E-1
1.046998866E1,-1.968096644E-1,-9.908977509E0,6.373881102E-1
1.047970100E1,-2.470589429E-1,-9.844371796E0,6.804589629E-1
1.048941413E1,-3.188436031E-1,-9.748658180E0,6.349952817E-1
1.049912803E1,-4.265206456E-1,-9.672088623E0,6.062814593E-1
1.050884116E1,-4.624129832E-1,-9.636196136E0,5.943173170E-1
1.051855345E1,-4.863412082E-1,-9.696016312E0,5.727819204E-1
1.052826657E1,-4.911268353E-1,-9.779765129E0,5.560321808E-1
1.053798048E1,-4.313062727E-1,-9.858728409E0,5.727819204E-1
1.054769360E1,-3.475574851E-1,-9.911370277E0,5.440680385E-1
1.055740584E1,-2.949153781E-1,-9.906584740E0,5.105685592E-1
1.056711902E1,-2.303091735E-1,-9.928120613E0,5.392823815E-1
1.057683293E1,-1.633101404E-1,-9.944869995E0,6.086742878E-1
1.058654595E1,-1.537388563E-1,-9.940084457E0,6.708876491E-1
1.059625829E1,-1.752742529E-1,-9.913763046E0,7.019943595E-1
1.060597147E1,-2.494517565E-1,-9.844371796E0,6.852445602E-1
1.061568538E1,-2.829512656E-1,-9.772586823E0,6.134598851E-1
1.062539840E1,-2.542374134E-1,-9.719944954E0,5.584250093E-1
1.063511074E1,-1.992024779E-1,-9.731908798E0,5.344967842E-1
1.064482386E1,-2.303091735E-1,-9.765408516E0,6.062814593E-1
1.065453777E1,-2.877369225E-1,-9.806086540E0,6.708876491E-1
1.066425090E1,-3.212364316E-1,-9.806086540E0,6.828517914E-1
1.067396319E1,-3.236292601E-1,-9.844371796E0,6.780661345E-1
1.068367631E1,-2.733799815E-1,-9.844371796E0,6.254240274E-1
1.069339022E1,-1.752742529E-1,-9.856335640E0,6.349952817E-1
1.070310334E1,-1.199402362E-1,-9.901799202E0,6.134598851E-1
1.071281558E1,-8.883354068E-2,-9.899406433E0,6.397809386E-1
1.072252876E1,-1.848455518E-1,-9.887442589E0,7.091727853E-1
1.073224267E1,-2.901297510E-1,-9.853942871E0,6.469594240E-1
1.074195579E1,-3.954139352E-1,-9.803693771E0,6.302096844E-1
1.075166803E1,-3.762713671E-1,-9.796515465E0,5.584250093E-1
1.076138121E1,-3.571287692E-1,-9.789336205E0,5.632106066E-1
1.077109511E1,-3.595215976E-1,-9.789336205E0,5.919244885E-1
1.078080814E1,-3.523431420E-1,-9.789336205E0,6.565307379E-1
1.079052048E1,-2.997010350E-1,-9.794121742E0,6.469594240E-1
1.080023366E1,-2.374876440E-1,-9.808479309E0,5.967101455E-1
1.080994751E1,-2.039881349E-1,-9.822835922E0,6.349952817E-1
1.081966064E1,-1.728814393E-1,-9.832406998E0,6.661019921E-1
1.082937293E1,-1.609173268E-1,-9.861121178E0,7.043871880E-1
1.083908605E1,-2.015953064E-1,-9.885049820E0,7.378866673E-1
1.084879996E1,-2.255235314E-1,-9.880263329E0,6.637091637E-1
1.085851308E1,-1.968096644E-1,-9.882657051E0,6.038886309E-1
1.086822532E1,-1.776670814E-1,-9.856335640E0,5.512465239E-1
1.087793850E1,-2.087737769E-1,-9.877870560E0,5.799604058E-1
1.088765241E1,-2.279163599E-1,-9.873085022E0,6.541379094E-1
1.089736553E1,-2.877369225E-1,-9.849157333E0,6.708876491E-1
1.090707777E1,-3.260220885E-1,-9.815657616E0,6.876373887E-1
1.091679095E1,-3.762713671E-1,-9.779765129E0,7.477570772E-1
1.092650485E1,-3.978067636E-1,-9.772586823E0,7.019943595E-1
1.093621788E1,-3.738785386E-1,-9.763015747E0,6.302096844E-1
1.094593022E1,-3.475574851E-1,-9.767801285E0,6.014958024E-1
1.095564340E1,-3.188436031E-1,-9.830014229E0,6.254240274E-1
1.096535730E1,-2.350948304E-1,-9.856335640E0,6.469594240E-1
1.097507032E1,-2.015953064E-1,-9.856335640E0,6.110670567E-1
1.098478267E1,-2.231307179E-1,-9.846764565E0,6.278168559E-1
1.099449579E1,-2.350948304E-1,-9.837192535E0,6.206383705E-1
1.100420970E1,-2.231307179E-1,-9.837192535E0,5.943173170E-1
1.101392282E1,-2.207378894E-1,-9.813264847E0,6.038886309E-1
1.102363511E1,-1.800599098E-1,-9.798908234E0,6.421737671E-1
1.103334824E1,-1.872383654E-1,-9.820443153E0,7.450651526E-1
1.104306214E1,-1.441675574E-1,-9.856335640E0,7.645068169E-1
1.105277527E1,-1.199402362E-1,-9.875477791E0,6.684948206E-1
1.106248751E1,-1.274178028E-1,-9.885049820E0,5.871388316E-1
1.107220069E1,-2.207378894E-1,-9.863513947E0,4.794618487E-1
1.108191459E1,-3.140579760E-1,-9.832406998E0,4.722833633E-1
1.109162772E1,-3.379862010E-1,-9.822835922E0,5.297111273E-1
1.110133996E1,-3.044866920E-1,-9.837192535E0,5.440680385E-1
1.111105314E1,-2.231307179E-1,-9.851550102E0,5.464608669E-1
1.112076704E1,-1.079761237E-1,-9.865906715E0,5.656034350E-1
1.113048006E1,-6.969095767E-2,-9.885049820E0,6.086742878E-1
1.114019241E1,-5.054837838E-2,-9.880263329E0,6.900302172E-1
1.114990558E1,-1.151545867E-1,-9.837192535E0,7.573283911E-1
1.115961944E1,-2.087737769E-1,-9.801301003E0,7.740781307E-1
1.116933256E1,-3.116651475E-1,-9.789336205E0,7.668996453E-1
1.117904485E1,-3.571287692E-1,-9.770194054E0,7.692924738E-1
1.118875798E1,-2.901297510E-1,-9.758230209E0,7.932206988E-1
1.119847188E1,-3.116651475E-1,-9.777372360E0,6.445665956E-1
1.120818501E1,-2.925225794E-1,-9.806086540E0,6.062814593E-1
1.121789725E1,-2.566302419E-1,-9.815657616E0,5.536393523E-1
1.122761043E1,-2.709871531E-1,-9.834799767E0,5.153541565E-1
1.123732433E1,-2.614158690E-1,-9.832406998E0,5.440680385E-1
1.124703746E1,-3.355933726E-1,-9.818050385E0,6.158527136E-1
1.125674970E1,-3.308077157E-1,-9.853942871E0,6.565307379E-1
1.126646288E1,-2.925225794E-1,-9.889835358E0,6.972087026E-1
1.127617678E1,-2.877369225E-1,-9.906584740E0,6.421737671E-1
1.128588991E1,-2.949153781E-1,-9.885049820E0,6.062814593E-1
1.129560214E1,-2.853440940E-1,-9.868299484E0,5.560321808E-1
1.130531532E1,-2.590230405E-1,-9.851550102E0,5.847460628E-1
1.131502923E1,-2.087737769E-1,-9.861121178E0,6.254240274E-1
1.132474225E1,-1.800599098E-1,-9.865906715E0,5.919244885E-1
1.133445459E1,-1.609173268E-1,-9.841979027E0,5.368895531E-1
1.134416772E1,-1.561316848E-1,-9.846764565E0,5.656034350E-1
1.135388163E1,-2.350948304E-1,-9.808479309E0,6.493522525E-1
1.136359475E1,-2.925225794E-1,-9.784550667E0,7.235297561E-1
1.137330704E1,-2.685943544E-1,-9.784550667E0,7.091727853E-1
1.138302017E1,-2.255235314E-1,-9.808479309E0,7.740781307E-1
1.139273407E1,-2.111666054E-1,-9.789336205E0,7.354938388E-1
1.140244720E1,-2.183450609E-1,-9.777372360E0,6.684948206E-1
1.141215944E1,-2.087737769E-1,-9.789336205E0,6.110670567E-1
1.142187261E1,-1.992024779E-1,-9.822835922E0,5.440680385E-1
1.143158652E1,-2.327020019E-1,-9.830014229E0,5.416752100E-1
1.144129964E1,-2.733799815E-1,-9.853942871E0,5.608177781E-1
1.145101189E1,-2.422732860E-1,-9.844371796E0,5.153541565E-1
1.146072506E1,-2.159522474E-1,-9.820443153E0,4.866403043E-1
1.147043897E1,-2.279163599E-1,-9.820443153E0,5.656034350E-1
1.148015199E1,-2.470589429E-1,-9.841979027E0,6.397809386E-1
1.148986433E1,-2.614158690E-1,-9.846764565E0,6.780661345E-1
1.149957751E1,-2.614158690E-1,-9.861121178E0,6.828517914E-1
1.150929136E1,-2.877369225E-1,-9.849157333E0,6.804589629E-1
1.151900449E1,-2.733799815E-1,-9.846764565E0,6.469594240E-1
1.152871678E1,-2.542374134E-1,-9.839586258E0,6.349952817E-1
1.153842991E1,-2.135594189E-1,-9.882657051E0,6.326025128E-1
1.154814381E1,-1.968096644E-1,-9.928120613E0,5.560321808E-1
1.155785694E1,-2.135594189E-1,-9.911370277E0,5.201398134E-1
1.156756923E1,-2.327020019E-1,-9.851550102E0,4.914259613E-1
1.157728235E1,-2.805584669E-1,-9.806086540E0,5.201398134E-1
1.158699626E1,-3.260220885E-1,-9.779765129E0,5.536393523E-1
1.159670938E1,-3.906283081E-1,-9.774979591E0,6.517450809E-1
1.160642163E1,-3.786641955E-1,-9.774979591E0,6.900302172E-1
1.161613480E1,-2.973082066E-1,-9.772586823E0,6.517450809E-1
1.162584871E1,-2.039881349E-1,-9.770194054E0,6.038886309E-1
1.163556183E1,-1.007976532E-1,-9.798908234E0,5.919244885E-1
1.164527407E1,-8.644071966E-2,-9.846764565E0,6.780661345E-1
1.165498725E1,-1.127617657E-1,-9.887442589E0,7.259225845E-1
1.166470116E1,-1.752742529E-1,-9.887442589E0,6.732804775E-1
1.167441418E1,-1.609173268E-1,-9.853942871E0,5.488536954E-1
1.168412652E1,-1.274178028E-1,-9.846764565E0,4.914259613E-1
1.169383970E1,-1.537388563E-1,-9.822835922E0,4.531407952E-1
1.170355360E1,-1.704886109E-1,-9.827621460E0,4.866403043E-1
1.171326663E1,-1.920240223E-1,-9.849157333E0,5.895316601E-1
1.172297897E1,-2.709871531E-1,-9.827621460E0,6.110670567E-1
1.173269209E1,-3.882354796E-1,-9.796515465E0,5.703890920E-1
1.174240600E1,-3.451646566E-1,-9.794121742E0,5.560321808E-1
1.175211912E1,-3.068794906E-1,-9.844371796E0,5.727819204E-1
1.176183142E1,-2.662015259E-1,-9.858728409E0,5.632106066E-1
1.177154454E1,-2.518445849E-1,-9.885049820E0,5.392823815E-1
1.178125845E1,-2.470589429E-1,-9.904191971E0,6.373881102E-1
1.179097157E1,-2.638086975E-1,-9.885049820E0,6.469594240E-1
1.180068381E1,-2.853440940E-1,-9.822835922E0,5.919244885E-1
1.181039699E1,-3.044866920E-1,-9.753444672E0,5.823532343E-1
1.182011090E1,-3.164508045E-1,-9.729516029E0,6.421737671E-1
1.182982402E1,-4.001995921E-1,-9.727123260E0,6.900302172E-1
1.183953626E1,-4.121637046E-1,-9.748658180E0,7.477570772E-1
1.184924944E1,-4.001995921E-1,-9.772586823E0,7.402794957E-1
1.185896334E1,-3.260220885E-1,-9.796515465E0,6.900302172E-1
1.186867647E1,-2.494517565E-1,-9.820443153E0,7.019943595E-1
1.187838871E1,-2.039881349E-1,-9.856335640E0,6.421737671E-1
1.188810189E1,-2.087737769E-1,-9.887442589E0,6.158527136E-1
1.189781579E1,-1.680957973E-1,-9.911370277E0,6.661019921E-1
1.190752881E1,-1.489532143E-1,-9.942477226E0,6.421737671E-1
1.191724116E1,-1.896311939E-1,-9.937691689E0,5.201398134E-1
1.192695433E1,-2.231307179E-1,-9.887442589E0,4.387838542E-1
1.193666824E1,-2.590230405E-1,-9.846764565E0,4.292125702E-1
1.194638126E1,-2.662015259E-1,-9.806086540E0,4.698905349E-1
1.195609360E1,-2.422732860E-1,-9.798908234E0,5.368895531E-1
1.196580678E1,-2.566302419E-1,-9.786943436E0,5.991029739E-1
1.197552069E1,-2.422732860E-1,-9.782157898E0,6.804589629E-1
1.198523371E1,-2.159522474E-1,-9.810872078E0,7.477570772E-1
1.199494605E1,-1.896311939E-1,-9.782157898E0,7.477570772E-1
1.200465923E1,-2.111666054E-1,-9.739087105E0,7.549355626E-1
1.201437308E1,-2.159522474E-1,-9.782157898E0,7.764709592E-1
1.202408621E1,-2.494517565E-1,-9.851550102E0,8.195417523E-1
1.203379850E1,-1.752742529E-1,-9.913763046E0,7.740781307E-1
1.204351162E1,-1.007976532E-1,-9.916155815E0,6.637091637E-1
1.205322553E1,-1.274178028E-1,-9.904191971E0,5.584250093E-1
1.206293866E1,-1.274178028E-1,-9.877870560E0,5.368895531E-1
1.207265095E1,-1.633101404E-1,-9.853942871E0,5.632106066E-1
1.208236407E1,-2.733799815E-1,-9.798908234E0,5.656034350E-1
1.209207798E1,-3.595215976E-1,-9.765408516E0,6.110670567E-1
1.210179110E1,-4.121637046E-1,-9.748658180E0,6.876373887E-1
1.211150334E1,-3.930211067E-1,-9.760622978E0,6.661019921E-1
1.212121652E1,-3.547359705E-1,-9.830014229E0,6.517450809E-1
1.213093043E1,-2.470589429E-1,-9.873085022E0,5.871388316E-1
1.214064355E1,-1.896311939E-1,-9.897013664E0,4.986044168E-1
1.215035579E1,-1.079761237E-1,-9.906584740E0,4.866403043E-1
1.216006897E1,-4.097708687E-2,-9.913763046E0,4.794618487E-1
1.216978288E1,-3.858426586E-2,-9.894620895E0,4.866403043E-1
1.217949590E1,-1.031904742E-1,-9.853942871E0,5.249254704E-1
1.218920824E1,-1.609173268E-1,-9.822835922E0,6.038886309E-1
1.219892142E1,-2.063809484E-1,-9.772586823E0,6.732804775E-1
1.220863532E1,-2.446661144E-1,-9.724730492E0,7.573283911E-1
1.221834834E1,-2.350948304E-1,-9.724730492E0,7.645068169E-1
1.222806069E1,-1.896311939E-1,-9.748658180E0,8.075776696E-1
1.223777386E1,-1.728814393E-1,-9.820443153E0,7.956135273E-1
1.224748772E1,-2.039881349E-1,-9.875477791E0,6.828517914E-1
1.225720084E1,-2.398804724E-1,-9.897013664E0,5.536393523E-1
1.226691314E1,-1.992024779E-1,-9.935298920E0,5.129613280E-1
1.227662626E1,-1.776670814E-1,-9.928120613E0,5.129613280E-1
1.228634017E1,-1.704886109E-1,-9.892228127E0,4.818546474E-1
1.229605329E1,-1.561316848E-1,-9.853942871E0,4.794618487E-1
1.230576558E1,-1.609173268E-1,-9.815657616E0,5.823532343E-1
1.231547871E1,-1.776670814E-1,-9.798908234E0,6.876373887E-1
1.232519261E1,-3.092723191E-1,-9.801301003E0,7.860422134E-1
1.233490574E1,-3.355933726E-1,-9.796515465E0,7.668996453E-1
1.234461798E1,-2.853440940E-1,-9.784550667E0,7.115656137E-1
1.235433116E1,-2.709871531E-1,-9.815657616E0,5.967101455E-1
1.236404506E1,-2.422732860E-1,-9.873085022E0,5.799604058E-1
1.237375819E1,-1.968096644E-1,-9.904191971E0,5.632106066E-1
1.238347043E1,-1.585244983E-1,-9.916155815E0,5.488536954E-1
1.239318360E1,-1.609173268E-1,-9.880263329E0,5.608177781E-1
1.240289751E1,-1.680957973E-1,-9.851550102E0,6.158527136E-1
1.241261064E1,-2.231307179E-1,-9.832406998E0,6.565307379E-1
1.242232288E1,-2.757728100E-1,-9.808479309E0,6.756733060E-1
1.243203605E1,-2.638086975E-1,-9.779765129E0,6.493522525E-1
1.244174996E1,-2.566302419E-1,-9.767801285E0,6.421737671E-1
1.245146298E1,-2.350948304E-1,-9.789336205E0,5.895316601E-1
1.246117532E1,-2.231307179E-1,-9.798908234E0,6.206383705E-1
1.247088850E1,-2.015953064E-1,-9.810872078E0,6.302096844E-1
1.248060241E1,-2.135594189E-1,-9.798908234E0,6.326025128E-1
1.249031543E1,-2.614158690E-1,-9.808479309E0,6.780661345E-1
1.250002777E1,-2.087737769E-1,-9.832406998E0,7.091727853E-1
1.250974095E1,-2.039881349E-1,-9.827621460E0,6.780661345E-1
1.251945485E1,-1.920240223E-1,-9.844371796E0,6.445665956E-1
1.252916788E1,-1.609173268E-1,-9.858728409E0,6.038886309E-1
1.253888022E1,-1.968096644E-1,-9.839586258E0,5.632106066E-1
1.254859334E1,-2.470589429E-1,-9.832406998E0,5.344967842E-1
1.255830725E1,-3.068794906E-1,-9.822835922E0,5.632106066E-1
1.256802038E1,-3.212364316E-1,-9.830014229E0,5.679962635E-1
1.257773267E1,-2.709871531E-1,-9.861121178E0,5.895316601E-1
1.258744579E1,-2.374876440E-1,-9.870692253E0,5.799604058E-1
1.259715970E1,-2.518445849E-1,-9.877870560E0,5.727819204E-1
1.260687282E1,-2.662015259E-1,-9.844371796E0,6.062814593E-1
1.261658511E1,-2.662015259E-1,-9.803693771E0,5.727819204E-1
1.262629824E1,-2.973082066E-1,-9.784550667E0,6.158527136E-1
1.263601214E1,-3.236292601E-1,-9.760622978E0,6.756733060E-1
1.264572527E1,-3.164508045E-1,-9.770194054E0,7.283154130E-1
1.265543756E1,-3.260220885E-1,-9.789336205E0,7.812566161E-1
1.266515069E1,-3.332005441E-1,-9.822835922E0,7.426723242E-1
1.267486459E1,-2.829512656E-1,-9.851550102E0,6.445665956E-1
1.268457772E1,-2.566302419E-1,-9.858728409E0,5.488536954E-1
1.269428996E1,-2.207378894E-1,-9.870692253E0,4.818546474E-1
1.270400314E1,-2.231307179E-1,-9.877870560E0,5.057829022E-1
1.271371704E1,-2.039881349E-1,-9.875477791E0,5.871388316E-1
1.272343017E1,-1.393819153E-1,-9.880263329E0,7.139584422E-1
1.273314241E1,-8.644071966E-2,-9.889835358E0,8.195417523E-1
1.274285558E1,-1.345962733E-1,-9.875477791E0,8.650053740E-1
1.275256949E1,-1.920240223E-1,-9.839586258E0,8.051848412E-1
1.276228261E1,-2.446661144E-1,-9.770194054E0,7.139584422E-1
1.277199485E1,-3.403790295E-1,-9.736694336E0,6.828517914E-1
1.278170803E1,-3.714857101E-1,-9.743872643E0,6.708876491E-1
1.279142194E1,-3.858426511E-1,-9.777372360E0,6.613163352E-1
1.280113506E1,-3.116651475E-1,-9.818050385E0,6.278168559E-1
1.281084730E1,-2.374876440E-1,-9.861121178E0,5.943173170E-1
1.282056048E1,-1.704886109E-1,-9.880263329E0,5.201398134E-1
1.283027439E1,-1.127617657E-1,-9.882657051E0,4.842474759E-1
1.283998751E1,-9.122636169E-2,-9.853942871E0,5.488536954E-1
1.284969975E1,-6.969095767E-2,-9.849157333E0,6.445665956E-1
1.285941293E1,-1.513460279E-1,-9.803693771E0,7.956135273E-1
1.286912683E1,-2.518445849E-1,-9.724730492E0,8.410771489E-1
1.287883996E1,-2.997010350E-1,-9.731908798E0,8.243274093E-1
1.288855220E1,-3.020938635E-1,-9.801301003E0,7.932206988E-1
1.289826538E1,-2.925225794E-1,-9.856335640E0,6.230311990E-1
1.290797928E1,-2.853440940E-1,-9.887442589E0,4.986044168E-1
1.291769230E1,-2.662015259E-1,-9.947262764E0,4.938187599E-1
1.292740465E1,-1.968096644E-1,-9.980762482E0,4.818546474E-1
1.293711782E1,-1.513460279E-1,-9.985548019E0,5.177469850E-1
1.294683173E1,-1.369891018E-1,-9.920941353E0,5.895316601E-1
1.295654475E1,-1.944168359E-1,-9.839586258E0,6.014958024E-1
1.296625709E1,-3.188436031E-1,-9.736694336E0,6.469594240E-1
1.297597027E1,-4.456632137E-1,-9.688838005E0,7.331010103E-1
1.298568418E1,-5.006981492E-1,-9.700801849E0,7.716853023E-1
1.299539720E1,-4.360919297E-1,-9.739087105E0,7.716853023E-1
1.300510954E1,-3.092723191E-1,-9.801301003E0,8.171489239E-1
1.301482272E1,-2.470589429E-1,-9.846764565E0,7.645068169E-1
1.302453663E1,-1.633101404E-1,-9.880263329E0,7.139584422E-1
1.303424965E1,-1.345962733E-1,-9.892228127E0,6.158527136E-1
1.304396199E1,-1.561316848E-1,-9.873085022E0,5.009972453E-1
1.305367517E1,-2.111666054E-1,-9.870692253E0,5.201398134E-1
1.306338902E1,-2.542374134E-1,-9.875477791E0,5.871388316E-1
1.307310214E1,-2.685943544E-1,-9.851550102E0,6.278168559E-1
1.308281444E1,-2.901297510E-1,-9.839586258E0,6.756733060E-1
1.309252761E1,-3.355933726E-1,-9.810872078E0,7.187440991E-1
1.310224147E1,-3.547359705E-1,-9.782157898E0,7.307082415E-1
1.311195459E1,-3.140579760E-1,-9.782157898E0,7.477570772E-1
1.312166689E1,-2.111666054E-1,-9.813264847E0,7.259225845E-1
1.313138001E1,-1.896311939E-1,-9.815657616E0,6.684948206E-1
1.314109397E1,-2.039881349E-1,-9.834799767E0,7.812566161E-1
1.315080699E1,-2.398804724E-1,-9.841979027E0,8.291130662E-1
1.316051933E1,-2.805584669E-1,-9.875477791E0,7.019943595E-1
1.317023251E1,-3.475574851E-1,-9.861121178E0,6.756733060E-1
1.317994636E1,-3.738785386E-1,-9.834799767E0,6.230311990E-1
1.318965949E1,-3.284149170E-1,-9.806086540E0,5.560321808E-1
1.319937178E1,-2.518445849E-1,-9.813264847E0,5.368895531E-1
1.320908491E1,-2.207378894E-1,-9.803693771E0,5.847460628E-1
1.321879881E1,-1.992024779E-1,-9.777372360E0,6.254240274E-1
1.322851194E1,-2.279163599E-1,-9.784550667E0,6.780661345E-1
1.323822423E1,-2.470589429E-1,-9.801301003E0,7.477570772E-1
1.324793735E1,-2.279163599E-1,-9.825228691E0,7.211369276E-1
1.325765126E1,-1.872383654E-1,-9.858728409E0,6.924230456E-1
1.326736438E1,-1.800599098E-1,-9.844371796E0,6.086742878E-1
1.327707668E1,-2.159522474E-1,-9.832406998E0,5.440680385E-1
1.328678980E1,-2.997010350E-1,-9.827621460E0,5.847460628E-1
1.329650371E1,-3.403790295E-1,-9.846764565E0,6.158527136E-1
1.330621683E1,-2.901297510E-1,-9.846764565E0,5.991029739E-1
1.331592912E1,-1.920240223E-1,-9.851550102E0,6.134598851E-1
1.332564225E1,-1.103689447E-1,-9.853942871E0,6.038886309E-1
1.333535616E1,-9.122636169E-2,-9.841979027E0,6.517450809E-1
1.334506928E1,-9.361918271E-2,-9.863513947E0,6.780661345E-1
1.335478152E1,-5.772684515E-2,-9.870692253E0,7.163512707E-1
1.336449470E1,-8.883354068E-2,-9.849157333E0,7.378866673E-1
1.337420860E1,-1.776670814E-1,-9.825228691E0,6.900302172E-1
1.338392173E1,-2.111666054E-1,-9.818050385E0,6.182455420E-1
1.339363397E1,-2.207378894E-1,-9.818050385E0,6.014958024E-1
1.340334715E1,-2.733799815E-1,-9.774979591E0,6.541379094E-1
1.341306105E1,-2.805584669E-1,-9.758230209E0,6.326025128E-1
1.342277418E1,-3.092723191E-1,-9.827621460E0,7.067800164E-1
1.343248642E1,-3.499503136E-1,-9.880263329E0,7.716853023E-1
1.344219959E1,-4.121637046E-1,-9.916155815E0,7.788637877E-1
1.345191350E1,-4.576273263E-1,-9.913763046E0,7.549355626E-1
1.346162663E1,-4.384847581E-1,-9.870692253E0,7.163512707E-1
1.347133886E1,-5.030909777E-1,-9.808479309E0,6.230311990E-1
1.348105204E1,-4.863412082E-1,-9.777372360E0,5.464608669E-1
1.349076595E1,-3.667000830E-1,-9.758230209E0,5.392823815E-1
1.350047897E1,-3.092723191E-1,-9.734301567E0,5.560321808E-1
1.351019131E1,-2.614158690E-1,-9.758230209E0,6.302096844E-1
1.351990449E1,-1.824527234E-1,-9.779765129E0,7.043871880E-1
1.352961840E1,-1.151545867E-1,-9.808479309E0,7.187440991E-1
1.353933142E1,-5.772684515E-2,-9.837192535E0,7.259225845E-1
1.354904376E1,-5.084747914E-3,-9.892228127E0,6.852445602E-1
1.355875694E1,-3.858426586E-2,-9.935298920E0,6.445665956E-1
1.356847084E1,-3.379862010E-2,-9.937691689E0,5.679962635E-1
1.357818386E1,-4.097708687E-2,-9.904191971E0,4.579264224E-1
1.358789621E1,-7.926224917E-2,-9.865906715E0,5.129613280E-1
1.359760938E1,-1.537388563E-1,-9.858728409E0,6.684948206E-1
1.360732324E1,-2.159522474E-1,-9.841979027E0,7.307082415E-1
1.361703636E1,-2.733799815E-1,-9.784550667E0,6.996015310E-1
1.362674866E1,-3.427718580E-1,-9.770194054E0,7.331010103E-1
1.363646178E1,-4.121637046E-1,-9.784550667E0,7.549355626E-1
1.364617569E1,-4.289134443E-1,-9.767801285E0,7.426723242E-1
1.365588881E1,-4.073780477E-1,-9.774979591E0,6.684948206E-1
1.366560105E1,-3.978067636E-1,-9.755837440E0,5.823532343E-1
1.367531423E1,-3.930211067E-1,-9.755837440E0,5.273182988E-1
1.368502814E1,-3.499503136E-1,-9.753444672E0,5.727819204E-1
1.369474126E1,-3.140579760E-1,-9.753444672E0,6.134598851E-1
1.370445350E1,-2.877369225E-1,-9.813264847E0,7.402794957E-1
1.371416668E1,-2.614158690E-1,-9.870692253E0,8.195417523E-1
1.372388058E1,-2.303091735E-1,-9.911370277E0,8.147560954E-1
1.373359371E1,-1.848455518E-1,-9.935298920E0,7.621139884E-1
1.374330595E1,-2.087737769E-1,-9.925727844E0,7.067800164E-1
1.375301913E1,-2.614158690E-1,-9.940084457E0,6.469594240E-1
1.376273303E1,-3.308077157E-1,-9.908977509E0,6.014958024E-1
1.377244605E1,-3.834498227E-1,-9.873085022E0,5.009972453E-1
1.378215840E1,-3.786641955E-1,-9.837192535E0,5.201398134E-1
1.379187157E1,-4.193421602E-1,-9.794121742E0,5.751747489E-1
1.380158543E1,-3.810569942E-1,-9.748658180E0,6.134598851E-1
1.381129855E1,-3.523431420E-1,-9.715159416E0,6.541379094E-1
1.382101084E1,-3.044866920E-1,-9.724730492E0,7.378866673E-1
1.383072397E1,-2.925225794E-1,-9.748658180E0,8.410771489E-1
1.384043788E1,-2.207378894E-1,-9.789336205E0,8.650053740E-1
1.385015100E1,-1.944168359E-1,-9.822835922E0,8.434699774E-1
1.385986329E1,-1.465603858E-1,-9.868299484E0,7.163512707E-1
1.386957642E1,-1.752742529E-1,-9.870692253E0,5.727819204E-1
1.387929032E1,-2.327020019E-1,-9.873085022E0,5.344967842E-1
1.388900345E1,-2.590230405E-1,-9.861121178E0,5.416752100E-1
1.389871569E1,-2.709871531E-1,-9.865906715E0,5.727819204E-1
1.390842886E1,-2.709871531E-1,-9.882657051E0,7.019943595E-1
1.391814277E1,-2.542374134E-1,-9.870692253E0,7.645068169E-1
1.392785579E1,-2.303091735E-1,-9.844371796E0,6.972087026E-1
1.393756814E1,-1.920240223E-1,-9.830014229E0,6.110670567E-1
1.394728131E1,-2.087737769E-1,-9.801301003E0,6.062814593E-1
1.395699517E1,-2.709871531E-1,-9.791728973E0,6.852445602E-1
1.396670829E1,-3.020938635E-1,-9.818050385E0,7.187440991E-1
1.397642058E1,-3.188436031E-1,-9.851550102E0,7.043871880E-1
1.398613371E1,-3.427718580E-1,-9.849157333E0,6.732804775E-1
1.399584761E1,-3.236292601E-1,-9.810872078E0,6.421737671E-1
1.400556074E1,-3.020938635E-1,-9.808479309E0,6.828517914E-1
1.401527298E1,-2.733799815E-1,-9.853942871E0,7.812566161E-1
1.402498616E1,-2.087737769E-1,-9.880263329E0,8.027920127E-1
1.403470006E1,-1.776670814E-1,-9.861121178E0,7.501499057E-1
1.404441319E1,-2.159522474E-1,-9.798908234E0,7.043871880E-1
1.405412543E1,-3.140579760E-1,-9.779765129E0,6.302096844E-1
1.406383860E1,-3.858426511E-1,-9.767801285E0,5.871388316E-1
1.407355246E1,-4.001995921E-1,-9.777372360E0,6.589235067E-1
1.408326558E1,-3.475574851E-1,-9.791728973E0,7.402794957E-1
1.409297788E1,-2.949153781E-1,-9.818050385E0,7.884350419E-1
1.410269100E1,-2.925225794E-1,-9.861121178E0,8.267202377E-1
1.411240491E1,-3.116651475E-1,-9.880263329E0,7.163512707E-1
1.412211803E1,-3.523431420E-1,-9.846764565E0,5.703890920E-1
1.413183027E1,-3.690928817E-1,-9.820443153E0,5.057829022E-1
1.414154345E1,-3.332005441E-1,-9.796515465E0,4.962115884E-1
1.415125735E1,-3.140579760E-1,-9.822835922E0,5.488536954E-1
1.416097048E1,-2.303091735E-1,-9.844371796E0,6.038886309E-1
1.417068272E1,-1.345962733E-1,-9.887442589E0,6.373881102E-1
1.418039590E1,-1.223330572E-1,-9.906584740E0,6.972087026E-1
1.419010975E1,-1.007976532E-1,-9.880263329E0,6.661019921E-1
1.419982288E1,-1.537388563E-1,-9.813264847E0,6.924230456E-1
1.420953517E1,-2.159522474E-1,-9.753444672E0,5.871388316E-1
1.421924829E1,-1.920240223E-1,-9.770194054E0,6.134598851E-1
1.422896220E1,-1.561316848E-1,-9.782157898E0,6.876373887E-1
1.423867532E1,-1.633101404E-1,-9.806086540E0,7.067800164E-1
1.424838756E1,-2.039881349E-1,-9.810872078E0,6.637091637E-1
1.425810074E1,-1.657029688E-1,-9.837192535E0,6.613163352E-1
1.426781465E1,-2.087737769E-1,-9.844371796E0,7.450651526E-1
1.427752767E1,-2.590230405E-1,-9.820443153E0,7.043871880E-1
1.428724001E1,-3.140579760E-1,-9.806086540E0,6.852445602E-1
1.429695319E1,-3.571287692E-1,-9.822835922E0,7.402794957E-1
1.430666704E1,-3.810569942E-1,-9.832406998E0,7.163512707E-1
1.431638017E1,-3.523431420E-1,-9.810872078E0,6.637091637E-1
1.432609241E1,-3.403790295E-1,-9.820443153E0,6.445665956E-1
1.433580558E1,-3.140579760E-1,-9.851550102E0,6.302096844E-1
1.434551949E1,-2.805584669E-1,-9.849157333E0,6.541379094E-1
1.435523261E1,-2.470589429E-1,-9.820443153E0,6.421737671E-1
1.436494485E1,-2.685943544E-1,-9.827621460E0,6.541379094E-1
1.437465803E1,-2.685943544E-1,-9.841979027E0,6.637091637E-1
1.438437194E1,-2.590230405E-1,-9.885049820E0,6.756733060E-1
1.439408496E1,-3.164508045E-1,-9.904191971E0,6.804589629E-1
1.440379730E1,-3.188436031E-1,-9.853942871E0,6.756733060E-1
1.441351043E1,-3.044866920E-1,-9.822835922E0,6.493522525E-1
1.442322433E1,-3.044866920E-1,-9.813264847E0,6.349952817E-1
1.443293746E1,-2.925225794E-1,-9.789336205E0,6.373881102E-1
1.444264970E1,-2.877369225E-1,-9.753444672E0,6.326025128E-1
1.445236288E1,-2.614158690E-1,-9.746265411E0,6.852445602E-1
1.446207678E1,-2.877369225E-1,-9.734301567E0,7.307082415E-1
1.447178980E1,-3.020938635E-1,-9.765408516E0,7.740781307E-1
1.448150214E1,-2.685943544E-1,-9.841979027E0,8.410771489E-1
1.449121527E1,-2.542374134E-1,-9.846764565E0,7.354938388E-1
1.450092918E1,-2.350948304E-1,-9.834799767E0,6.349952817E-1
1.451064230E1,-2.015953064E-1,-9.865906715E0,5.656034350E-1
1.452035454E1,-1.872383654E-1,-9.870692253E0,4.890331328E-1
1.453006772E1,-2.207378894E-1,-9.837192535E0,4.962115884E-1
1.453978163E1,-2.350948304E-1,-9.865906715E0,5.991029739E-1
1.454949465E1,-1.872383654E-1,-9.916155815E0,6.780661345E-1
1.455920699E1,-1.513460279E-1,-9.956833839E0,7.331010103E-1
1.456892017E1,-1.585244983E-1,-9.940084457E0,6.756733060E-1
1.457863402E1,-1.298106313E-1,-9.935298920E0,6.517450809E-1
1.458834714E1,-2.015953064E-1,-9.923335075E0,6.541379094E-1
1.459805938E1,-3.188436031E-1,-9.865906715E0,6.110670567E-1
1.460777256E1,-3.954139352E-1,-9.801301003E0,5.847460628E-1
1.461748647E1,-3.930211067E-1,-9.777372360E0,5.584250093E-1
1.462719949E1,-4.145565331E-1,-9.755837440E0,5.799604058E-1
1.463691183E1,-4.528416991E-1,-9.741479874E0,5.656034350E-1
1.464662496E1,-4.193421602E-1,-9.741479874E0,5.967101455E-1
1.465633886E1,-4.384847581E-1,-9.731908798E0,6.828517914E-1
1.466605199E1,-4.145565331E-1,-9.734301567E0,7.450651526E-1
1.467576423E1,-4.145565331E-1,-9.755837440E0,7.692924738E-1
1.468547741E1,-3.762713671E-1,-9.803693771E0,7.788637877E-1
1.469519131E1,-3.212364316E-1,-9.858728409E0,7.956135273E-1
1.470490433E1,-3.044866920E-1,-9.844371796E0,7.501499057E-1
1.471461668E1,-2.733799815E-1,-9.841979027E0,6.469594240E-1
1.472432985E1,-1.537388563E-1,-9.853942871E0,5.775675774E-1
1.473404371E1,-9.122636169E-2,-9.846764565E0,5.727819204E-1
1.474375683E1,-1.055833027E-1,-9.851550102E0,5.751747489E-1
1.475346907E1,-1.175474152E-1,-9.841979027E0,5.943173170E-1
1.476318225E1,-8.165507019E-2,-9.849157333E0,6.326025128E-1
1.477289616E1,-8.644071966E-2,-9.868299484E0,6.684948206E-1
1.478260918E1,-1.055833027E-1,-9.913763046E0,7.283154130E-1
1.479232152E1,-1.298106313E-1,-9.947262764E0,7.043871880E-1
1.480203470E1,-1.728814393E-1,-9.897013664E0,6.134598851E-1
1.481174855E1,-2.398804724E-1,-9.858728409E0,5.488536954E-1
1.482146168E1,-3.140579760E-1,-9.841979027E0,5.512465239E-1
1.483117397E1,-3.523431420E-1,-9.844371796E0,5.081757307E-1
1.484088709E1,-3.547359705E-1,-9.827621460E0,5.009972453E-1
1.485060100E1,-3.260220885E-1,-9.796515465E0,5.225326419E-1
1.486031412E1,-3.451646566E-1,-9.772586823E0,5.943173170E-1
1.487002636E1,-3.786641955E-1,-9.743872643E0,7.331010103E-1
1.487973954E1,-3.810569942E-1,-9.719944954E0,7.860422134E-1
1.488945340E1,-3.762713671E-1,-9.736694336E0,8.195417523E-1
1.489916652E1,-3.188436031E-1,-9.784550667E0,8.410771489E-1
1.490887881E1,-2.518445849E-1,-9.820443153E0,7.884350419E-1
1.491859194E1,-2.039881349E-1,-9.844371796E0,7.283154130E-1
1.492830584E1,-2.398804724E-1,-9.820443153E0,6.493522525E-1
1.493801897E1,-2.470589429E-1,-9.827621460E0,6.062814593E-1
1.494773121E1,-2.327020019E-1,-9.865906715E0,6.278168559E-1
1.495744438E1,-2.614158690E-1,-9.880263329E0,6.421737671E-1
1.496715829E1,-2.327020019E-1,-9.849157333E0,6.397809386E-1
1.497687131E1,-2.255235314E-1,-9.841979027E0,5.895316601E-1
1.498658366E1,-2.039881349E-1,-9.868299484E0,5.392823815E-1
1.499629678E1,-1.968096644E-1,-9.863513947E0,5.656034350E-1
1.500601069E1,-2.398804724E-1,-9.846764565E0,5.560321808E-1
1.501572381E1,-2.470589429E-1,-9.837192535E0,5.464608669E-1
1.502543605E1,-2.207378894E-1,-9.861121178E0,5.464608669E-1
1.503514923E1,-2.159522474E-1,-9.885049820E0,5.344967842E-1
1.504486314E1,-2.231307179E-1,-9.882657051E0,5.368895531E-1
1.505457616E1,-1.968096644E-1,-9.863513947E0,5.488536954E-1
1.506428850E1,-1.728814393E-1,-9.815657616E0,6.302096844E-1
