"Time (s)","Gyroscope x (rad/s)","Gyroscope y (rad/s)","Gyroscope z (rad/s)"
1.790110000E-1,1.359135192E-2,-2.137965523E-3,0.000000000E0
1.887241770E-1,1.847812906E-2,-5.803049076E-3,2.443389036E-3
1.984380310E-1,2.214321308E-2,-9.468132630E-3,-1.221694518E-3
2.081510520E-1,2.580829710E-2,-9.162708884E-4,-2.443389036E-3
2.178633950E-1,2.336490713E-2,1.374406368E-2,1.221694518E-3
2.275765200E-1,1.481304597E-2,2.107422985E-2,8.551862091E-3
2.372903750E-1,8.704573847E-3,2.107422985E-2,1.832541823E-2
2.470035000E-1,8.704573847E-3,1.130067464E-2,2.321219631E-2
2.567157390E-1,1.236965694E-2,7.635590620E-3,2.321219631E-2
2.664288640E-1,9.926267900E-3,1.252236869E-2,1.710372418E-2
2.761427700E-1,8.704573847E-3,2.107422985E-2,7.330167107E-3
2.858557910E-1,1.114796288E-2,2.840439789E-2,-2.443389036E-3
2.955680830E-1,1.114796288E-2,2.962609194E-2,-1.099525020E-2
3.052812080E-1,1.114796288E-2,1.985253580E-2,-1.343864016E-2
3.149951140E-1,1.114796288E-2,-4.581354558E-3,-1.466033421E-2
3.247081350E-1,5.039489828E-3,-3.268032894E-2,-1.221694518E-2
3.344204270E-1,-4.734066315E-3,-4.734066129E-2,-7.330167107E-3
3.441335520E-1,-9.620844387E-3,-5.955760926E-2,-1.221694518E-3
3.538474580E-1,-1.084253844E-2,-6.322269142E-2,2.443389036E-3
3.635604790E-1,-7.177455351E-3,-5.955760926E-2,7.330167107E-3
3.732727700E-1,-4.734066315E-3,-5.711421743E-2,9.773556143E-3
3.829859480E-1,-3.512371797E-3,-5.955760926E-2,1.099525020E-2
3.926998020E-1,-4.734066315E-3,-6.444438547E-2,9.773556143E-3
4.024128230E-1,-3.512371797E-3,-5.955760926E-2,6.108472589E-3
4.121251140E-1,-2.290677279E-3,-4.367557913E-2,1.221694518E-3
4.218382910E-1,1.527118147E-4,-2.412846684E-2,-1.221694518E-3
4.315521450E-1,-1.068982761E-3,-5.803049076E-3,1.221694518E-3
4.412651660E-1,-3.512371797E-3,6.413896102E-3,2.443389036E-3
4.509775100E-1,-3.512371797E-3,7.635590620E-3,2.443389036E-3
4.606906350E-1,-1.068982761E-3,3.970507067E-3,-1.221694518E-3
4.704044890E-1,2.596100792E-3,-2.137965523E-3,-3.665083554E-3
4.801176140E-1,7.482878864E-3,-7.024743594E-3,-3.665083554E-3
4.898298540E-1,8.704573847E-3,-1.313321572E-2,1.221694518E-3
4.995429790E-1,6.261184346E-3,-3.512371704E-2,4.886778072E-3
5.092568850E-1,1.374406274E-3,-5.955760926E-2,7.330167107E-3
5.189699060E-1,-7.177455351E-3,-7.421794534E-2,7.330167107E-3
5.286821980E-1,-1.450762246E-2,-7.910472155E-2,4.886778072E-3
5.383953230E-1,-1.450762246E-2,-7.543963939E-2,0.000000000E0
5.481092290E-1,-4.734066315E-3,-5.955760926E-2,-3.665083554E-3
5.578222500E-1,7.482878864E-3,-3.756710514E-2,-3.665083554E-3
5.675345410E-1,1.603474095E-2,-1.557660475E-2,-1.221694518E-3
5.772477180E-1,2.336490713E-2,-5.803049076E-3,1.221694518E-3
5.869615730E-1,2.580829710E-2,8.857285604E-3,2.443389036E-3
5.966746980E-1,2.214321308E-2,2.351761982E-2,7.330167107E-3
6.063869370E-1,1.359135192E-2,1.985253580E-2,9.773556143E-3
6.161000620E-1,5.039489828E-3,1.527118147E-3,9.773556143E-3
6.258139160E-1,-1.068982761E-3,-1.801999472E-2,7.330167107E-3
6.355270410E-1,-4.734066315E-3,-3.268032894E-2,-1.221694518E-3
6.452392810E-1,-9.620844387E-3,-4.001049697E-2,-9.773556143E-3
6.549524060E-1,-1.206423342E-2,-3.634541109E-2,-1.588202827E-2
6.646663120E-1,-1.084253844E-2,-2.535016090E-2,-1.710372418E-2
6.743793330E-1,-8.399149403E-3,-8.246437646E-3,-1.466033421E-2
6.840916250E-1,-4.734066315E-3,6.413896102E-3,-9.773556143E-3
6.938048020E-1,1.527118147E-4,1.374406368E-2,-3.665083554E-3
7.035186560E-1,5.039489828E-3,1.374406368E-2,0.000000000E0
7.132317810E-1,8.704573847E-3,1.496575773E-2,1.221694518E-3
7.229440200E-1,1.359135192E-2,1.496575773E-2,0.000000000E0
7.326571450E-1,1.114796288E-2,1.863084175E-2,-2.443389036E-3
7.423710520E-1,5.039489828E-3,1.374406368E-2,-3.665083554E-3
7.520840730E-1,1.527118147E-4,-7.024743594E-3,-8.551862091E-3
7.617963640E-1,-1.068982761E-3,-1.924168877E-2,-9.773556143E-3
7.715095410E-1,1.527118147E-4,-1.801999472E-2,-8.551862091E-3
7.812233950E-1,1.374406274E-3,-1.435491070E-2,-9.773556143E-3
7.909365200E-1,1.374406274E-3,-5.803049076E-3,-7.330167107E-3
8.006487600E-1,3.817795310E-3,5.192201585E-3,-2.443389036E-3
8.103618850E-1,9.926267900E-3,1.740914769E-2,2.443389036E-3
8.200757910E-1,1.725643501E-2,2.473931387E-2,3.665083554E-3
8.297888120E-1,2.214321308E-2,3.084778599E-2,7.330167107E-3
8.395011040E-1,2.458660305E-2,3.084778599E-2,8.551862091E-3
8.492142810E-1,2.336490713E-2,2.596100792E-2,7.330167107E-3
8.589281350E-1,1.969982497E-2,2.351761982E-2,3.665083554E-3
8.686412600E-1,1.481304597E-2,2.351761982E-2,1.221694518E-3
8.783535000E-1,9.926267900E-3,2.473931387E-2,0.000000000E0
8.880666770E-1,6.261184346E-3,1.863084175E-2,2.443389036E-3
8.977805310E-1,1.374406274E-3,6.413896102E-3,4.886778072E-3
9.074935520E-1,-1.068982761E-3,3.054236295E-4,4.886778072E-3
9.172058950E-1,1.527118147E-4,5.192201585E-3,2.443389036E-3
9.269190200E-1,7.482878864E-3,1.863084175E-2,-1.221694518E-3
9.366329270E-1,1.725643501E-2,3.573456407E-2,0.000000000E0
9.463459480E-1,2.092151903E-2,3.939964995E-2,3.665083554E-3
9.560582390E-1,1.236965694E-2,2.840439789E-2,7.330167107E-3
9.657714160E-1,-3.512371797E-3,1.496575773E-2,8.551862091E-3
9.754853230E-1,-1.206423342E-2,1.252236869E-2,1.099525020E-2
9.851983430E-1,-1.572931744E-2,2.229592577E-2,1.221694518E-2
9.949106350E-1,-1.206423342E-2,2.596100792E-2,1.099525020E-2
1.004623812E0,-4.734066315E-3,1.740914769E-2,3.665083554E-3
1.014337666E0,3.817795310E-3,7.635590620E-3,-1.221694518E-3
1.024050791E0,6.261184346E-3,-2.137965523E-3,-6.108472589E-3
1.033763031E0,6.261184346E-3,-9.468132630E-3,-9.773556143E-3
1.043476208E0,1.527118147E-4,-1.313321572E-2,-8.551862091E-3
1.053190062E0,-5.955760833E-3,-1.801999472E-2,-7.330167107E-3
1.062903187E0,-7.177455351E-3,-1.801999472E-2,-8.551862091E-3
1.072615427E0,-5.955760833E-3,-2.046338283E-2,-9.773556143E-3
1.082328604E0,-7.177455351E-3,-1.924168877E-2,-1.099525020E-2
1.092042458E0,-7.177455351E-3,-1.557660475E-2,-1.221694518E-2
1.101755583E0,-3.512371797E-3,-1.313321572E-2,-1.099525020E-2
1.111467823E0,1.527118147E-4,-1.191152167E-2,-6.108472589E-3
1.121181000E0,1.527118147E-4,-1.191152167E-2,-1.221694518E-3
1.130894854E0,-2.290677279E-3,-1.191152167E-2,1.221694518E-3
1.140607979E0,-2.290677279E-3,-8.246437646E-3,-1.221694518E-3
1.150320218E0,7.482878864E-3,3.970507067E-3,-4.886778072E-3
1.160033395E0,2.580829710E-2,2.473931387E-2,-3.665083554E-3
1.169747302E0,3.924693540E-2,4.428642616E-2,1.221694518E-3
1.179460323E0,3.558185324E-2,4.795150831E-2,6.108472589E-3
1.189172614E0,1.847812906E-2,3.206948191E-2,1.343864016E-2
1.198885791E0,1.527118147E-4,1.130067464E-2,1.588202827E-2
1.208599698E0,-1.328592747E-2,3.054236295E-4,1.466033421E-2
1.218312718E0,-2.061609551E-2,-4.581354558E-3,1.221694518E-2
1.228025062E0,-2.061609551E-2,-1.313321572E-2,8.551862091E-3
1.237738187E0,-1.695101149E-2,-3.145863488E-2,3.665083554E-3
1.247452093E0,-1.817270555E-2,-4.367557913E-2,-2.443389036E-3
1.257165114E0,-1.450762246E-2,-5.222744122E-2,-9.773556143E-3
1.266877458E0,-5.955760833E-3,-5.100574717E-2,-1.343864016E-2
1.276590583E0,1.374406274E-3,-3.756710514E-2,-1.099525020E-2
1.286304489E0,2.596100792E-3,-2.657185495E-2,-1.221694518E-3
1.296017614E0,3.817795310E-3,-1.924168877E-2,9.773556143E-3
1.305729854E0,5.039489828E-3,-1.068982668E-2,1.099525020E-2
1.315443031E0,5.039489828E-3,8.857285604E-3,7.330167107E-3
1.325156885E0,2.596100792E-3,3.329117596E-2,2.443389036E-3
1.334870010E0,1.527118147E-4,4.428642616E-2,0.000000000E0
1.344582302E0,-4.734066315E-3,3.817795217E-2,-2.443389036E-3
1.354295427E0,-1.450762246E-2,2.473931387E-2,-1.221694518E-3
1.364009333E0,-1.939439960E-2,1.252236869E-2,-1.221694518E-3
1.373722354E0,-1.695101149E-2,5.192201585E-3,-4.886778072E-3
1.383434698E0,-1.328592747E-2,1.007897966E-2,-7.330167107E-3
1.393147875E0,-1.084253844E-2,1.985253580E-2,-9.773556143E-3
1.402861729E0,-7.177455351E-3,2.473931387E-2,-1.099525020E-2
1.412574854E0,-5.955760833E-3,2.351761982E-2,-9.773556143E-3
1.422287093E0,-2.290677279E-3,2.107422985E-2,-3.665083554E-3
1.432000270E0,5.039489828E-3,1.985253580E-2,1.221694518E-3
1.441714177E0,1.359135192E-2,2.107422985E-2,6.108472589E-3
1.451427198E0,1.359135192E-2,1.618745178E-2,8.551862091E-3
1.461139541E0,9.926267900E-3,8.857285604E-3,9.773556143E-3
1.470852666E0,6.261184346E-3,3.970507067E-3,8.551862091E-3
1.480566573E0,-2.290677279E-3,8.857285604E-3,4.886778072E-3
1.490279698E0,-9.620844387E-3,1.130067464E-2,3.665083554E-3
1.499991937E0,-1.328592747E-2,7.635590620E-3,3.665083554E-3
1.509705114E0,-1.206423342E-2,1.527118147E-3,0.000000000E0
1.519419020E0,-5.955760833E-3,1.527118147E-3,0.000000000E0
1.529132041E0,1.374406274E-3,1.130067464E-2,2.443389036E-3
1.538844385E0,-1.068982761E-3,2.473931387E-2,7.330167107E-3
1.548557562E0,-9.620844387E-3,3.084778599E-2,7.330167107E-3
1.558271416E0,-1.328592747E-2,2.840439789E-2,4.886778072E-3
1.567984541E0,-1.572931744E-2,2.840439789E-2,3.665083554E-3
1.577696781E0,-1.817270555E-2,3.451287001E-2,3.665083554E-3
1.587409958E0,-1.328592747E-2,3.573456407E-2,2.443389036E-3
1.597123864E0,-1.084253844E-2,4.428642616E-2,3.665083554E-3
1.606836989E0,1.527118147E-4,6.261184067E-2,6.108472589E-3
1.616549229E0,1.603474095E-2,5.039490014E-2,6.108472589E-3
1.626262406E0,2.092151903E-2,2.840439789E-2,2.443389036E-3
1.635976312E0,1.969982497E-2,1.130067464E-2,2.443389036E-3
1.645689333E0,2.214321308E-2,3.054236295E-4,9.773556143E-3
1.655401677E0,2.336490713E-2,-9.162708884E-4,1.466033421E-2
1.665114802E0,2.092151903E-2,3.054236295E-4,1.588202827E-2
1.674828708E0,1.359135192E-2,3.054236295E-4,1.343864016E-2
1.684541833E0,2.596100792E-3,-1.068982668E-2,9.773556143E-3
1.694254073E0,-9.620844387E-3,-2.412846684E-2,3.665083554E-3
1.703967250E0,-1.572931744E-2,-3.145863488E-2,-3.665083554E-3
1.713681156E0,-1.084253844E-2,-2.779355086E-2,-7.330167107E-3
1.723394177E0,-1.084253844E-2,-2.046338283E-2,-6.108472589E-3
1.733106520E0,-9.620844387E-3,-1.435491070E-2,-3.665083554E-3
1.742819698E0,-3.512371797E-3,3.970507067E-3,-1.221694518E-3
1.752533552E0,1.374406274E-3,2.962609194E-2,3.665083554E-3
1.762246677E0,5.039489828E-3,4.306473210E-2,1.221694518E-2
1.771958968E0,8.704573847E-3,4.672981426E-2,1.588202827E-2
1.781672093E0,1.236965694E-2,2.718270384E-2,1.710372418E-2
1.791386000E0,1.725643501E-2,8.857285604E-3,1.710372418E-2
1.801099125E0,1.847812906E-2,-3.359660041E-3,1.099525020E-2
1.810811364E0,2.336490713E-2,-1.191152167E-2,2.443389036E-3
1.820524541E0,2.825168520E-2,-1.191152167E-2,-4.886778072E-3
1.830238448E0,2.580829710E-2,-1.191152167E-2,-6.108472589E-3
1.839951468E0,1.969982497E-2,-2.168507688E-2,-7.330167107E-3
1.849663812E0,9.926267900E-3,-2.901524492E-2,-6.108472589E-3
1.859376989E0,2.596100792E-3,-2.901524492E-2,-6.108472589E-3
1.869090843E0,1.527118147E-4,-3.023693897E-2,-6.108472589E-3
1.878803968E0,1.527118147E-4,-3.756710514E-2,-8.551862091E-3
1.888516260E0,1.374406274E-3,-3.878879920E-2,-8.551862091E-3
1.898229385E0,1.527118147E-4,-3.268032894E-2,-8.551862091E-3
1.907943291E0,1.527118147E-4,-3.023693897E-2,-8.551862091E-3
1.917656416E0,6.261184346E-3,-3.756710514E-2,-7.330167107E-3
1.927368656E0,9.926267900E-3,-4.001049697E-2,-7.330167107E-3
1.937081833E0,9.926267900E-3,-3.023693897E-2,-7.330167107E-3
1.946795739E0,1.114796288E-2,-1.435491070E-2,-4.886778072E-3
1.956508760E0,1.725643501E-2,-5.803049076E-3,-1.221694518E-3
1.966221104E0,3.191677108E-2,-8.246437646E-3,1.221694518E-3
1.975934281E0,4.535540938E-2,-8.246437646E-3,4.886778072E-3
1.985648135E0,5.024218559E-2,-2.137965523E-3,7.330167107E-3
1.995361260E0,4.169032723E-2,1.007897966E-2,1.099525020E-2
2.005073552E0,3.558185324E-2,1.863084175E-2,1.343864016E-2
2.014786677E0,2.947338112E-2,2.229592577E-2,1.710372418E-2
2.024500583E0,2.580829710E-2,2.840439789E-2,2.076880634E-2
2.034213708E0,2.702999115E-2,2.718270384E-2,2.076880634E-2
2.043925948E0,3.069507517E-2,2.351761982E-2,1.832541823E-2
2.053639125E0,3.558185324E-2,2.229592577E-2,1.343864016E-2
2.063353031E0,3.436015919E-2,2.229592577E-2,9.773556143E-3
2.073066052E0,2.458660305E-2,1.007897966E-2,7.330167107E-3
2.082778395E0,1.114796288E-2,-2.137965523E-3,7.330167107E-3
2.092491573E0,-3.512371797E-3,-1.924168877E-2,3.665083554E-3
2.102205427E0,-1.450762246E-2,-3.145863488E-2,-2.443389036E-3
2.111918552E0,-2.183778957E-2,-3.268032894E-2,-8.551862091E-3
2.121630791E0,-2.305948362E-2,-3.145863488E-2,-1.466033421E-2
2.131343968E0,-1.939439960E-2,-2.535016090E-2,-1.710372418E-2
2.141057875E0,-1.084253844E-2,-2.046338283E-2,-1.343864016E-2
2.150771000E0,-1.068982761E-3,-2.168507688E-2,-6.108472589E-3
2.160483239E0,7.482878864E-3,-2.901524492E-2,0.000000000E0
2.170196416E0,1.236965694E-2,-2.290677279E-2,6.108472589E-3
2.179910323E0,9.926267900E-3,-1.557660475E-2,9.773556143E-3
2.189623343E0,6.261184346E-3,-1.557660475E-2,6.108472589E-3
2.199335687E0,1.374406274E-3,-1.679829881E-2,0.000000000E0
2.209048812E0,-3.512371797E-3,-1.191152167E-2,-6.108472589E-3
2.218762718E0,-8.399149403E-3,-9.162708884E-4,-8.551862091E-3
2.228475843E0,-1.572931744E-2,7.635590620E-3,-8.551862091E-3
2.238188083E0,-1.939439960E-2,2.748812549E-3,-7.330167107E-3
2.247901260E0,-2.183778957E-2,-9.468132630E-3,-3.665083554E-3
2.257615166E0,-1.817270555E-2,-2.412846684E-2,2.443389036E-3
2.267328187E0,-1.450762246E-2,-3.145863488E-2,6.108472589E-3
2.277040531E0,-1.206423342E-2,-2.657185495E-2,1.588202827E-2
2.286753708E0,-8.399149403E-3,-3.145863488E-2,2.321219631E-2
2.296467562E0,-3.512371797E-3,-3.512371704E-2,2.076880634E-2
2.306180687E0,1.236965694E-2,-3.512371704E-2,9.773556143E-3
2.315892927E0,3.069507517E-2,-2.168507688E-2,0.000000000E0
2.325606104E0,3.802524135E-2,-9.162708884E-4,-4.886778072E-3
2.335320010E0,3.313846514E-2,8.857285604E-3,-9.773556143E-3
2.345033135E0,2.458660305E-2,-3.359660041E-3,-1.343864016E-2
2.354745375E0,1.725643501E-2,-1.801999472E-2,-1.466033421E-2
2.364458552E0,1.481304597E-2,-2.779355086E-2,-1.221694518E-2
2.374172406E0,1.603474095E-2,-3.268032894E-2,-1.099525020E-2
2.383885531E0,1.725643501E-2,-2.901524492E-2,-8.551862091E-3
2.393597823E0,1.603474095E-2,-1.801999472E-2,-4.886778072E-3
2.403310948E0,1.481304597E-2,-3.359660041E-3,-1.221694518E-3
2.413024854E0,1.603474095E-2,7.635590620E-3,2.443389036E-3
2.422737979E0,1.725643501E-2,1.252236869E-2,7.330167107E-3
2.432450218E0,1.481304597E-2,5.192201585E-3,8.551862091E-3
2.442163395E0,9.926267900E-3,-2.137965523E-3,7.330167107E-3
2.451877250E0,5.039489828E-3,-9.162708884E-4,4.886778072E-3
2.461590375E0,6.261184346E-3,1.007897966E-2,2.443389036E-3
2.471302666E0,1.114796288E-2,1.740914769E-2,0.000000000E0
2.481015791E0,1.359135192E-2,2.107422985E-2,-3.665083554E-3
2.490729698E0,1.359135192E-2,1.985253580E-2,-6.108472589E-3
2.500442823E0,1.114796288E-2,1.374406368E-2,-1.099525020E-2
2.510155062E0,1.114796288E-2,8.857285604E-3,-1.221694518E-2
2.519868239E0,6.261184346E-3,1.527118147E-3,-1.343864016E-2
2.529582093E0,-2.290677279E-3,-1.557660475E-2,-1.221694518E-2
2.539295218E0,-9.620844387E-3,-3.756710514E-2,-7.330167107E-3
2.549007510E0,-1.695101149E-2,-5.711421743E-2,-3.665083554E-3
2.558720635E0,-2.672456764E-2,-7.177454978E-2,2.443389036E-3
2.568434541E0,-3.894151375E-2,-8.399149776E-2,1.099525020E-2
2.578147666E0,-4.260659590E-2,-9.009996802E-2,1.588202827E-2
2.587859906E0,-3.405473381E-2,-9.498675168E-2,2.076880634E-2
2.597573083E0,-1.450762246E-2,-9.009996802E-2,2.199050039E-2
2.607286937E0,6.261184346E-3,-6.810946763E-2,1.466033421E-2
2.617000062E0,2.336490713E-2,-4.489727318E-2,7.330167107E-3
2.626712302E0,3.924693540E-2,-3.268032894E-2,-4.886778072E-3
2.636425479E0,4.657710344E-2,-2.657185495E-2,-1.466033421E-2
2.646139385E0,4.413371533E-2,-1.435491070E-2,-2.321219631E-2
2.655852406E0,3.558185324E-2,-7.024743594E-3,-2.565558441E-2
2.665564750E0,2.092151903E-2,-9.468132630E-3,-2.687728032E-2
2.675277875E0,9.926267900E-3,-1.557660475E-2,-2.321219631E-2
2.684991781E0,9.926267900E-3,-1.801999472E-2,-1.954711229E-2
2.694704906E0,9.926267900E-3,-1.191152167E-2,-1.099525020E-2
2.704417145E0,6.261184346E-3,-7.024743594E-3,1.221694518E-3
2.714130323E0,2.596100792E-3,-8.246437646E-3,9.773556143E-3
2.723844229E0,2.596100792E-3,-1.191152167E-2,1.588202827E-2
2.733557250E0,5.039489828E-3,-1.435491070E-2,1.466033421E-2
2.743269541E0,3.817795310E-3,-7.024743594E-3,9.773556143E-3
2.752982718E0,-1.068982761E-3,2.748812549E-3,4.886778072E-3
2.762696625E0,-3.512371797E-3,6.413896102E-3,-3.665083554E-3
2.772409645E0,1.527118147E-4,1.130067464E-2,-1.099525020E-2
2.782121989E0,5.039489828E-3,1.863084175E-2,-1.588202827E-2
2.791835166E0,7.482878864E-3,1.618745178E-2,-1.954711229E-2
2.801549020E0,3.817795310E-3,6.413896102E-3,-1.343864016E-2
2.811262145E0,-2.290677279E-3,-3.359660041E-3,-2.443389036E-3
2.820974385E0,-3.512371797E-3,-3.359660041E-3,9.773556143E-3
2.830687562E0,-2.290677279E-3,1.496575773E-2,1.710372418E-2
2.840401416E0,-3.512371797E-3,3.695625812E-2,1.832541823E-2
2.850114541E0,-2.290677279E-3,5.161659420E-2,1.832541823E-2
2.859826781E0,1.527118147E-4,5.405998230E-2,1.710372418E-2
2.869539958E0,2.596100792E-3,5.650337040E-2,1.343864016E-2
2.879253864E0,2.596100792E-3,6.749862432E-2,8.551862091E-3
2.888966885E0,-2.290677279E-3,7.727217674E-2,3.665083554E-3
2.898679229E0,-7.177455351E-3,7.849387079E-2,0.000000000E0
2.908392354E0,-1.328592747E-2,7.360709459E-2,-2.443389036E-3
2.918106260E0,-1.695101149E-2,6.383354217E-2,-7.330167107E-3
2.927819385E0,-1.695101149E-2,5.528167635E-2,-1.466033421E-2
2.937531625E0,-1.450762246E-2,4.917320609E-2,-1.710372418E-2
2.947244802E0,-8.399149403E-3,4.428642616E-2,-1.832541823E-2
2.956958656E0,1.374406274E-3,3.695625812E-2,-1.710372418E-2
2.966671781E0,3.817795310E-3,3.084778599E-2,-1.343864016E-2
2.976384020E0,1.527118147E-4,2.351761982E-2,-7.330167107E-3
2.986097198E0,-4.734066315E-3,8.857285604E-3,-1.221694518E-3
2.995811104E0,-1.206423342E-2,-5.803049076E-3,4.886778072E-3
3.005524125E0,-1.695101149E-2,-1.068982668E-2,1.099525020E-2
3.015236416E0,-1.572931744E-2,-5.803049076E-3,1.221694518E-2
3.024949593E0,-1.328592747E-2,6.413896102E-3,1.221694518E-2
3.034663500E0,-1.206423342E-2,1.496575773E-2,9.773556143E-3
3.044376520E0,-1.084253844E-2,2.351761982E-2,3.665083554E-3
3.054088864E0,-1.206423342E-2,3.206948191E-2,-3.665083554E-3
3.063801989E0,-1.084253844E-2,3.817795217E-2,-9.773556143E-3
3.073515895E0,-9.620844387E-3,4.917320609E-2,-9.773556143E-3
3.083228916E0,-8.399149403E-3,4.795150831E-2,-7.330167107E-3
3.092941260E0,-4.734066315E-3,3.817795217E-2,-7.330167107E-3
3.102654385E0,-8.399149403E-3,3.695625812E-2,-4.886778072E-3
3.112368291E0,-1.695101149E-2,3.939964995E-2,0.000000000E0
3.122081416E0,-1.695101149E-2,2.718270384E-2,2.443389036E-3
3.131793656E0,-9.620844387E-3,7.635590620E-3,3.665083554E-3
3.141506833E0,-4.734066315E-3,3.054236295E-4,2.443389036E-3
3.151220687E0,1.374406274E-3,-3.359660041E-3,0.000000000E0
3.160933812E0,6.261184346E-3,-7.024743594E-3,-6.108472589E-3
3.170646052E0,3.817795310E-3,-1.068982668E-2,-7.330167107E-3
3.180359177E0,-7.177455351E-3,-1.801999472E-2,-3.665083554E-3
3.190073083E0,-1.328592747E-2,-3.023693897E-2,-1.221694518E-3
3.199786208E0,-1.817270555E-2,-3.634541109E-2,1.221694518E-3
3.209498448E0,-1.939439960E-2,-3.634541109E-2,1.221694518E-3
3.219211625E0,-1.572931744E-2,-3.512371704E-2,1.221694518E-3
3.228925479E0,-1.084253844E-2,-3.023693897E-2,0.000000000E0
3.238638604E0,-8.399149403E-3,-1.557660475E-2,2.443389036E-3
3.248350843E0,-1.328592747E-2,-1.068982668E-2,8.551862091E-3
3.258064020E0,-1.939439960E-2,-2.290677279E-2,9.773556143E-3
3.267777875E0,-2.061609551E-2,-3.145863488E-2,9.773556143E-3
3.277491000E0,-2.061609551E-2,-3.512371704E-2,9.773556143E-3
3.287203239E0,-1.939439960E-2,-3.390202299E-2,6.108472589E-3
3.296916416E0,-1.695101149E-2,-2.901524492E-2,2.443389036E-3
3.306630270E0,-9.620844387E-3,-2.046338283E-2,-6.108472589E-3
3.316343395E0,-1.068982761E-3,-1.191152167E-2,-9.773556143E-3
3.326055635E0,8.704573847E-3,-2.137965523E-3,-1.099525020E-2
3.335768812E0,9.926267900E-3,2.748812549E-3,-1.099525020E-2
3.345482666E0,9.926267900E-3,-4.581354558E-3,-7.330167107E-3
3.355195791E0,8.704573847E-3,-1.435491070E-2,0.000000000E0
3.364908031E0,7.482878864E-3,-2.290677279E-2,7.330167107E-3
3.374621208E0,5.039489828E-3,-2.779355086E-2,1.221694518E-2
3.384335062E0,3.817795310E-3,-3.145863488E-2,1.221694518E-2
3.394048187E0,2.596100792E-3,-3.023693897E-2,1.343864016E-2
3.403760427E0,2.596100792E-3,-2.657185495E-2,1.343864016E-2
3.413473604E0,7.482878864E-3,-1.801999472E-2,9.773556143E-3
3.423187458E0,9.926267900E-3,-3.359660041E-3,6.108472589E-3
3.432900583E0,8.704573847E-3,1.252236869E-2,0.000000000E0
3.442612823E0,5.039489828E-3,2.840439789E-2,-1.221694518E-3
3.452325948E0,1.527118147E-4,4.672981426E-2,-4.886778072E-3
3.462039854E0,-3.512371797E-3,5.894676223E-2,-2.443389036E-3
3.471752875E0,-7.177455351E-3,6.261184067E-2,3.665083554E-3
3.481465218E0,-8.399149403E-3,6.139015034E-2,9.773556143E-3
3.491178343E0,-8.399149403E-3,5.161659420E-2,9.773556143E-3
3.500892250E0,-8.399149403E-3,4.062134400E-2,8.551862091E-3
3.510605270E0,-4.734066315E-3,3.573456407E-2,4.886778072E-3
3.520317614E0,1.527118147E-4,3.695625812E-2,1.221694518E-3
3.530030739E0,1.374406274E-3,3.206948191E-2,-1.221694518E-3
3.539744645E0,1.527118147E-4,1.374406368E-2,-2.443389036E-3
3.549457666E0,2.596100792E-3,-1.191152167E-2,-3.665083554E-3
3.559170010E0,5.039489828E-3,-3.268032894E-2,-3.665083554E-3
3.568883135E0,2.596100792E-3,-4.489727318E-2,-4.886778072E-3
3.578597041E0,-2.290677279E-3,-4.611896724E-2,-4.886778072E-3
3.588310062E0,-8.399149403E-3,-4.001049697E-2,-2.443389036E-3
3.598022354E0,-1.572931744E-2,-3.145863488E-2,2.443389036E-3
3.607735531E0,-1.817270555E-2,-2.168507688E-2,8.551862091E-3
3.617449385E0,-1.084253844E-2,-1.191152167E-2,1.221694518E-2
3.627162510E0,-2.290677279E-3,3.970507067E-3,1.221694518E-2
3.636874750E0,2.596100792E-3,2.351761982E-2,9.773556143E-3
3.646587875E0,6.261184346E-3,3.939964995E-2,4.886778072E-3
3.656301781E0,7.482878864E-3,5.161659420E-2,1.221694518E-3
3.666014802E0,9.926267900E-3,5.894676223E-2,1.221694518E-3
3.675727145E0,9.926267900E-3,5.650337040E-2,2.443389036E-3
3.685440270E0,6.261184346E-3,4.306473210E-2,3.665083554E-3
3.695154177E0,1.527118147E-4,3.084778599E-2,7.330167107E-3
3.704867198E0,-3.512371797E-3,1.863084175E-2,9.773556143E-3
3.714579489E0,-2.290677279E-3,8.857285604E-3,1.343864016E-2
3.724292666E0,-1.068982761E-3,5.192201585E-3,1.588202827E-2
3.734006573E0,-2.290677279E-3,3.970507067E-3,1.466033421E-2
3.743719593E0,-1.068982761E-3,-4.581354558E-3,1.099525020E-2
3.753431885E0,3.817795310E-3,-2.046338283E-2,7.330167107E-3
3.763145062E0,7.482878864E-3,-2.901524492E-2,3.665083554E-3
3.772858916E0,8.704573847E-3,-3.390202299E-2,0.000000000E0
3.782572041E0,9.926267900E-3,-4.123219103E-2,-4.886778072E-3
3.792284281E0,9.926267900E-3,-4.367557913E-2,-9.773556143E-3
3.801997406E0,6.261184346E-3,-3.268032894E-2,-1.221694518E-2
3.811711312E0,1.374406274E-3,-1.679829881E-2,-1.221694518E-2
3.821424333E0,-5.955760833E-3,-7.024743594E-3,-7.330167107E-3
3.831136625E0,-1.328592747E-2,-5.803049076E-3,2.443389036E-3
3.840849802E0,-1.084253844E-2,-1.068982668E-2,7.330167107E-3
3.850563708E0,-2.290677279E-3,-4.581354558E-3,8.551862091E-3
3.860276729E0,7.482878864E-3,1.007897966E-2,6.108472589E-3
3.869989020E0,1.481304597E-2,1.985253580E-2,4.886778072E-3
3.879702198E0,1.603474095E-2,2.351761982E-2,3.665083554E-3
3.889416052E0,1.359135192E-2,1.985253580E-2,3.665083554E-3
3.899129073E0,9.926267900E-3,1.985253580E-2,4.886778072E-3
3.908841416E0,7.482878864E-3,1.496575773E-2,4.886778072E-3
3.918554541E0,3.817795310E-3,3.970507067E-3,4.886778072E-3
3.928268448E0,-2.290677279E-3,-9.468132630E-3,2.443389036E-3
3.937981468E0,-5.955760833E-3,-1.557660475E-2,1.221694518E-3
3.947693760E0,-5.955760833E-3,-1.435491070E-2,0.000000000E0
3.957406937E0,-1.068982761E-3,-1.557660475E-2,-3.665083554E-3
3.967120791E0,1.374406274E-3,-1.557660475E-2,-2.443389036E-3
3.976833916E0,-1.068982761E-3,-1.068982668E-2,1.221694518E-3
3.986546156E0,-7.177455351E-3,-8.246437646E-3,3.665083554E-3
3.996259281E0,-9.620844387E-3,-2.137965523E-3,3.665083554E-3
4.005973187E0,-4.734066315E-3,6.413896102E-3,-1.221694518E-3
4.015686208E0,8.704573847E-3,2.229592577E-2,-7.330167107E-3
4.025398552E0,1.725643501E-2,3.573456407E-2,-9.773556143E-3
4.035111677E0,1.725643501E-2,3.451287001E-2,-1.099525020E-2
4.044825531E0,8.704573847E-3,2.473931387E-2,-1.099525020E-2
4.054538656E0,1.527118147E-4,1.374406368E-2,-1.099525020E-2
4.064250895E0,-2.290677279E-3,3.054236295E-4,-8.551862091E-3
4.073964073E0,-2.290677279E-3,-8.246437646E-3,-6.108472589E-3
4.083677927E0,1.374406274E-3,-8.246437646E-3,-4.886778072E-3
4.093390948E0,3.817795310E-3,-9.162708884E-4,-1.221694518E-3
4.103103291E0,5.039489828E-3,1.527118147E-3,2.443389036E-3
4.112816416E0,7.482878864E-3,7.635590620E-3,6.108472589E-3
4.122530270E0,6.261184346E-3,1.130067464E-2,7.330167107E-3
4.132243395E0,3.817795310E-3,7.635590620E-3,4.886778072E-3
4.141955635E0,-4.734066315E-3,7.635590620E-3,6.108472589E-3
4.151668812E0,-1.450762246E-2,3.970507067E-3,6.108472589E-3
4.161382666E0,-2.305948362E-2,-5.803049076E-3,6.108472589E-3
4.171095687E0,-2.672456764E-2,-9.468132630E-3,3.665083554E-3
4.180808031E0,-2.672456764E-2,-5.803049076E-3,-1.221694518E-3
4.190521156E0,-2.305948362E-2,-3.359660041E-3,-7.330167107E-3
4.200235062E0,-1.206423342E-2,-2.137965523E-3,-1.221694518E-2
4.209948083E0,1.374406274E-3,2.748812549E-3,-1.099525020E-2
4.219660375E0,8.704573847E-3,1.130067464E-2,-4.886778072E-3
4.229373552E0,1.481304597E-2,1.374406368E-2,0.000000000E0
4.239087406E0,1.603474095E-2,3.970507067E-3,6.108472589E-3
4.248800427E0,1.359135192E-2,-9.468132630E-3,1.221694518E-2
4.258512770E0,1.236965694E-2,-2.290677279E-2,1.710372418E-2
4.268225895E0,1.114796288E-2,-2.779355086E-2,1.832541823E-2
4.277939750E0,8.704573847E-3,-3.145863488E-2,1.832541823E-2
4.287652875E0,1.374406274E-3,-3.878879920E-2,1.832541823E-2
4.297365114E0,-7.177455351E-3,-4.856235534E-2,1.832541823E-2
4.307078291E0,-1.450762246E-2,-5.833591148E-2,1.954711229E-2
4.316792145E0,-1.450762246E-2,-6.566607952E-2,1.588202827E-2
4.326505166E0,-7.177455351E-3,-6.688777357E-2,9.773556143E-3
4.336217510E0,2.596100792E-3,-5.467082933E-2,6.108472589E-3
4.345930635E0,1.236965694E-2,-4.001049697E-2,2.443389036E-3
4.355644489E0,2.336490713E-2,-3.023693897E-2,-2.443389036E-3
4.365357614E0,2.947338112E-2,-1.679829881E-2,-4.886778072E-3
4.375069854E0,3.191677108E-2,-8.246437646E-3,-2.443389036E-3
4.384782979E0,2.947338112E-2,-1.435491070E-2,-1.221694518E-3
4.394496885E0,2.458660305E-2,-3.268032894E-2,-1.221694518E-3
4.404209906E0,2.092151903E-2,-4.734066129E-2,1.221694518E-3
4.413922198E0,1.725643501E-2,-5.467082933E-2,3.665083554E-3
4.423635375E0,1.481304597E-2,-6.077930331E-2,2.443389036E-3
4.433349229E0,8.704573847E-3,-6.200099736E-2,1.221694518E-3
4.443062250E0,1.374406274E-3,-6.077930331E-2,3.665083554E-3
4.452774593E0,-7.177455351E-3,-6.200099736E-2,1.221694518E-3
4.462487718E0,-1.328592747E-2,-6.566607952E-2,-2.443389036E-3
4.472201625E0,-1.695101149E-2,-6.077930331E-2,-1.099525020E-2
4.481914645E0,-1.572931744E-2,-4.489727318E-2,-1.343864016E-2
4.491626937E0,-9.620844387E-3,-2.412846684E-2,-1.710372418E-2
4.501340062E0,-4.734066315E-3,-9.162708884E-4,-2.199050039E-2
4.511053968E0,-2.290677279E-3,1.007897966E-2,-2.443389036E-2
4.520766989E0,2.596100792E-3,5.192201585E-3,-2.076880634E-2
4.530479281E0,6.261184346E-3,-5.803049076E-3,-1.588202827E-2
4.540192458E0,7.482878864E-3,-1.068982668E-2,-9.773556143E-3
4.549906312E0,7.482878864E-3,-1.191152167E-2,-3.665083554E-3
4.559619437E0,6.261184346E-3,-1.068982668E-2,-2.443389036E-3
4.569331677E0,2.596100792E-3,-5.803049076E-3,-1.221694518E-3
4.579044802E0,1.527118147E-4,2.748812549E-3,2.443389036E-3
4.588758708E0,1.374406274E-3,5.192201585E-3,4.886778072E-3
4.598471729E0,7.482878864E-3,1.496575773E-2,4.886778072E-3
4.608184020E0,1.236965694E-2,3.451287001E-2,2.443389036E-3
4.617897198E0,1.481304597E-2,4.795150831E-2,2.443389036E-3
4.627611052E0,1.114796288E-2,5.161659420E-2,1.221694518E-3
4.637324073E0,5.039489828E-3,5.161659420E-2,1.221694518E-3
4.647036416E0,1.527118147E-4,4.795150831E-2,2.443389036E-3
4.656749541E0,-3.512371797E-3,3.939964995E-2,1.221694518E-3
4.666463395E0,-4.734066315E-3,2.840439789E-2,0.000000000E0
4.676176520E0,-4.734066315E-3,1.618745178E-2,-3.665083554E-3
4.685888760E0,-4.734066315E-3,1.007897966E-2,-8.551862091E-3
4.695601885E0,-1.068982761E-3,1.374406368E-2,-8.551862091E-3
4.705315791E0,1.374406274E-3,2.840439789E-2,-4.886778072E-3
4.715028812E0,2.596100792E-3,3.573456407E-2,-1.221694518E-3
4.724741104E0,1.374406274E-3,4.550812021E-2,2.443389036E-3
4.734454281E0,2.596100792E-3,5.650337040E-2,7.330167107E-3
4.744168135E0,8.704573847E-3,5.161659420E-2,1.221694518E-2
4.753881156E0,5.039489828E-3,4.550812021E-2,1.221694518E-2
4.763593500E0,-7.177455351E-3,3.695625812E-2,1.343864016E-2
4.773306625E0,-1.206423342E-2,2.229592577E-2,1.221694518E-2
4.783020479E0,-1.206423342E-2,1.740914769E-2,8.551862091E-3
4.792733604E0,-1.450762246E-2,1.496575773E-2,4.886778072E-3
4.802445843E0,-1.084253844E-2,5.192201585E-3,0.000000000E0
4.812158968E0,-9.620844387E-3,-9.468132630E-3,0.000000000E0
4.821872875E0,-5.955760833E-3,-2.779355086E-2,-1.221694518E-3
4.831585895E0,1.374406274E-3,-3.756710514E-2,-4.886778072E-3
4.841298187E0,1.114796288E-2,-2.290677279E-2,-8.551862091E-3
4.851011364E0,2.092151903E-2,2.748812549E-3,-8.551862091E-3
4.860725218E0,2.702999115E-2,1.863084175E-2,-4.886778072E-3
4.870438239E0,2.458660305E-2,2.107422985E-2,0.000000000E0
4.880150583E0,1.603474095E-2,1.496575773E-2,4.886778072E-3
4.889863708E0,1.359135192E-2,7.635590620E-3,7.330167107E-3
4.899577562E0,7.482878864E-3,2.748812549E-3,9.773556143E-3
4.909290687E0,-2.290677279E-3,-9.162708884E-4,8.551862091E-3
4.919002927E0,-1.328592747E-2,-4.581354558E-3,3.665083554E-3
4.928716052E0,-1.939439960E-2,-3.359660041E-3,-6.108472589E-3
4.938429958E0,-2.061609551E-2,-4.581354558E-3,-1.588202827E-2
4.948142979E0,-2.061609551E-2,-9.468132630E-3,-2.199050039E-2
4.957855270E0,-2.305948362E-2,-2.290677279E-2,-1.954711229E-2
4.967568395E0,-2.916795574E-2,-3.878879920E-2,-1.221694518E-2
4.977282302E0,-3.527642787E-2,-5.222744122E-2,-3.665083554E-3
4.986995323E0,-3.894151375E-2,-6.322269142E-2,2.443389036E-3
4.996707614E0,-4.016320780E-2,-6.933116168E-2,7.330167107E-3
5.006420791E0,-4.138490185E-2,-7.666133344E-2,1.099525020E-2
5.016134645E0,-4.016320780E-2,-8.765657991E-2,8.551862091E-3
5.025847666E0,-3.649812192E-2,-9.254335612E-2,1.221694518E-3
5.035560010E0,-3.161134571E-2,-8.521319181E-2,-9.773556143E-3
5.045273135E0,-2.428117767E-2,-6.444438547E-2,-2.199050039E-2
5.054986989E0,-1.572931744E-2,-4.245388508E-2,-2.932066843E-2
5.064700114E0,-9.620844387E-3,-2.412846684E-2,-3.665083647E-2
5.074412354E0,-3.512371797E-3,-8.246437646E-3,-3.542914242E-2
5.084125479E0,3.817795310E-3,1.527118147E-3,-2.687728032E-2
5.093839385E0,1.236965694E-2,7.635590620E-3,-1.588202827E-2
5.103552406E0,1.847812906E-2,1.740914769E-2,-1.221694518E-3
5.113264698E0,2.336490713E-2,2.962609194E-2,1.221694518E-2
5.122977875E0,2.702999115E-2,3.573456407E-2,1.832541823E-2
5.132691729E0,2.825168520E-2,3.939964995E-2,2.076880634E-2
5.142404750E0,2.214321308E-2,4.672981426E-2,1.954711229E-2
5.152117093E0,1.481304597E-2,5.039490014E-2,1.221694518E-2
5.161830218E0,1.359135192E-2,5.039490014E-2,6.108472589E-3
5.171544073E0,7.482878864E-3,5.283828825E-2,1.221694518E-3
5.181257198E0,-2.290677279E-3,5.283828825E-2,-3.665083554E-3
5.190969437E0,-1.328592747E-2,4.917320609E-2,-9.773556143E-3
5.200682562E0,-1.817270555E-2,5.039490014E-2,-9.773556143E-3
5.210396468E0,-1.328592747E-2,5.161659420E-2,-1.099525020E-2
5.220109489E0,-4.734066315E-3,5.161659420E-2,-1.099525020E-2
5.229821781E0,1.527118147E-4,4.795150831E-2,-4.886778072E-3
5.239534958E0,7.482878864E-3,4.062134400E-2,2.443389036E-3
5.249248812E0,1.359135192E-2,3.817795217E-2,8.551862091E-3
5.258961833E0,1.725643501E-2,4.306473210E-2,9.773556143E-3
5.268674177E0,1.725643501E-2,4.306473210E-2,9.773556143E-3
5.278387302E0,1.481304597E-2,3.817795217E-2,7.330167107E-3
5.288101156E0,1.114796288E-2,2.840439789E-2,2.443389036E-3
5.297814281E0,3.817795310E-3,2.107422985E-2,-1.221694518E-3
5.307526520E0,-9.620844387E-3,1.618745178E-2,-3.665083554E-3
5.317239645E0,-2.672456764E-2,7.635590620E-3,-7.330167107E-3
5.326953552E0,-4.016320780E-2,3.970507067E-3,-1.343864016E-2
5.336666573E0,-4.016320780E-2,5.192201585E-3,-1.710372418E-2
5.346378864E0,-2.916795574E-2,7.635590620E-3,-1.832541823E-2
5.356092041E0,-1.328592747E-2,6.413896102E-3,-1.954711229E-2
5.365805895E0,-5.955760833E-3,1.374406368E-2,-1.710372418E-2
5.375518916E0,-7.177455351E-3,2.596100792E-2,-9.773556143E-3
5.385231260E0,-9.620844387E-3,2.596100792E-2,0.000000000E0
5.394944385E0,-3.512371797E-3,1.618745178E-2,4.886778072E-3
5.404658291E0,9.926267900E-3,1.130067464E-2,6.108472589E-3
5.414371312E0,1.847812906E-2,1.374406368E-2,6.108472589E-3
5.424083604E0,2.702999115E-2,8.857285604E-3,3.665083554E-3
5.433796729E0,2.825168520E-2,-3.359660041E-3,2.443389036E-3
5.443510635E0,2.336490713E-2,-1.801999472E-2,1.221694518E-3
5.453223656E0,1.969982497E-2,-2.901524492E-2,0.000000000E0
5.462935948E0,1.236965694E-2,-3.390202299E-2,0.000000000E0
5.472649125E0,3.817795310E-3,-4.001049697E-2,-1.221694518E-3
5.482362979E0,-5.955760833E-3,-4.734066129E-2,-4.886778072E-3
5.492076104E0,-1.206423342E-2,-5.100574717E-2,-9.773556143E-3
5.501788343E0,-1.206423342E-2,-4.978405312E-2,-1.221694518E-2
5.511501468E0,-8.399149403E-3,-4.367557913E-2,-1.099525020E-2
5.521215375E0,-2.290677279E-3,-3.268032894E-2,-6.108472589E-3
5.530928395E0,7.482878864E-3,-3.023693897E-2,-2.443389036E-3
5.540640687E0,8.704573847E-3,-3.268032894E-2,0.000000000E0
5.550353864E0,5.039489828E-3,-3.390202299E-2,2.443389036E-3
5.560067718E0,1.374406274E-3,-3.390202299E-2,3.665083554E-3
5.569780739E0,2.596100792E-3,-3.390202299E-2,2.443389036E-3
5.579493083E0,2.596100792E-3,-3.756710514E-2,0.000000000E0
5.589206208E0,-1.068982761E-3,-3.756710514E-2,0.000000000E0
5.598920114E0,-1.084253844E-2,-3.145863488E-2,-2.443389036E-3
5.608633135E0,-1.206423342E-2,-2.168507688E-2,-4.886778072E-3
5.618345427E0,-9.620844387E-3,-1.435491070E-2,-7.330167107E-3
5.628058552E0,-8.399149403E-3,-8.246437646E-3,-8.551862091E-3
5.637772458E0,-1.084253844E-2,-7.024743594E-3,-6.108472589E-3
5.647485479E0,-1.572931744E-2,-1.435491070E-2,-3.665083554E-3
5.657197823E0,-1.817270555E-2,-2.412846684E-2,-3.665083554E-3
5.666910948E0,-1.695101149E-2,-3.268032894E-2,-4.886778072E-3
5.676624802E0,-1.572931744E-2,-3.145863488E-2,-6.108472589E-3
5.686337927E0,-1.328592747E-2,-2.168507688E-2,-6.108472589E-3
5.696050166E0,-7.177455351E-3,-1.435491070E-2,-8.551862091E-3
5.705763291E0,-1.068982761E-3,-9.468132630E-3,-1.099525020E-2
5.715477198E0,5.039489828E-3,-3.359660041E-3,-1.099525020E-2
5.725190218E0,7.482878864E-3,3.970507067E-3,-7.330167107E-3
5.734902510E0,6.261184346E-3,1.007897966E-2,-4.886778072E-3
5.744615687E0,6.261184346E-3,1.374406368E-2,0.000000000E0
5.754329541E0,3.817795310E-3,2.351761982E-2,6.108472589E-3
5.764042666E0,1.374406274E-3,2.718270384E-2,9.773556143E-3
5.773754906E0,-1.068982761E-3,1.252236869E-2,1.099525020E-2
5.783468031E0,1.374406274E-3,-3.359660041E-3,1.099525020E-2
5.793181937E0,3.817795310E-3,-5.803049076E-3,9.773556143E-3
5.802894958E0,6.261184346E-3,2.748812549E-3,4.886778072E-3
5.812607250E0,7.482878864E-3,1.374406368E-2,-3.665083554E-3
5.822320427E0,7.482878864E-3,2.351761982E-2,-1.099525020E-2
5.832034281E0,5.039489828E-3,2.962609194E-2,-1.466033421E-2
5.841747302E0,-1.068982761E-3,2.473931387E-2,-1.588202827E-2
5.851459645E0,-7.177455351E-3,1.252236869E-2,-1.343864016E-2
5.861172770E0,-1.084253844E-2,1.527118147E-3,-9.773556143E-3
5.870886625E0,-1.084253844E-2,-1.191152167E-2,-6.108472589E-3
5.880599750E0,-5.955760833E-3,-2.535016090E-2,-3.665083554E-3
5.890311989E0,1.527118147E-4,-3.023693897E-2,-2.443389036E-3
5.900025114E0,3.817795310E-3,-2.168507688E-2,3.665083554E-3
5.909739020E0,1.374406274E-3,-8.246437646E-3,1.099525020E-2
5.919452041E0,3.817795310E-3,-4.581354558E-3,1.343864016E-2
5.929164385E0,8.704573847E-3,-2.137965523E-3,1.221694518E-2
5.938877510E0,1.359135192E-2,6.413896102E-3,8.551862091E-3
5.948591364E0,2.214321308E-2,1.252236869E-2,6.108472589E-3
5.958304489E0,2.825168520E-2,8.857285604E-3,3.665083554E-3
5.968016729E0,3.191677108E-2,6.413896102E-3,-3.665083554E-3
5.977729854E0,3.191677108E-2,1.374406368E-2,-6.108472589E-3
5.987443760E0,2.458660305E-2,1.374406368E-2,-3.665083554E-3
5.997156781E0,1.114796288E-2,-5.803049076E-3,0.000000000E0
6.006869073E0,-5.955760833E-3,-2.779355086E-2,3.665083554E-3
6.016582250E0,-2.305948362E-2,-4.367557913E-2,6.108472589E-3
6.026296104E0,-3.771981969E-2,-5.222744122E-2,7.330167107E-3
6.036009125E0,-4.504998401E-2,-5.589252338E-2,7.330167107E-3
6.045721468E0,-4.993676394E-2,-5.711421743E-2,7.330167107E-3
6.055434593E0,-4.504998401E-2,-5.711421743E-2,3.665083554E-3
6.065148448E0,-3.405473381E-2,-4.856235534E-2,1.221694518E-3
6.074861573E0,-1.328592747E-2,-2.779355086E-2,-7.330167107E-3
6.084573812E0,3.817795310E-3,-4.581354558E-3,-1.588202827E-2
6.094286937E0,1.847812906E-2,1.130067464E-2,-1.710372418E-2
6.104000843E0,2.580829710E-2,1.496575773E-2,-7.330167107E-3
6.113713864E0,2.092151903E-2,1.618745178E-2,6.108472589E-3
6.123426156E0,7.482878864E-3,7.635590620E-3,1.710372418E-2
6.133139333E0,-7.177455351E-3,3.054236295E-4,2.199050039E-2
6.142853187E0,-1.572931744E-2,1.007897966E-2,2.076880634E-2
6.152566312E0,-1.817270555E-2,3.329117596E-2,1.588202827E-2
6.162278552E0,-1.817270555E-2,5.405998230E-2,4.886778072E-3
6.171991677E0,-1.206423342E-2,5.161659420E-2,-9.773556143E-3
6.181705531E0,-1.068982761E-3,3.939964995E-2,-1.710372418E-2
6.191418656E0,2.596100792E-3,3.695625812E-2,-1.588202827E-2
6.201130895E0,-4.734066315E-3,3.329117596E-2,-1.221694518E-2
6.210844020E0,-1.450762246E-2,2.107422985E-2,-8.551862091E-3
6.220557927E0,-2.183778957E-2,1.007897966E-2,-2.443389036E-3
6.230270948E0,-2.428117767E-2,3.054236295E-4,1.221694518E-3
6.239983239E0,-1.572931744E-2,-5.803049076E-3,0.000000000E0
6.249696416E0,-3.512371797E-3,-1.191152167E-2,0.000000000E0
6.259410270E0,7.482878864E-3,-2.046338283E-2,-1.221694518E-3
6.269123291E0,1.481304597E-2,-2.901524492E-2,-3.665083554E-3
6.278835635E0,1.359135192E-2,-3.268032894E-2,-7.330167107E-3
6.288548760E0,5.039489828E-3,-3.512371704E-2,-1.099525020E-2
6.298262614E0,1.527118147E-4,-3.634541109E-2,-1.466033421E-2
6.307975739E0,1.527118147E-4,-3.634541109E-2,-1.466033421E-2
6.317687979E0,1.374406274E-3,-3.512371704E-2,-1.221694518E-2
6.327401104E0,8.704573847E-3,-3.268032894E-2,-1.099525020E-2
6.337115010E0,1.725643501E-2,-2.901524492E-2,-9.773556143E-3
6.346828031E0,1.725643501E-2,-2.168507688E-2,-1.099525020E-2
6.356540323E0,1.236965694E-2,-1.924168877E-2,-9.773556143E-3
6.366253500E0,1.236965694E-2,-1.679829881E-2,-6.108472589E-3
6.375967354E0,7.482878864E-3,-1.435491070E-2,0.000000000E0
6.385680375E0,-1.068982761E-3,-1.557660475E-2,3.665083554E-3
6.395392666E0,-3.512371797E-3,-1.924168877E-2,6.108472589E-3
6.405105843E0,1.527118147E-4,-1.557660475E-2,8.551862091E-3
6.414819698E0,8.704573847E-3,-8.246437646E-3,9.773556143E-3
6.424532718E0,1.725643501E-2,2.748812549E-3,8.551862091E-3
6.434245062E0,2.458660305E-2,1.252236869E-2,6.108472589E-3
6.443958187E0,2.702999115E-2,1.863084175E-2,4.886778072E-3
6.453672093E0,2.458660305E-2,1.740914769E-2,2.443389036E-3
6.463385114E0,1.725643501E-2,1.007897966E-2,1.221694518E-3
6.473097406E0,7.482878864E-3,2.748812549E-3,0.000000000E0
6.482810531E0,1.374406274E-3,-3.359660041E-3,-1.221694518E-3
6.492524437E0,1.527118147E-4,-1.801999472E-2,-4.886778072E-3
6.502237458E0,5.039489828E-3,-3.512371704E-2,-1.099525020E-2
6.511949750E0,6.261184346E-3,-3.756710514E-2,-1.343864016E-2
6.521662875E0,2.596100792E-3,-3.145863488E-2,-9.773556143E-3
6.531376781E0,-4.734066315E-3,-2.412846684E-2,-3.665083554E-3
6.541089802E0,-9.620844387E-3,-2.168507688E-2,4.886778072E-3
6.550802145E0,-9.620844387E-3,-1.679829881E-2,1.221694518E-2
6.560515270E0,-5.955760833E-3,-8.246437646E-3,1.099525020E-2
6.570229125E0,-4.734066315E-3,6.413896102E-3,4.886778072E-3
6.579942145E0,-5.955760833E-3,1.740914769E-2,0.000000000E0
6.589654489E0,-3.512371797E-3,1.740914769E-2,-6.108472589E-3
6.599367614E0,-3.512371797E-3,2.351761982E-2,-9.773556143E-3
6.609081468E0,-4.734066315E-3,2.840439789E-2,-9.773556143E-3
6.618794593E0,-8.399149403E-3,3.206948191E-2,-8.551862091E-3
6.628506833E0,-9.620844387E-3,3.573456407E-2,-7.330167107E-3
6.638219958E0,-4.734066315E-3,4.062134400E-2,-2.443389036E-3
6.647933864E0,5.039489828E-3,3.817795217E-2,1.221694518E-3
6.657646885E0,1.236965694E-2,3.084778599E-2,0.000000000E0
6.667359177E0,1.603474095E-2,2.229592577E-2,0.000000000E0
6.677072302E0,2.092151903E-2,1.740914769E-2,3.665083554E-3
6.686786208E0,2.458660305E-2,5.192201585E-3,8.551862091E-3
6.696499229E0,1.969982497E-2,-1.435491070E-2,9.773556143E-3
6.706211520E0,1.114796288E-2,-3.390202299E-2,1.099525020E-2
6.715924698E0,5.039489828E-3,-3.756710514E-2,1.099525020E-2
6.725638552E0,1.527118147E-4,-2.657185495E-2,1.221694518E-2
6.735351573E0,-2.290677279E-3,-1.435491070E-2,9.773556143E-3
6.745063864E0,-1.068982761E-3,1.527118147E-3,4.886778072E-3
6.754777041E0,1.527118147E-4,7.635590620E-3,-2.443389036E-3
6.764490895E0,-1.068982761E-3,2.748812549E-3,-6.108472589E-3
6.774203916E0,-7.177455351E-3,5.192201585E-3,-8.551862091E-3
6.783916260E0,-1.206423342E-2,1.252236869E-2,-8.551862091E-3
6.793629385E0,-1.572931744E-2,1.985253580E-2,-7.330167107E-3
6.803343239E0,-1.328592747E-2,2.107422985E-2,-4.886778072E-3
6.813056260E0,-7.177455351E-3,1.496575773E-2,2.443389036E-3
6.822768604E0,-5.955760833E-3,3.970507067E-3,7.330167107E-3
6.832481729E0,-7.177455351E-3,-5.803049076E-3,7.330167107E-3
6.842195583E0,-3.512371797E-3,-5.803049076E-3,4.886778072E-3
6.851908708E0,2.596100792E-3,6.413896102E-3,3.665083554E-3
6.861620948E0,6.261184346E-3,1.985253580E-2,3.665083554E-3
6.871334073E0,9.926267900E-3,2.351761982E-2,3.665083554E-3
6.881047927E0,1.603474095E-2,1.985253580E-2,2.443389036E-3
6.890761052E0,1.114796288E-2,1.496575773E-2,2.443389036E-3
6.900473291E0,3.817795310E-3,7.635590620E-3,-2.443389036E-3
6.910186416E0,-1.068982761E-3,-3.359660041E-3,-4.886778072E-3
6.919900323E0,-7.177455351E-3,-4.581354558E-3,-3.665083554E-3
6.929613343E0,-1.206423342E-2,-4.581354558E-3,-3.665083554E-3
6.939325635E0,-1.450762246E-2,-5.803049076E-3,-3.665083554E-3
6.949038760E0,-1.328592747E-2,-2.137965523E-3,-2.443389036E-3
6.958752666E0,-9.620844387E-3,5.192201585E-3,-1.221694518E-3
6.968465687E0,-7.177455351E-3,1.252236869E-2,1.221694518E-3
6.978177979E0,-3.512371797E-3,1.985253580E-2,0.000000000E0
6.987891104E0,1.374406274E-3,2.351761982E-2,-1.221694518E-3
6.997605010E0,5.039489828E-3,2.473931387E-2,-2.443389036E-3
7.007318031E0,6.261184346E-3,2.473931387E-2,-2.443389036E-3
7.017030323E0,9.926267900E-3,2.596100792E-2,-2.443389036E-3
7.026743448E0,9.926267900E-3,2.596100792E-2,-3.665083554E-3
7.036457354E0,1.114796288E-2,2.718270384E-2,-6.108472589E-3
7.046170375E0,1.359135192E-2,3.084778599E-2,-8.551862091E-3
7.055882666E0,9.926267900E-3,3.329117596E-2,-8.551862091E-3
7.065595791E0,8.704573847E-3,2.596100792E-2,-6.108472589E-3
7.075309698E0,7.482878864E-3,1.496575773E-2,0.000000000E0
7.085022718E0,3.817795310E-3,5.192201585E-3,2.443389036E-3
7.094735010E0,-1.068982761E-3,-2.137965523E-3,4.886778072E-3
7.104448135E0,-7.177455351E-3,-1.191152167E-2,4.886778072E-3
7.114162041E0,-1.084253844E-2,-1.924168877E-2,6.108472589E-3
7.123875062E0,-1.450762246E-2,-2.290677279E-2,4.886778072E-3
7.133587354E0,-1.939439960E-2,-2.535016090E-2,2.443389036E-3
7.143300479E0,-1.817270555E-2,-2.779355086E-2,1.221694518E-3
7.153014385E0,-7.177455351E-3,-2.657185495E-2,-2.443389036E-3
7.162727406E0,3.817795310E-3,-1.924168877E-2,-7.330167107E-3
7.172439698E0,7.482878864E-3,-8.246437646E-3,-8.551862091E-3
7.182152823E0,6.261184346E-3,-3.359660041E-3,-4.886778072E-3
7.191866729E0,2.596100792E-3,-5.803049076E-3,-1.221694518E-3
7.201579750E0,1.527118147E-4,-1.191152167E-2,4.886778072E-3
7.211292041E0,1.374406274E-3,-1.801999472E-2,7.330167107E-3
7.221005166E0,2.596100792E-3,-2.412846684E-2,2.443389036E-3
7.230719073E0,5.039489828E-3,-2.412846684E-2,-3.665083554E-3
7.240432093E0,8.704573847E-3,-2.535016090E-2,-2.443389036E-3
7.250144385E0,7.482878864E-3,-3.023693897E-2,-3.665083554E-3
7.259857510E0,3.817795310E-3,-3.756710514E-2,-3.665083554E-3
7.269571416E0,1.374406274E-3,-4.001049697E-2,-2.443389036E-3
7.279284437E0,-1.068982761E-3,-3.145863488E-2,-1.221694518E-3
7.288996729E0,-2.290677279E-3,-1.435491070E-2,0.000000000E0
7.298709854E0,-3.512371797E-3,3.054236295E-4,2.443389036E-3
7.308423760E0,-3.512371797E-3,3.970507067E-3,4.886778072E-3
7.318136781E0,1.374406274E-3,-3.359660041E-3,1.221694518E-3
7.327849073E0,7.482878864E-3,-9.468132630E-3,-4.886778072E-3
7.337562198E0,1.725643501E-2,-8.246437646E-3,-1.343864016E-2
7.347276104E0,3.436015919E-2,6.413896102E-3,-2.199050039E-2
7.356989125E0,4.657710344E-2,2.229592577E-2,-2.932066843E-2
7.366701416E0,5.146388337E-2,2.718270384E-2,-2.932066843E-2
7.376414541E0,4.169032723E-2,2.351761982E-2,-2.443389036E-2
7.386128395E0,2.458660305E-2,7.635590620E-3,-1.710372418E-2
7.395841520E0,1.114796288E-2,-1.191152167E-2,-4.886778072E-3
7.405553760E0,1.527118147E-4,-2.046338283E-2,6.108472589E-3
7.415266885E0,-1.206423342E-2,-2.657185495E-2,8.551862091E-3
7.424980739E0,-2.183778957E-2,-3.512371704E-2,3.665083554E-3
7.434693864E0,-2.672456764E-2,-4.489727318E-2,-2.443389036E-3
7.444406104E0,-2.428117767E-2,-4.489727318E-2,-8.551862091E-3
7.454119229E0,-2.061609551E-2,-3.390202299E-2,-1.343864016E-2
7.463833083E0,-1.572931744E-2,-1.313321572E-2,-1.832541823E-2
7.473546104E0,-7.177455351E-3,1.374406368E-2,-2.076880634E-2
7.483258395E0,1.374406274E-3,4.184303805E-2,-1.588202827E-2
7.492971573E0,3.817795310E-3,6.016845629E-2,-7.330167107E-3
7.502685427E0,1.374406274E-3,6.261184067E-2,-1.221694518E-3
7.512398448E0,-3.512371797E-3,5.283828825E-2,4.886778072E-3
7.522110739E0,-1.068982761E-3,3.817795217E-2,9.773556143E-3
7.531823864E0,6.261184346E-3,2.962609194E-2,1.343864016E-2
7.541537770E0,1.114796288E-2,2.107422985E-2,1.466033421E-2
7.551250791E0,8.704573847E-3,6.413896102E-3,1.710372418E-2
7.560963083E0,5.039489828E-3,-7.024743594E-3,1.466033421E-2
7.570676208E0,1.374406274E-3,-1.313321572E-2,1.221694518E-2
7.580390114E0,-1.068982761E-3,-1.068982668E-2,2.443389036E-3
7.590103135E0,-1.068982761E-3,1.527118147E-3,-8.551862091E-3
7.599815427E0,1.527118147E-4,2.107422985E-2,-1.954711229E-2
7.609528552E0,5.039489828E-3,3.206948191E-2,-2.199050039E-2
7.619242406E0,1.603474095E-2,3.573456407E-2,-2.321219631E-2
7.628955531E0,2.092151903E-2,3.695625812E-2,-1.710372418E-2
7.638667770E0,1.603474095E-2,3.084778599E-2,-7.330167107E-3
7.648380895E0,3.817795310E-3,7.635590620E-3,2.443389036E-3
7.658094750E0,-4.734066315E-3,-9.468132630E-3,7.330167107E-3
7.667807875E0,-8.399149403E-3,-1.435491070E-2,1.099525020E-2
7.677520114E0,-8.399149403E-3,-1.557660475E-2,1.710372418E-2
7.687233239E0,-1.068982761E-3,-2.901524492E-2,1.832541823E-2
7.696947093E0,1.114796288E-2,-4.123219103E-2,1.710372418E-2
7.706660114E0,1.481304597E-2,-4.123219103E-2,1.343864016E-2
7.716372406E0,1.359135192E-2,-2.901524492E-2,4.886778072E-3
7.726085531E0,9.926267900E-3,-1.679829881E-2,-7.330167107E-3
7.735799437E0,8.704573847E-3,-2.137965523E-3,-1.466033421E-2
7.745512458E0,9.926267900E-3,1.496575773E-2,-1.221694518E-2
7.755224750E0,1.114796288E-2,2.718270384E-2,-9.773556143E-3
7.764937875E0,9.926267900E-3,3.206948191E-2,-6.108472589E-3
7.774651729E0,1.236965694E-2,3.329117596E-2,0.000000000E0
7.784364854E0,1.236965694E-2,2.718270384E-2,6.108472589E-3
7.794077093E0,6.261184346E-3,1.740914769E-2,1.343864016E-2
7.803790218E0,1.527118147E-4,6.413896102E-3,1.466033421E-2
7.813504073E0,-7.177455351E-3,-1.068982668E-2,1.343864016E-2
7.823217093E0,-1.328592747E-2,-2.412846684E-2,8.551862091E-3
7.832929385E0,-1.450762246E-2,-2.657185495E-2,2.443389036E-3
7.842642510E0,-1.328592747E-2,-1.924168877E-2,-3.665083554E-3
7.852356416E0,-1.206423342E-2,-9.468132630E-3,-8.551862091E-3
7.862069437E0,-8.399149403E-3,-9.162708884E-4,-9.773556143E-3
7.871781729E0,1.374406274E-3,5.192201585E-3,-9.773556143E-3
7.881494854E0,8.704573847E-3,7.635590620E-3,-9.773556143E-3
7.891208708E0,1.114796288E-2,3.970507067E-3,-7.330167107E-3
7.900921833E0,1.114796288E-2,-4.581354558E-3,-3.665083554E-3
7.910634073E0,9.926267900E-3,-1.068982668E-2,0.000000000E0
7.920347198E0,5.039489828E-3,-1.313321572E-2,0.000000000E0
7.930061052E0,1.374406274E-3,-1.924168877E-2,-1.221694518E-3
7.939774073E0,1.527118147E-4,-2.412846684E-2,-2.443389036E-3
7.949486364E0,1.527118147E-4,-2.535016090E-2,-2.443389036E-3
7.959199489E0,3.817795310E-3,-2.412846684E-2,-6.108472589E-3
7.968913395E0,8.704573847E-3,-2.046338283E-2,-6.108472589E-3
7.978626416E0,1.114796288E-2,-2.168507688E-2,-1.221694518E-3
7.988338708E0,1.236965694E-2,-3.023693897E-2,4.886778072E-3
7.998051833E0,1.114796288E-2,-3.145863488E-2,7.330167107E-3
8.007765687E0,3.817795310E-3,-2.412846684E-2,7.330167107E-3
8.017478708E0,-2.290677279E-3,-1.924168877E-2,6.108472589E-3
8.027191000E0,-3.512371797E-3,-2.290677279E-2,3.665083554E-3
8.036904125E0,-1.068982761E-3,-2.046338283E-2,2.443389036E-3
8.046618031E0,5.039489828E-3,-1.679829881E-2,0.000000000E0
8.056331052E0,1.236965694E-2,-1.435491070E-2,-1.221694518E-3
8.066043343E0,1.725643501E-2,-1.557660475E-2,-3.665083554E-3
8.075756468E0,1.725643501E-2,-1.435491070E-2,0.000000000E0
8.085470323E0,9.926267900E-3,-1.679829881E-2,7.330167107E-3
8.095183448E0,2.596100792E-3,-2.779355086E-2,1.099525020E-2
8.104895635E0,-2.290677279E-3,-3.390202299E-2,7.330167107E-3
8.114608812E0,-2.290677279E-3,-2.535016090E-2,0.000000000E0
8.124322666E0,3.817795310E-3,-8.246437646E-3,-6.108472589E-3
8.134035687E0,1.114796288E-2,3.970507067E-3,-1.099525020E-2
8.143747979E0,1.114796288E-2,1.007897966E-2,-1.343864016E-2
8.153461104E0,5.039489828E-3,7.635590620E-3,-1.221694518E-2
8.163175010E0,-3.512371797E-3,3.054236295E-4,-7.330167107E-3
8.172888031E0,-5.955760833E-3,-1.068982668E-2,-2.443389036E-3
8.182600323E0,-2.290677279E-3,-1.191152167E-2,1.221694518E-3
8.192313448E0,5.039489828E-3,-5.803049076E-3,3.665083554E-3
8.202027302E0,7.482878864E-3,-4.581354558E-3,6.108472589E-3
8.211740323E0,7.482878864E-3,-7.024743594E-3,3.665083554E-3
8.221452614E0,9.926267900E-3,-3.359660041E-3,1.221694518E-3
8.231165739E0,1.114796288E-2,8.857285604E-3,1.221694518E-3
8.240879645E0,6.261184346E-3,1.618745178E-2,1.221694518E-3
8.250592666E0,-1.068982761E-3,1.496575773E-2,0.000000000E0
8.260304958E0,-8.399149403E-3,1.496575773E-2,-1.221694518E-3
8.270018083E0,-1.328592747E-2,1.740914769E-2,-3.665083554E-3
8.279731937E0,-1.450762246E-2,1.618745178E-2,-4.886778072E-3
8.289444958E0,-1.206423342E-2,1.496575773E-2,-2.443389036E-3
8.299157250E0,-9.620844387E-3,1.252236869E-2,1.221694518E-3
8.308870375E0,-5.955760833E-3,1.252236869E-2,6.108472589E-3
8.318584281E0,-3.512371797E-3,1.130067464E-2,9.773556143E-3
8.328297302E0,1.527118147E-4,6.413896102E-3,1.099525020E-2
8.338009593E0,1.527118147E-4,5.192201585E-3,9.773556143E-3
8.347722718E0,-1.068982761E-3,8.857285604E-3,6.108472589E-3
8.357436573E0,-3.512371797E-3,1.130067464E-2,-3.665083554E-3
8.367149698E0,-1.068982761E-3,1.496575773E-2,-1.221694518E-2
8.376861937E0,2.596100792E-3,1.863084175E-2,-1.588202827E-2
8.386575062E0,1.374406274E-3,1.863084175E-2,-1.710372418E-2
8.396288916E0,-3.512371797E-3,1.252236869E-2,-1.588202827E-2
8.406001937E0,-1.206423342E-2,7.635590620E-3,-1.221694518E-2
8.415714229E0,-1.695101149E-2,6.413896102E-3,-7.330167107E-3
8.425427354E0,-1.695101149E-2,3.970507067E-3,-3.665083554E-3
8.435141260E0,-1.450762246E-2,6.413896102E-3,0.000000000E0
8.444854281E0,-9.620844387E-3,1.007897966E-2,3.665083554E-3
8.454566573E0,-8.399149403E-3,6.413896102E-3,6.108472589E-3
8.464279698E0,-1.206423342E-2,-5.803049076E-3,1.343864016E-2
8.473993604E0,-2.305948362E-2,-2.168507688E-2,2.076880634E-2
8.483706625E0,-2.794626169E-2,-4.123219103E-2,2.321219631E-2
8.493418916E0,-2.550287358E-2,-4.734066129E-2,1.710372418E-2
8.503132041E0,-1.817270555E-2,-3.512371704E-2,9.773556143E-3
8.512845895E0,-5.955760833E-3,-5.803049076E-3,0.000000000E0
8.522558916E0,1.114796288E-2,3.084778599E-2,-1.343864016E-2
8.532271260E0,2.458660305E-2,7.116370648E-2,-1.832541823E-2
8.541984385E0,3.313846514E-2,1.004843712E-1,-1.710372418E-2
8.551698239E0,3.436015919E-2,9.681928903E-2,-1.343864016E-2
8.561411260E0,3.802524135E-2,7.360709459E-2,-6.108472589E-3
8.571123552E0,3.313846514E-2,5.405998230E-2,4.886778072E-3
8.580836677E0,1.603474095E-2,3.451287001E-2,1.466033421E-2
8.590550583E0,-4.734066315E-3,1.496575773E-2,1.710372418E-2
8.600263604E0,-2.183778957E-2,3.054236295E-4,1.588202827E-2
8.609975895E0,-3.283303976E-2,-5.803049076E-3,1.221694518E-2
8.619689020E0,-3.283303976E-2,-5.803049076E-3,6.108472589E-3
8.629402927E0,-2.672456764E-2,-8.246437646E-3,0.000000000E0
8.639115948E0,-2.183778957E-2,-5.803049076E-3,-3.665083554E-3
8.648828239E0,-1.939439960E-2,-4.581354558E-3,-2.443389036E-3
8.658541364E0,-1.817270555E-2,-3.359660041E-3,-1.221694518E-3
8.668255270E0,-1.206423342E-2,-3.359660041E-3,1.221694518E-3
8.677968291E0,-7.177455351E-3,-3.359660041E-3,4.886778072E-3
8.687680583E0,1.374406274E-3,-1.068982668E-2,7.330167107E-3
8.697393708E0,9.926267900E-3,-2.779355086E-2,7.330167107E-3
8.707107562E0,1.603474095E-2,-3.512371704E-2,8.551862091E-3
8.716820687E0,1.725643501E-2,-3.512371704E-2,9.773556143E-3
8.726532927E0,1.236965694E-2,-2.901524492E-2,1.099525020E-2
8.736246052E0,1.114796288E-2,-2.657185495E-2,7.330167107E-3
8.745959958E0,1.359135192E-2,-2.535016090E-2,3.665083554E-3
8.755672979E0,1.725643501E-2,-1.801999472E-2,-4.886778072E-3
8.765385270E0,1.847812906E-2,-4.581354558E-3,-1.221694518E-2
8.775098395E0,1.236965694E-2,1.130067464E-2,-1.832541823E-2
8.784812302E0,1.527118147E-4,7.635590620E-3,-1.954711229E-2
8.794525323E0,-1.450762246E-2,-4.581354558E-3,-1.832541823E-2
8.804237614E0,-2.183778957E-2,-1.313321572E-2,-1.466033421E-2
8.813950739E0,-2.794626169E-2,-1.435491070E-2,-9.773556143E-3
8.823664645E0,-3.038965166E-2,-1.435491070E-2,-4.886778072E-3
8.833377666E0,-2.672456764E-2,-9.468132630E-3,-4.886778072E-3
8.843089958E0,-2.305948362E-2,3.970507067E-3,0.000000000E0
8.852803083E0,-2.061609551E-2,1.252236869E-2,6.108472589E-3
8.862516989E0,-1.817270555E-2,6.413896102E-3,8.551862091E-3
8.872230010E0,-1.939439960E-2,-2.137965523E-3,9.773556143E-3
8.881942302E0,-1.450762246E-2,-8.246437646E-3,8.551862091E-3
8.891655479E0,-8.399149403E-3,-7.024743594E-3,3.665083554E-3
8.901369333E0,1.527118147E-4,3.054236295E-4,-1.221694518E-3
8.911082354E0,7.482878864E-3,5.192201585E-3,-6.108472589E-3
8.920794645E0,8.704573847E-3,1.007897966E-2,-6.108472589E-3
8.930507823E0,3.817795310E-3,6.413896102E-3,-3.665083554E-3
8.940221677E0,-5.955760833E-3,3.054236295E-4,1.221694518E-3
8.949934802E0,-1.084253844E-2,-3.359660041E-3,6.108472589E-3
8.959647041E0,-7.177455351E-3,-5.803049076E-3,7.330167107E-3
8.969360166E0,1.374406274E-3,-9.468132630E-3,7.330167107E-3
8.979074073E0,6.261184346E-3,-1.435491070E-2,3.665083554E-3
8.988787093E0,8.704573847E-3,-1.557660475E-2,-2.443389036E-3
8.998499385E0,8.704573847E-3,-1.191152167E-2,-8.551862091E-3
9.008212510E0,1.114796288E-2,-1.068982668E-2,-1.343864016E-2
9.017926416E0,9.926267900E-3,-1.435491070E-2,-1.466033421E-2
9.027639437E0,3.817795310E-3,-2.168507688E-2,-1.466033421E-2
9.037351781E0,1.527118147E-4,-2.657185495E-2,-1.710372418E-2
9.047064906E0,-3.512371797E-3,-2.412846684E-2,-1.343864016E-2
9.056778760E0,-5.955760833E-3,-2.046338283E-2,-6.108472589E-3
9.066491885E0,-2.290677279E-3,-2.046338283E-2,3.665083554E-3
9.076204125E0,1.527118147E-4,-2.046338283E-2,1.343864016E-2
9.085917250E0,1.374406274E-3,-1.801999472E-2,1.710372418E-2
9.095631156E0,1.374406274E-3,-9.468132630E-3,1.588202827E-2
9.105344177E0,-1.068982761E-3,3.970507067E-3,1.221694518E-2
9.115056468E0,-2.290677279E-3,1.252236869E-2,8.551862091E-3
9.124769645E0,-4.734066315E-3,1.374406368E-2,2.443389036E-3
9.134483500E0,-5.955760833E-3,1.130067464E-2,-4.886778072E-3
9.144196625E0,-5.955760833E-3,1.374406368E-2,-1.099525020E-2
9.153908864E0,-4.734066315E-3,1.374406368E-2,-1.588202827E-2
9.163622041E0,3.817795310E-3,1.496575773E-2,-1.954711229E-2
9.173335895E0,9.926267900E-3,1.863084175E-2,-1.343864016E-2
9.183049020E0,1.114796288E-2,1.496575773E-2,-3.665083554E-3
9.192761260E0,9.926267900E-3,3.970507067E-3,3.665083554E-3
9.202474385E0,6.261184346E-3,-9.162708884E-4,8.551862091E-3
9.212188291E0,1.374406274E-3,-9.162708884E-4,8.551862091E-3
9.221901312E0,-1.068982761E-3,-9.162708884E-4,4.886778072E-3
9.231613604E0,1.527118147E-4,-3.359660041E-3,2.443389036E-3
9.241326781E0,1.527118147E-4,-4.581354558E-3,-3.665083554E-3
9.251040635E0,-4.734066315E-3,-5.803049076E-3,-6.108472589E-3
9.260753760E0,-9.620844387E-3,-1.191152167E-2,-6.108472589E-3
9.270466000E0,-1.450762246E-2,-2.046338283E-2,-6.108472589E-3
9.280179177E0,-2.061609551E-2,-1.801999472E-2,-4.886778072E-3
9.289893031E0,-2.305948362E-2,-5.803049076E-3,-6.108472589E-3
9.299606156E0,-2.061609551E-2,1.252236869E-2,-6.108472589E-3
9.309318395E0,-1.206423342E-2,2.596100792E-2,-3.665083554E-3
9.319031573E0,1.527118147E-4,3.206948191E-2,4.886778072E-3
9.328745427E0,9.926267900E-3,3.084778599E-2,1.099525020E-2
9.338458552E0,1.481304597E-2,2.596100792E-2,1.588202827E-2
9.348170791E0,1.359135192E-2,2.473931387E-2,2.199050039E-2
9.357883916E0,1.114796288E-2,1.863084175E-2,2.321219631E-2
9.367597823E0,1.481304597E-2,1.007897966E-2,1.710372418E-2
9.377310948E0,1.603474095E-2,1.496575773E-2,9.773556143E-3
9.387023187E0,1.359135192E-2,2.840439789E-2,4.886778072E-3
9.396736312E0,8.704573847E-3,3.206948191E-2,1.221694518E-3
9.406450218E0,1.527118147E-4,2.962609194E-2,2.443389036E-3
9.416163343E0,-7.177455351E-3,2.718270384E-2,0.000000000E0
9.425875583E0,-1.206423342E-2,3.084778599E-2,1.221694518E-3
9.435588760E0,-9.620844387E-3,2.962609194E-2,-1.221694518E-3
9.445302614E0,-2.290677279E-3,2.351761982E-2,-2.443389036E-3
9.455015739E0,3.817795310E-3,1.985253580E-2,-3.665083554E-3
9.464727979E0,5.039489828E-3,2.351761982E-2,-1.221694518E-3
9.474441156E0,5.039489828E-3,1.863084175E-2,3.665083554E-3
9.484155010E0,3.817795310E-3,1.007897966E-2,4.886778072E-3
9.493868135E0,1.374406274E-3,1.527118147E-3,4.886778072E-3
9.503580375E0,3.817795310E-3,1.527118147E-3,2.443389036E-3
9.513293552E0,2.596100792E-3,8.857285604E-3,2.443389036E-3
9.523007458E0,-7.177455351E-3,8.857285604E-3,4.886778072E-3
9.532720479E0,-1.939439960E-2,-2.137965523E-3,7.330167107E-3
9.542432770E0,-2.550287358E-2,-1.679829881E-2,7.330167107E-3
9.552145948E0,-2.672456764E-2,-2.412846684E-2,2.443389036E-3
9.561859854E0,-2.183778957E-2,-2.168507688E-2,-6.108472589E-3
9.571572875E0,-1.450762246E-2,-8.246437646E-3,-1.466033421E-2
9.581285218E0,-5.955760833E-3,1.007897966E-2,-1.466033421E-2
9.590998343E0,1.527118147E-4,2.473931387E-2,-9.773556143E-3
9.600712250E0,3.817795310E-3,3.329117596E-2,-3.665083554E-3
9.610425375E0,8.704573847E-3,4.428642616E-2,3.665083554E-3
9.620137614E0,1.236965694E-2,5.528167635E-2,7.330167107E-3
9.629850791E0,1.725643501E-2,5.772506446E-2,6.108472589E-3
9.639564645E0,2.092151903E-2,5.650337040E-2,3.665083554E-3
9.649277770E0,1.725643501E-2,4.672981426E-2,1.221694518E-3
9.658990010E0,5.039489828E-3,2.351761982E-2,0.000000000E0
9.668703187E0,-5.955760833E-3,-5.803049076E-3,-2.443389036E-3
9.678417093E0,-1.450762246E-2,-2.779355086E-2,-2.443389036E-3
9.688130114E0,-1.572931744E-2,-4.245388508E-2,-2.443389036E-3
9.697842458E0,-1.084253844E-2,-4.856235534E-2,-7.330167107E-3
9.707555583E0,-1.068982761E-3,-3.634541109E-2,-1.221694518E-2
9.717269489E0,9.926267900E-3,-1.557660475E-2,-1.099525020E-2
9.726982614E0,2.092151903E-2,-2.137965523E-3,-2.443389036E-3
9.736694854E0,2.458660305E-2,3.970507067E-3,4.886778072E-3
9.746408031E0,2.825168520E-2,6.413896102E-3,1.099525020E-2
9.756121885E0,2.947338112E-2,1.527118147E-3,1.221694518E-2
9.765835010E0,2.580829710E-2,-2.137965523E-3,9.773556143E-3
9.775547302E0,1.969982497E-2,-8.246437646E-3,6.108472589E-3
9.785260427E0,8.704573847E-3,-2.290677279E-2,1.221694518E-3
9.794974333E0,-1.068982761E-3,-4.123219103E-2,-6.108472589E-3
9.804687458E0,-5.955760833E-3,-5.100574717E-2,-1.099525020E-2
9.814399698E0,-1.084253844E-2,-4.978405312E-2,-1.221694518E-2
9.824112875E0,-1.328592747E-2,-4.001049697E-2,-1.221694518E-2
9.833826729E0,-1.450762246E-2,-2.901524492E-2,-7.330167107E-3
9.843539854E0,-1.084253844E-2,-1.679829881E-2,0.000000000E0
9.853252145E0,-7.177455351E-3,-7.024743594E-3,3.665083554E-3
9.862965270E0,-3.512371797E-3,-2.137965523E-3,3.665083554E-3
9.872679177E0,3.817795310E-3,5.192201585E-3,0.000000000E0
9.882392198E0,9.926267900E-3,1.618745178E-2,-2.443389036E-3
9.892104541E0,8.704573847E-3,1.985253580E-2,0.000000000E0
9.901817718E0,1.114796288E-2,5.192201585E-3,0.000000000E0
9.911531573E0,1.114796288E-2,-1.191152167E-2,1.221694518E-3
9.921244698E0,5.039489828E-3,-2.657185495E-2,0.000000000E0
9.930956989E0,-2.290677279E-3,-3.145863488E-2,-3.665083554E-3
9.940670114E0,-4.734066315E-3,-2.168507688E-2,-1.099525020E-2
9.950384020E0,-2.290677279E-3,-3.359660041E-3,-1.466033421E-2
9.960097145E0,5.039489828E-3,1.252236869E-2,-1.466033421E-2
9.969809385E0,6.261184346E-3,1.374406368E-2,-1.099525020E-2
9.979522562E0,1.374406274E-3,7.635590620E-3,-9.773556143E-3
9.989236468E0,-7.177455351E-3,2.748812549E-3,-6.108472589E-3
9.998949489E0,-1.572931744E-2,-9.162708884E-4,0.000000000E0
1.000866183E1,-1.939439960E-2,-5.803049076E-3,1.221694518E-3
1.001837496E1,-2.061609551E-2,-5.803049076E-3,2.443389036E-3
1.002808886E1,-2.061609551E-2,-7.024743594E-3,3.665083554E-3
1.003780199E1,-1.695101149E-2,-8.246437646E-3,3.665083554E-3
1.004751423E1,-7.177455351E-3,-4.581354558E-3,3.665083554E-3
1.005722741E1,3.817795310E-3,2.748812549E-3,2.443389036E-3
1.006694131E1,7.482878864E-3,1.496575773E-2,1.221694518E-3
1.007665433E1,1.374406274E-3,2.229592577E-2,0.000000000E0
1.008636668E1,-2.290677279E-3,2.473931387E-2,-2.443389036E-3
1.009607985E1,-3.512371797E-3,2.351761982E-2,-3.665083554E-3
1.010579371E1,1.527118147E-4,2.596100792E-2,-6.108472589E-3
1.011550683E1,1.374406274E-3,2.718270384E-2,-8.551862091E-3
1.012521913E1,1.527118147E-4,2.473931387E-2,-7.330167107E-3
1.013493225E1,-4.734066315E-3,2.107422985E-2,-6.108472589E-3
1.014464616E1,-1.206423342E-2,1.740914769E-2,0.000000000E0
1.015435928E1,-1.450762246E-2,1.740914769E-2,8.551862091E-3
1.016407152E1,-1.695101149E-2,1.985253580E-2,1.710372418E-2
1.017378470E1,-1.817270555E-2,1.985253580E-2,2.199050039E-2
1.018349860E1,-1.450762246E-2,2.596100792E-2,2.076880634E-2
1.019321162E1,-9.620844387E-3,4.306473210E-2,1.343864016E-2
1.020292397E1,-2.290677279E-3,5.650337040E-2,4.886778072E-3
1.021263714E1,2.596100792E-3,5.772506446E-2,-7.330167107E-3
1.022235100E1,8.704573847E-3,5.161659420E-2,-1.954711229E-2
1.023206412E1,1.603474095E-2,3.939964995E-2,-2.687728032E-2
1.024177636E1,1.603474095E-2,1.496575773E-2,-2.687728032E-2
1.025148954E1,7.482878864E-3,-1.557660475E-2,-2.076880634E-2
1.026120345E1,-1.068982761E-3,-4.489727318E-2,-8.551862091E-3
1.027091657E1,-1.206423342E-2,-6.444438547E-2,1.221694518E-3
1.028062881E1,-2.428117767E-2,-7.910472155E-2,8.551862091E-3
1.029034199E1,-3.405473381E-2,-9.254335612E-2,1.221694518E-2
1.030005590E1,-4.016320780E-2,-1.023169160E-1,8.551862091E-3
1.030976892E1,-4.016320780E-2,-9.865183383E-2,0.000000000E0
1.031948126E1,-4.138490185E-2,-8.521319181E-2,-6.108472589E-3
1.032919444E1,-3.894151375E-2,-6.200099736E-2,-1.588202827E-2
1.033890829E1,-3.283303976E-2,-3.390202299E-2,-1.954711229E-2
1.034862142E1,-2.794626169E-2,-1.068982668E-2,-2.321219631E-2
1.035833371E1,-2.061609551E-2,5.192201585E-3,-2.199050039E-2
1.036804683E1,-7.177455351E-3,1.863084175E-2,-1.099525020E-2
1.037776074E1,1.114796288E-2,2.840439789E-2,1.221694518E-3
1.038747386E1,3.069507517E-2,3.573456407E-2,9.773556143E-3
1.039718610E1,4.291202128E-2,3.817795217E-2,1.466033421E-2
1.040689928E1,4.535540938E-2,3.329117596E-2,1.710372418E-2
1.041661319E1,4.169032723E-2,1.985253580E-2,1.466033421E-2
1.042632621E1,2.947338112E-2,8.857285604E-3,7.330167107E-3
1.043603855E1,1.603474095E-2,-4.581354558E-3,3.665083554E-3
1.044575173E1,2.596100792E-3,-2.046338283E-2,-2.443389036E-3
1.045546564E1,-1.084253844E-2,-3.756710514E-2,-7.330167107E-3
1.046517866E1,-1.572931744E-2,-5.344913527E-2,-1.221694518E-2
1.047489100E1,-1.695101149E-2,-6.200099736E-2,-1.588202827E-2
1.048460412E1,-9.620844387E-3,-5.955760926E-2,-1.832541823E-2
1.049431803E1,-1.068982761E-3,-4.123219103E-2,-1.954711229E-2
1.050403116E1,7.482878864E-3,-1.801999472E-2,-1.710372418E-2
1.051374345E1,1.481304597E-2,1.527118147E-3,-1.221694518E-2
1.052345657E1,2.092151903E-2,1.496575773E-2,-7.330167107E-3
1.053317048E1,2.336490713E-2,2.718270384E-2,-1.221694518E-3
1.054288360E1,2.580829710E-2,2.840439789E-2,3.665083554E-3
1.055259584E1,2.092151903E-2,2.596100792E-2,6.108472589E-3
1.056230902E1,7.482878864E-3,2.351761982E-2,9.773556143E-3
1.057202293E1,-8.399149403E-3,1.618745178E-2,1.221694518E-2
1.058173595E1,-2.061609551E-2,5.192201585E-3,8.551862091E-3
1.059144829E1,-2.428117767E-2,2.748812549E-3,3.665083554E-3
1.060116147E1,-2.061609551E-2,3.970507067E-3,1.221694518E-3
1.061087538E1,-1.450762246E-2,1.527118147E-3,0.000000000E0
1.062058840E1,-9.620844387E-3,5.192201585E-3,0.000000000E0
1.063030074E1,-5.955760833E-3,8.857285604E-3,-2.443389036E-3
1.064001386E1,1.527118147E-4,1.863084175E-2,-7.330167107E-3
1.064972777E1,9.926267900E-3,3.084778599E-2,-1.099525020E-2
1.065944090E1,1.847812906E-2,3.695625812E-2,-1.221694518E-2
1.066915319E1,1.847812906E-2,3.084778599E-2,-8.551862091E-3
1.067886631E1,1.236965694E-2,1.130067464E-2,-1.221694518E-3
1.068858022E1,1.374406274E-3,-9.468132630E-3,3.665083554E-3
1.069829334E1,-8.399149403E-3,-2.535016090E-2,4.886778072E-3
1.070800558E1,-1.328592747E-2,-3.268032894E-2,1.221694518E-3
1.071771876E1,-1.450762246E-2,-3.145863488E-2,-6.108472589E-3
1.072743267E1,-7.177455351E-3,-2.657185495E-2,-1.099525020E-2
1.073714579E1,-1.068982761E-3,-1.679829881E-2,-8.551862091E-3
1.074685803E1,2.596100792E-3,-1.313321572E-2,-4.886778072E-3
1.075657121E1,1.374406274E-3,-1.191152167E-2,0.000000000E0
1.076628511E1,1.527118147E-4,-1.068982668E-2,2.443389036E-3
1.077599814E1,1.527118147E-4,-7.024743594E-3,7.330167107E-3
1.078571048E1,3.817795310E-3,-9.468132630E-3,9.773556143E-3
1.079542366E1,5.039489828E-3,-1.557660475E-2,9.773556143E-3
1.080513751E1,5.039489828E-3,-9.468132630E-3,6.108472589E-3
1.081485064E1,6.261184346E-3,3.054236295E-4,3.665083554E-3
1.082456293E1,7.482878864E-3,1.007897966E-2,0.000000000E0
1.083427605E1,8.704573847E-3,1.252236869E-2,-3.665083554E-3
1.084398996E1,9.926267900E-3,7.635590620E-3,-3.665083554E-3
1.085370308E1,7.482878864E-3,-9.162708884E-4,0.000000000E0
1.086341532E1,-1.068982761E-3,-1.191152167E-2,-1.221694518E-3
1.087312850E1,-1.206423342E-2,-2.168507688E-2,-3.665083554E-3
1.088284241E1,-1.939439960E-2,-2.779355086E-2,-6.108472589E-3
1.089255553E1,-1.817270555E-2,-2.779355086E-2,-7.330167107E-3
1.090226777E1,-1.328592747E-2,-2.168507688E-2,-8.551862091E-3
1.091198095E1,-7.177455351E-3,-1.924168877E-2,-8.551862091E-3
1.092169485E1,-1.068982761E-3,-1.924168877E-2,-6.108472589E-3
1.093140788E1,1.527118147E-4,-1.679829881E-2,-2.443389036E-3
1.094112022E1,-2.290677279E-3,-1.068982668E-2,1.221694518E-3
1.095083340E1,-5.955760833E-3,-4.581354558E-3,4.886778072E-3
1.096054730E1,-4.734066315E-3,3.970507067E-3,6.108472589E-3
1.097026032E1,2.596100792E-3,1.374406368E-2,2.443389036E-3
1.097997267E1,5.039489828E-3,2.107422985E-2,-1.221694518E-3
1.098968579E1,7.482878864E-3,2.351761982E-2,-2.443389036E-3
1.099939970E1,6.261184346E-3,2.351761982E-2,-2.443389036E-3
1.100911282E1,2.596100792E-3,2.596100792E-2,-2.443389036E-3
1.101882511E1,-3.512371797E-3,2.962609194E-2,0.000000000E0
1.102853824E1,-1.084253844E-2,3.329117596E-2,1.221694518E-3
1.103825215E1,-1.206423342E-2,3.206948191E-2,1.221694518E-3
1.104796527E1,-7.177455351E-3,2.962609194E-2,0.000000000E0
1.105767751E1,1.374406274E-3,3.084778599E-2,-4.886778072E-3
1.106739069E1,6.261184346E-3,2.962609194E-2,-1.099525020E-2
1.107710459E1,6.261184346E-3,3.573456407E-2,-1.221694518E-2
1.108681772E1,2.596100792E-3,4.184303805E-2,-7.330167107E-3
1.109652996E1,1.374406274E-3,3.206948191E-2,0.000000000E0
1.110624314E1,-4.734066315E-3,1.496575773E-2,4.886778072E-3
1.111595704E1,-1.206423342E-2,-9.162708884E-4,8.551862091E-3
1.112567006E1,-1.939439960E-2,-1.068982668E-2,4.886778072E-3
1.113538241E1,-2.183778957E-2,-9.468132630E-3,0.000000000E0
1.114509558E1,-1.939439960E-2,-7.024743594E-3,-4.886778072E-3
1.115480944E1,-1.206423342E-2,-8.246437646E-3,-8.551862091E-3
1.116452256E1,-7.177455351E-3,-1.191152167E-2,-7.330167107E-3
1.117423485E1,-1.068982761E-3,-2.290677279E-2,-2.443389036E-3
1.118394798E1,5.039489828E-3,-4.001049697E-2,2.443389036E-3
1.119366189E1,1.481304597E-2,-5.467082933E-2,1.221694518E-3
1.120337501E1,2.336490713E-2,-4.856235534E-2,3.665083554E-3
1.121308725E1,2.947338112E-2,-3.512371704E-2,3.665083554E-3
1.122280043E1,2.825168520E-2,-2.779355086E-2,1.221694518E-3
1.123251433E1,2.336490713E-2,-1.801999472E-2,-3.665083554E-3
1.124222746E1,1.603474095E-2,-9.468132630E-3,-3.665083554E-3
1.125193970E1,5.039489828E-3,-8.246437646E-3,-1.221694518E-3
1.126165288E1,-2.290677279E-3,-8.246437646E-3,0.000000000E0
1.127136678E1,-2.290677279E-3,-9.468132630E-3,-1.221694518E-3
1.128107991E1,-1.068982761E-3,-2.137965523E-3,-1.221694518E-3
1.129079215E1,-1.068982761E-3,8.857285604E-3,-1.221694518E-3
1.130050532E1,-4.734066315E-3,1.863084175E-2,-1.221694518E-3
1.131021923E1,-8.399149403E-3,2.351761982E-2,-1.221694518E-3
1.131993225E1,-9.620844387E-3,2.473931387E-2,-2.443389036E-3
1.132964459E1,-8.399149403E-3,2.962609194E-2,-4.886778072E-3
1.133935772E1,-1.206423342E-2,3.573456407E-2,-7.330167107E-3
1.134907162E1,-1.572931744E-2,3.695625812E-2,-9.773556143E-3
1.135878475E1,-1.695101149E-2,2.962609194E-2,-8.551862091E-3
1.136849704E1,-1.572931744E-2,1.740914769E-2,-3.665083554E-3
1.137821017E1,-1.328592747E-2,7.635590620E-3,-3.665083554E-3
1.138792407E1,-1.068982761E-3,3.054236295E-4,-4.886778072E-3
1.139763720E1,1.114796288E-2,-2.137965523E-3,-6.108472589E-3
1.140734944E1,1.725643501E-2,-5.803049076E-3,-6.108472589E-3
1.141706261E1,1.725643501E-2,-1.435491070E-2,-7.330167107E-3
1.142677652E1,1.603474095E-2,-1.557660475E-2,-1.099525020E-2
1.143648964E1,1.481304597E-2,-1.313321572E-2,-1.099525020E-2
1.144620188E1,1.603474095E-2,-1.068982668E-2,-8.551862091E-3
1.145591506E1,1.359135192E-2,-3.359660041E-3,-8.551862091E-3
1.146562897E1,5.039489828E-3,1.007897966E-2,-7.330167107E-3
1.147534199E1,-2.290677279E-3,1.496575773E-2,-7.330167107E-3
1.148505433E1,-5.955760833E-3,1.496575773E-2,-7.330167107E-3
1.149476751E1,-7.177455351E-3,1.496575773E-2,-6.108472589E-3
1.150448136E1,-4.734066315E-3,1.618745178E-2,-6.108472589E-3
1.151419449E1,-1.068982761E-3,1.374406368E-2,-6.108472589E-3
1.152390678E1,-4.734066315E-3,1.007897966E-2,-4.886778072E-3
1.153361991E1,-4.734066315E-3,-2.137965523E-3,-4.886778072E-3
1.154333381E1,-3.512371797E-3,-1.068982668E-2,-4.886778072E-3
1.155304694E1,-3.512371797E-3,-1.557660475E-2,-6.108472589E-3
1.156275923E1,-3.512371797E-3,-1.924168877E-2,-6.108472589E-3
1.157247235E1,-5.955760833E-3,-1.191152167E-2,-6.108472589E-3
1.158218626E1,-7.177455351E-3,2.748812549E-3,-4.886778072E-3
1.159189939E1,-9.620844387E-3,1.618745178E-2,0.000000000E0
1.160161162E1,-8.399149403E-3,1.496575773E-2,8.551862091E-3
1.161132480E1,-5.955760833E-3,7.635590620E-3,1.466033421E-2
1.162103871E1,-5.955760833E-3,3.054236295E-4,1.832541823E-2
1.163075183E1,-5.955760833E-3,1.527118147E-3,1.710372418E-2
1.164046407E1,-5.955760833E-3,1.130067464E-2,9.773556143E-3
1.165017725E1,-1.068982761E-3,1.618745178E-2,1.221694518E-3
1.165989116E1,7.482878864E-3,1.863084175E-2,-3.665083554E-3
1.166960418E1,9.926267900E-3,1.863084175E-2,-3.665083554E-3
1.167931652E1,1.374406274E-3,7.635590620E-3,-4.886778072E-3
1.168902970E1,-9.620844387E-3,-4.581354558E-3,-7.330167107E-3
1.169874360E1,-1.817270555E-2,-9.468132630E-3,-8.551862091E-3
1.170845662E1,-2.183778957E-2,-1.191152167E-2,-9.773556143E-3
1.171816897E1,-1.695101149E-2,-1.557660475E-2,-1.343864016E-2
1.172788209E1,-1.084253844E-2,-1.435491070E-2,-1.221694518E-2
1.173759600E1,-5.955760833E-3,-1.191152167E-2,-7.330167107E-3
1.174730913E1,-5.955760833E-3,-1.557660475E-2,-2.443389036E-3
1.175702142E1,-4.734066315E-3,-2.046338283E-2,0.000000000E0
1.176673454E1,-5.955760833E-3,-1.679829881E-2,-1.221694518E-3
1.177644845E1,-8.399149403E-3,-1.068982668E-2,0.000000000E0
1.178616157E1,-7.177455351E-3,-1.924168877E-2,-1.221694518E-3
1.179587381E1,-5.955760833E-3,-3.390202299E-2,-2.443389036E-3
1.180558699E1,-7.177455351E-3,-4.001049697E-2,-3.665083554E-3
1.181530090E1,-8.399149403E-3,-3.756710514E-2,-6.108472589E-3
1.182501402E1,-7.177455351E-3,-2.779355086E-2,-4.886778072E-3
1.183472626E1,1.527118147E-4,-1.679829881E-2,1.221694518E-3
1.184443944E1,9.926267900E-3,-5.803049076E-3,7.330167107E-3
1.185415334E1,1.847812906E-2,1.130067464E-2,1.099525020E-2
1.186386647E1,2.214321308E-2,3.206948191E-2,1.221694518E-2
1.187357871E1,2.580829710E-2,4.428642616E-2,1.099525020E-2
1.188329188E1,2.458660305E-2,5.161659420E-2,6.108472589E-3
1.189300579E1,1.847812906E-2,5.161659420E-2,3.665083554E-3
1.190271881E1,1.481304597E-2,3.695625812E-2,-1.221694518E-3
1.191243116E1,1.114796288E-2,1.985253580E-2,-7.330167107E-3
1.192214433E1,9.926267900E-3,1.252236869E-2,-1.099525020E-2
1.193185824E1,3.817795310E-3,1.007897966E-2,-1.221694518E-2
1.194157126E1,-2.290677279E-3,1.007897966E-2,-1.099525020E-2
1.195128360E1,-4.734066315E-3,1.252236869E-2,-8.551862091E-3
1.196099678E1,-2.290677279E-3,1.863084175E-2,-7.330167107E-3
1.197071069E1,2.596100792E-3,2.229592577E-2,-6.108472589E-3
1.198042371E1,6.261184346E-3,2.107422985E-2,-6.108472589E-3
1.199013605E1,1.236965694E-2,1.863084175E-2,-6.108472589E-3
1.199984923E1,1.725643501E-2,2.351761982E-2,-7.330167107E-3
1.200956308E1,1.481304597E-2,2.473931387E-2,-4.886778072E-3
1.201927621E1,7.482878864E-3,1.740914769E-2,1.221694518E-3
1.202898850E1,7.482878864E-3,-2.137965523E-3,4.886778072E-3
1.203870163E1,7.482878864E-3,-2.168507688E-2,4.886778072E-3
1.204841553E1,5.039489828E-3,-3.268032894E-2,2.443389036E-3
1.205812866E1,-1.068982761E-3,-3.390202299E-2,-1.221694518E-3
1.206784095E1,-1.068982761E-3,-2.657185495E-2,-6.108472589E-3
1.207755407E1,3.817795310E-3,-7.024743594E-3,-9.773556143E-3
1.208726798E1,8.704573847E-3,1.618745178E-2,-9.773556143E-3
1.209698110E1,1.114796288E-2,2.840439789E-2,-7.330167107E-3
1.210669334E1,1.236965694E-2,2.962609194E-2,1.221694518E-3
1.211640652E1,9.926267900E-3,2.718270384E-2,8.551862091E-3
1.212612043E1,8.704573847E-3,2.596100792E-2,1.466033421E-2
1.213583355E1,7.482878864E-3,2.229592577E-2,1.588202827E-2
1.214554579E1,1.374406274E-3,1.740914769E-2,1.588202827E-2
1.215525897E1,-4.734066315E-3,1.130067464E-2,1.099525020E-2
1.216497288E1,-8.399149403E-3,8.857285604E-3,3.665083554E-3
1.217468590E1,-9.620844387E-3,1.007897966E-2,-3.665083554E-3
1.218439824E1,-5.955760833E-3,1.374406368E-2,-7.330167107E-3
1.219411142E1,-1.068982761E-3,1.374406368E-2,-1.099525020E-2
1.220382532E1,6.261184346E-3,1.252236869E-2,-9.773556143E-3
1.221353834E1,1.114796288E-2,1.007897966E-2,-3.665083554E-3
1.222325069E1,1.114796288E-2,3.970507067E-3,2.443389036E-3
1.223296386E1,9.926267900E-3,-9.468132630E-3,4.886778072E-3
1.224267772E1,9.926267900E-3,-2.779355086E-2,7.330167107E-3
1.225239084E1,7.482878864E-3,-4.489727318E-2,9.773556143E-3
1.226210314E1,-1.068982761E-3,-6.077930331E-2,1.099525020E-2
1.227181626E1,-8.399149403E-3,-7.910472155E-2,3.665083554E-3
1.228153017E1,-9.620844387E-3,-8.032641560E-2,0.000000000E0
1.229124329E1,-5.955760833E-3,-6.200099736E-2,-6.108472589E-3
1.230095558E1,-4.734066315E-3,-4.001049697E-2,-1.099525020E-2
1.231066871E1,-2.290677279E-3,-1.924168877E-2,-1.588202827E-2
1.232038261E1,6.261184346E-3,2.748812549E-3,-1.832541823E-2
1.233009574E1,1.847812906E-2,2.473931387E-2,-1.466033421E-2
1.233980798E1,2.458660305E-2,4.428642616E-2,-7.330167107E-3
1.234952116E1,1.969982497E-2,4.917320609E-2,-2.443389036E-3
1.235923506E1,6.261184346E-3,4.672981426E-2,1.221694518E-3
1.236894819E1,-4.734066315E-3,3.451287001E-2,6.108472589E-3
1.237866043E1,-1.572931744E-2,2.351761982E-2,8.551862091E-3
1.238837360E1,-2.305948362E-2,1.007897966E-2,7.330167107E-3
1.239808751E1,-2.794626169E-2,-9.162708884E-4,2.443389036E-3
1.240780064E1,-2.428117767E-2,-5.803049076E-3,-3.665083554E-3
1.241751288E1,-1.328592747E-2,1.527118147E-3,-4.886778072E-3
1.242722605E1,-1.068982761E-3,1.374406368E-2,-2.443389036E-3
1.243693996E1,6.261184346E-3,1.863084175E-2,-1.221694518E-3
1.244665298E1,7.482878864E-3,1.007897966E-2,-1.221694518E-3
1.245636532E1,6.261184346E-3,-9.162708884E-4,0.000000000E0
1.246607850E1,5.039489828E-3,-9.468132630E-3,2.443389036E-3
1.247579241E1,3.817795310E-3,-1.557660475E-2,1.221694518E-3
1.248550543E1,2.596100792E-3,-1.679829881E-2,2.443389036E-3
1.249521777E1,1.527118147E-4,-2.046338283E-2,6.108472589E-3
1.250493095E1,1.374406274E-3,-2.535016090E-2,4.886778072E-3
1.251464485E1,2.596100792E-3,-2.535016090E-2,3.665083554E-3
1.252435788E1,6.261184346E-3,-1.801999472E-2,1.221694518E-3
1.253407022E1,1.114796288E-2,-1.435491070E-2,-4.886778072E-3
1.254378334E1,1.236965694E-2,-7.024743594E-3,-8.551862091E-3
1.255349725E1,9.926267900E-3,3.970507067E-3,-9.773556143E-3
1.256321038E1,6.261184346E-3,1.374406368E-2,-6.108472589E-3
1.257292267E1,2.596100792E-3,1.740914769E-2,-2.443389036E-3
1.258263579E1,1.527118147E-4,1.863084175E-2,0.000000000E0
1.259234970E1,1.527118147E-4,2.596100792E-2,-3.665083554E-3
1.260206282E1,1.527118147E-4,3.451287001E-2,-2.443389036E-3
1.261177511E1,1.527118147E-4,3.573456407E-2,-1.221694518E-3
1.262148824E1,-1.068982761E-3,3.206948191E-2,0.000000000E0
1.263120215E1,-1.068982761E-3,2.840439789E-2,0.000000000E0
1.264091527E1,1.527118147E-4,2.229592577E-2,1.221694518E-3
1.265062756E1,3.817795310E-3,1.618745178E-2,1.221694518E-3
1.266034069E1,9.926267900E-3,8.857285604E-3,3.665083554E-3
1.267005459E1,1.725643501E-2,2.748812549E-3,6.108472589E-3
1.267976772E1,2.092151903E-2,2.748812549E-3,6.108472589E-3
1.268947996E1,1.725643501E-2,1.527118147E-3,6.108472589E-3
1.269919314E1,8.704573847E-3,5.192201585E-3,6.108472589E-3
1.270890704E1,-2.290677279E-3,7.635590620E-3,7.330167107E-3
1.271862017E1,-1.084253844E-2,3.970507067E-3,6.108472589E-3
1.272833241E1,-1.450762246E-2,3.054236295E-4,2.443389036E-3
1.273804558E1,-1.206423342E-2,-3.359660041E-3,-1.221694518E-3
1.274775949E1,-2.290677279E-3,-3.359660041E-3,-4.886778072E-3
1.275747261E1,5.039489828E-3,-3.359660041E-3,-7.330167107E-3
1.276718485E1,9.926267900E-3,-5.803049076E-3,-7.330167107E-3
1.277689803E1,1.114796288E-2,-1.068982668E-2,-3.665083554E-3
1.278661194E1,1.114796288E-2,-1.679829881E-2,2.443389036E-3
1.279632506E1,1.236965694E-2,-2.046338283E-2,9.773556143E-3
1.280603730E1,1.603474095E-2,-2.412846684E-2,1.343864016E-2
1.281575048E1,1.969982497E-2,-2.290677279E-2,1.099525020E-2
1.282546438E1,2.458660305E-2,-1.068982668E-2,7.330167107E-3
1.283517751E1,2.702999115E-2,1.007897966E-2,-1.221694518E-3
1.284488975E1,3.069507517E-2,2.962609194E-2,-1.099525020E-2
1.285460293E1,3.680354729E-2,4.306473210E-2,-2.199050039E-2
1.286431683E1,4.657710344E-2,5.283828825E-2,-2.809897438E-2
1.287402996E1,4.657710344E-2,4.917320609E-2,-2.199050039E-2
1.288374220E1,3.436015919E-2,2.473931387E-2,-1.466033421E-2
1.289345538E1,2.092151903E-2,-1.068982668E-2,-6.108472589E-3
1.290316928E1,3.817795310E-3,-2.901524492E-2,2.443389036E-3
1.291288230E1,-1.695101149E-2,-3.756710514E-2,1.099525020E-2
1.292259464E1,-3.527642787E-2,-4.978405312E-2,1.588202827E-2
1.293230782E1,-4.260659590E-2,-5.589252338E-2,1.466033421E-2
1.294202173E1,-3.894151375E-2,-4.245388508E-2,1.221694518E-2
1.295173475E1,-2.550287358E-2,-2.290677279E-2,2.443389036E-3
1.296144709E1,-1.572931744E-2,-3.359660041E-3,-3.665083554E-3
1.297116027E1,-8.399149403E-3,1.740914769E-2,-4.886778072E-3
1.298087418E1,-2.290677279E-3,3.084778599E-2,0.000000000E0
1.299058720E1,1.527118147E-4,3.695625812E-2,9.773556143E-3
1.300029954E1,-1.068982761E-3,3.573456407E-2,1.710372418E-2
1.301001272E1,1.527118147E-4,2.718270384E-2,1.954711229E-2
1.301972662E1,2.596100792E-3,2.229592577E-2,1.954711229E-2
1.302943964E1,5.039489828E-3,1.863084175E-2,1.832541823E-2
1.303915199E1,2.596100792E-3,1.985253580E-2,1.343864016E-2
1.304886517E1,-5.955760833E-3,1.863084175E-2,9.773556143E-3
1.305857902E1,-1.328592747E-2,1.130067464E-2,4.886778072E-3
1.306829215E1,-1.572931744E-2,-9.162708884E-4,1.221694518E-3
1.307800444E1,-1.328592747E-2,-7.024743594E-3,-2.443389036E-3
1.308771761E1,-8.399149403E-3,-3.359660041E-3,-3.665083554E-3
1.309743147E1,-2.290677279E-3,2.748812549E-3,0.000000000E0
1.310714459E1,3.817795310E-3,1.130067464E-2,3.665083554E-3
1.311685688E1,1.114796288E-2,1.985253580E-2,6.108472589E-3
1.312657001E1,1.725643501E-2,2.351761982E-2,1.221694518E-3
1.313628397E1,1.969982497E-2,3.451287001E-2,-1.221694518E-3
1.314599699E1,2.825168520E-2,3.939964995E-2,-4.886778072E-3
1.315570933E1,3.069507517E-2,2.351761982E-2,-7.330167107E-3
1.316542251E1,2.336490713E-2,1.252236869E-2,-3.665083554E-3
1.317513636E1,1.359135192E-2,-3.359660041E-3,3.665083554E-3
1.318484949E1,1.374406274E-3,-2.779355086E-2,1.343864016E-2
1.319456178E1,-1.328592747E-2,-4.978405312E-2,1.954711229E-2
1.320427491E1,-2.183778957E-2,-5.955760926E-2,2.199050039E-2
1.321398881E1,-2.183778957E-2,-5.467082933E-2,1.832541823E-2
1.322370194E1,-1.817270555E-2,-4.123219103E-2,1.466033421E-2
1.323341423E1,-1.206423342E-2,-2.779355086E-2,1.343864016E-2
1.324312735E1,-2.290677279E-3,-1.557660475E-2,1.099525020E-2
1.325284126E1,9.926267900E-3,-2.137965523E-3,6.108472589E-3
1.326255439E1,1.969982497E-2,1.374406368E-2,2.443389036E-3
1.327226668E1,2.580829710E-2,3.329117596E-2,-1.221694518E-3
1.328197980E1,2.214321308E-2,4.550812021E-2,-2.443389036E-3
1.329169371E1,1.603474095E-2,3.573456407E-2,0.000000000E0
1.330140683E1,1.114796288E-2,1.618745178E-2,7.330167107E-3
1.331111913E1,5.039489828E-3,3.054236295E-4,1.221694518E-2
1.332083225E1,-1.068982761E-3,-1.191152167E-2,1.221694518E-2
1.333054616E1,-7.177455351E-3,-1.801999472E-2,7.330167107E-3
1.334025928E1,-1.084253844E-2,-2.535016090E-2,4.886778072E-3
1.334997152E1,-9.620844387E-3,-2.779355086E-2,1.221694518E-3
1.335968470E1,-7.177455351E-3,-2.657185495E-2,-6.108472589E-3
1.336939860E1,1.527118147E-4,-1.679829881E-2,-1.099525020E-2
1.337911173E1,5.039489828E-3,-9.162708884E-4,-1.343864016E-2
1.338882397E1,2.596100792E-3,1.130067464E-2,-1.221694518E-2
1.339853714E1,-2.290677279E-3,1.374406368E-2,-1.099525020E-2
1.340825105E1,-1.084253844E-2,1.007897966E-2,-7.330167107E-3
1.341796418E1,-2.794626169E-2,3.970507067E-3,-3.665083554E-3
1.342767642E1,-4.016320780E-2,-1.435491070E-2,-1.221694518E-3
1.343738959E1,-4.382828996E-2,-3.512371704E-2,-2.443389036E-3
1.344710350E1,-3.894151375E-2,-4.856235534E-2,-1.221694518E-3
1.345681662E1,-2.428117767E-2,-5.344913527E-2,2.443389036E-3
1.346652886E1,-9.620844387E-3,-4.978405312E-2,4.886778072E-3
1.347624204E1,-1.068982761E-3,-3.878879920E-2,1.221694518E-2
1.348595595E1,3.817795310E-3,-2.290677279E-2,1.710372418E-2
1.349566897E1,7.482878864E-3,-4.581354558E-3,1.832541823E-2
1.350538131E1,1.236965694E-2,1.985253580E-2,1.832541823E-2
1.351509449E1,1.603474095E-2,4.062134400E-2,2.076880634E-2
1.352480840E1,1.969982497E-2,5.039490014E-2,2.321219631E-2
1.353452142E1,1.847812906E-2,4.795150831E-2,2.199050039E-2
1.354423376E1,1.603474095E-2,3.451287001E-2,1.710372418E-2
1.355394694E1,1.114796288E-2,1.496575773E-2,9.773556143E-3
1.356366084E1,3.817795310E-3,-5.803049076E-3,3.665083554E-3
1.357337386E1,-4.734066315E-3,-2.046338283E-2,-1.221694518E-3
1.358308621E1,-1.817270555E-2,-2.657185495E-2,-6.108472589E-3
1.359279939E1,-2.794626169E-2,-3.268032894E-2,-9.773556143E-3
1.360251324E1,-2.550287358E-2,-3.756710514E-2,-1.221694518E-2
1.361222636E1,-1.695101149E-2,-3.756710514E-2,-1.221694518E-2
1.362193866E1,-1.328592747E-2,-3.878879920E-2,-9.773556143E-3
1.363165178E1,-7.177455351E-3,-4.856235534E-2,-6.108472589E-3
1.364136569E1,-3.512371797E-3,-6.444438547E-2,-1.221694518E-3
1.365107881E1,1.374406274E-3,-7.910472155E-2,4.886778072E-3
1.366079105E1,8.704573847E-3,-8.154810965E-2,8.551862091E-3
1.367050423E1,1.359135192E-2,-6.933116168E-2,9.773556143E-3
1.368021814E1,1.481304597E-2,-4.978405312E-2,1.221694518E-2
1.368993126E1,1.236965694E-2,-3.268032894E-2,1.221694518E-2
1.369964350E1,5.039489828E-3,-2.046338283E-2,9.773556143E-3
1.370935668E1,1.374406274E-3,-1.801999472E-2,7.330167107E-3
1.371907058E1,1.374406274E-3,-1.191152167E-2,6.108472589E-3
1.372878371E1,2.596100792E-3,3.054236295E-4,3.665083554E-3
1.373849595E1,3.817795310E-3,1.252236869E-2,-1.221694518E-3
1.374820912E1,2.596100792E-3,1.863084175E-2,-6.108472589E-3
1.375792303E1,1.527118147E-4,1.863084175E-2,-7.330167107E-3
1.376763605E1,-3.512371797E-3,1.252236869E-2,-6.108472589E-3
1.377734840E1,-9.620844387E-3,8.857285604E-3,-3.665083554E-3
1.378706157E1,-1.084253844E-2,6.413896102E-3,-1.221694518E-3
1.379677543E1,-5.955760833E-3,5.192201585E-3,1.221694518E-3
1.380648855E1,-3.512371797E-3,-9.162708884E-4,3.665083554E-3
1.381620084E1,-2.290677279E-3,-4.581354558E-3,3.665083554E-3
1.382591397E1,3.817795310E-3,2.748812549E-3,3.665083554E-3
1.383562788E1,1.114796288E-2,1.374406368E-2,6.108472589E-3
1.384534100E1,1.725643501E-2,1.740914769E-2,4.886778072E-3
1.385505329E1,2.214321308E-2,1.740914769E-2,3.665083554E-3
1.386476642E1,2.092151903E-2,1.496575773E-2,0.000000000E0
1.387448032E1,1.359135192E-2,1.374406368E-2,-1.221694518E-3
1.388419345E1,6.261184346E-3,1.007897966E-2,-2.443389036E-3
1.389390569E1,-3.512371797E-3,8.857285604E-3,-1.221694518E-3
1.390361886E1,-1.084253844E-2,3.970507067E-3,-1.221694518E-3
1.391333277E1,-8.399149403E-3,3.970507067E-3,-1.221694518E-3
1.392304579E1,2.596100792E-3,6.413896102E-3,-2.443389036E-3
1.393275814E1,8.704573847E-3,8.857285604E-3,-4.886778072E-3
1.394247131E1,7.482878864E-3,5.192201585E-3,-8.551862091E-3
1.395218517E1,2.596100792E-3,1.527118147E-3,-8.551862091E-3
1.396189829E1,1.374406274E-3,-5.803049076E-3,-7.330167107E-3
1.397161058E1,3.817795310E-3,-1.068982668E-2,-6.108472589E-3
1.398132371E1,8.704573847E-3,-9.468132630E-3,-4.886778072E-3
1.399103761E1,8.704573847E-3,-4.581354558E-3,-1.221694518E-3
1.400075074E1,1.527118147E-4,-2.137965523E-3,1.221694518E-3
1.401046298E1,-9.620844387E-3,-9.468132630E-3,4.886778072E-3
1.402017616E1,-1.328592747E-2,-2.046338283E-2,3.665083554E-3
1.402989006E1,-9.620844387E-3,-2.290677279E-2,1.221694518E-3
1.403960319E1,-3.512371797E-3,-8.246437646E-3,-4.886778072E-3
1.404931543E1,-1.068982761E-3,7.635590620E-3,-8.551862091E-3
1.405902860E1,-3.512371797E-3,1.618745178E-2,-7.330167107E-3
1.406874246E1,-8.399149403E-3,1.985253580E-2,-4.886778072E-3
1.407845558E1,-5.955760833E-3,1.985253580E-2,-1.221694518E-3
1.408816788E1,2.596100792E-3,2.351761982E-2,-2.443389036E-3
1.409788100E1,1.481304597E-2,3.206948191E-2,-7.330167107E-3
1.410759491E1,3.313846514E-2,4.062134400E-2,-1.099525020E-2
1.411730803E1,4.413371533E-2,5.405998230E-2,-1.343864016E-2
1.412702027E1,4.657710344E-2,6.505523622E-2,-9.773556143E-3
1.413673345E1,3.680354729E-2,6.383354217E-2,-3.665083554E-3
1.414644735E1,1.969982497E-2,4.795150831E-2,2.443389036E-3
1.415616048E1,2.596100792E-3,2.473931387E-2,8.551862091E-3
1.416587272E1,-1.084253844E-2,3.054236295E-4,1.099525020E-2
1.417558590E1,-1.695101149E-2,-1.313321572E-2,9.773556143E-3
1.418529975E1,-1.572931744E-2,-2.535016090E-2,2.443389036E-3
1.419501288E1,-9.620844387E-3,-2.046338283E-2,-3.665083554E-3
1.420472517E1,-2.290677279E-3,-2.137965523E-3,-2.443389036E-3
1.421443829E1,-7.177455351E-3,1.740914769E-2,2.443389036E-3
1.422415220E1,-1.572931744E-2,1.740914769E-2,1.221694518E-3
1.423386532E1,-1.939439960E-2,1.252236869E-2,-1.221694518E-3
1.424357756E1,-1.695101149E-2,1.374406368E-2,-2.443389036E-3
1.425329074E1,-1.572931744E-2,2.229592577E-2,-1.221694518E-3
1.426300464E1,-1.084253844E-2,3.084778599E-2,-2.443389036E-3
1.427271767E1,-3.512371797E-3,2.107422985E-2,-6.108472589E-3
1.428243001E1,1.374406274E-3,6.413896102E-3,-9.773556143E-3
1.429214319E1,5.039489828E-3,-9.468132630E-3,-8.551862091E-3
1.430185704E1,8.704573847E-3,-2.657185495E-2,-7.330167107E-3
1.431157017E1,1.481304597E-2,-3.634541109E-2,-6.108472589E-3
1.432128241E1,1.847812906E-2,-3.512371704E-2,-3.665083554E-3
1.433099558E1,1.725643501E-2,-3.512371704E-2,-3.665083554E-3
1.434070949E1,1.603474095E-2,-3.878879920E-2,-3.665083554E-3
1.435042261E1,1.114796288E-2,-4.245388508E-2,-4.886778072E-3
1.436013485E1,2.596100792E-3,-4.489727318E-2,-6.108472589E-3
1.436984803E1,-5.955760833E-3,-4.367557913E-2,-6.108472589E-3
1.437956194E1,-9.620844387E-3,-3.390202299E-2,-4.886778072E-3
1.438927496E1,-8.399149403E-3,-1.313321572E-2,-6.108472589E-3
1.439898730E1,-2.290677279E-3,1.496575773E-2,-3.665083554E-3
1.440870043E1,1.527118147E-4,3.329117596E-2,-1.221694518E-3
1.441841433E1,-3.512371797E-3,3.573456407E-2,-2.443389036E-3
1.442812746E1,-5.955760833E-3,3.451287001E-2,-1.221694518E-3
1.443783970E1,-8.399149403E-3,3.573456407E-2,0.000000000E0
1.444755288E1,-9.620844387E-3,3.573456407E-2,2.443389036E-3
1.445726678E1,-8.399149403E-3,3.329117596E-2,3.665083554E-3
1.446697980E1,-3.512371797E-3,2.962609194E-2,4.886778072E-3
1.447669215E1,2.596100792E-3,2.107422985E-2,6.108472589E-3
1.448640527E1,1.725643501E-2,1.252236869E-2,6.108472589E-3
1.449611918E1,2.825168520E-2,1.374406368E-2,4.886778072E-3
1.450583230E1,3.191677108E-2,1.374406368E-2,4.886778072E-3
1.451554454E1,2.825168520E-2,7.635590620E-3,1.221694518E-3
1.452525772E1,1.847812906E-2,2.748812549E-3,-1.221694518E-3
1.453497162E1,2.596100792E-3,-3.359660041E-3,2.443389036E-3
1.454468464E1,-8.399149403E-3,-1.313321572E-2,3.665083554E-3
1.455439699E1,-1.572931744E-2,-3.145863488E-2,1.221694518E-3
1.456411017E1,-1.817270555E-2,-4.611896724E-2,-2.443389036E-3
1.457382402E1,-2.183778957E-2,-4.978405312E-2,-6.108472589E-3
1.458353715E1,-2.305948362E-2,-4.611896724E-2,-9.773556143E-3
1.459324939E1,-2.183778957E-2,-4.245388508E-2,-1.466033421E-2
1.460296256E1,-2.061609551E-2,-3.268032894E-2,-1.343864016E-2
1.461267647E1,-2.183778957E-2,-2.657185495E-2,-1.099525020E-2
1.462238949E1,-2.550287358E-2,-2.535016090E-2,-9.773556143E-3
1.463210183E1,-2.794626169E-2,-2.535016090E-2,-6.108472589E-3
1.464181496E1,-2.794626169E-2,-1.924168877E-2,-1.221694518E-3
1.465152886E1,-2.305948362E-2,-1.068982668E-2,3.665083554E-3
1.466124199E1,-1.450762246E-2,-4.581354558E-3,7.330167107E-3
1.467095423E1,-4.734066315E-3,1.527118147E-3,9.773556143E-3
1.468066741E1,5.039489828E-3,1.007897966E-2,1.343864016E-2
1.469038131E1,1.114796288E-2,1.252236869E-2,1.343864016E-2
1.470009433E1,1.603474095E-2,1.007897966E-2,1.221694518E-2
1.470980668E1,1.847812906E-2,1.252236869E-2,1.466033421E-2
1.471951985E1,1.725643501E-2,1.374406368E-2,1.710372418E-2
1.472923371E1,1.114796288E-2,1.618745178E-2,1.343864016E-2
1.473894683E1,6.261184346E-3,2.107422985E-2,8.551862091E-3
1.474865907E1,3.817795310E-3,2.962609194E-2,6.108472589E-3
1.475837225E1,1.527118147E-4,3.695625812E-2,3.665083554E-3
1.476808616E1,-5.955760833E-3,3.939964995E-2,0.000000000E0
1.477779918E1,-1.206423342E-2,3.695625812E-2,-4.886778072E-3
1.478751152E1,-1.206423342E-2,2.596100792E-2,-9.773556143E-3
1.479722470E1,-9.620844387E-3,1.740914769E-2,-1.343864016E-2
1.480693855E1,-1.450762246E-2,1.130067464E-2,-1.710372418E-2
1.481665168E1,-2.428117767E-2,2.748812549E-3,-1.588202827E-2
1.482636397E1,-3.038965166E-2,-1.068982668E-2,-1.099525020E-2
1.483607709E1,-3.405473381E-2,-2.168507688E-2,-7.330167107E-3
1.484579100E1,-3.527642787E-2,-2.168507688E-2,-3.665083554E-3
1.485550413E1,-3.527642787E-2,-1.068982668E-2,-2.443389036E-3
1.486521636E1,-2.794626169E-2,8.857285604E-3,-3.665083554E-3
1.487492954E1,-1.695101149E-2,2.351761982E-2,-1.221694518E-3
1.488464340E1,-9.620844387E-3,2.718270384E-2,1.221694518E-3
1.489435652E1,-1.068982761E-3,2.473931387E-2,3.665083554E-3
1.490406881E1,7.482878864E-3,2.229592577E-2,3.665083554E-3
1.491378194E1,1.847812906E-2,2.962609194E-2,0.000000000E0
1.492349584E1,2.702999115E-2,4.062134400E-2,-3.665083554E-3
1.493320897E1,2.580829710E-2,4.672981426E-2,-6.108472589E-3
1.494292121E1,1.847812906E-2,3.573456407E-2,-7.330167107E-3
1.495263439E1,1.114796288E-2,1.863084175E-2,-6.108472589E-3
1.496234829E1,8.704573847E-3,5.192201585E-3,-4.886778072E-3
1.497206131E1,5.039489828E-3,-8.246437646E-3,-4.886778072E-3
1.498177366E1,-1.068982761E-3,-1.924168877E-2,-4.886778072E-3
1.499148678E1,-4.734066315E-3,-2.535016090E-2,-6.108472589E-3
1.500120069E1,-3.512371797E-3,-2.657185495E-2,-7.330167107E-3
1.501091381E1,-2.290677279E-3,-2.168507688E-2,-6.108472589E-3
1.502062605E1,1.527118147E-4,-1.924168877E-2,-6.108472589E-3
1.503033923E1,5.039489828E-3,-2.046338283E-2,-1.099525020E-2
1.504005314E1,8.704573847E-3,-1.924168877E-2,-1.710372418E-2
1.504976616E1,1.359135192E-2,-8.246437646E-3,-2.199050039E-2
1.505947850E1,1.481304597E-2,1.007897966E-2,-2.443389036E-2
