"Time (s)","Acceleration x (m/s^2)","Acceleration y (m/s^2)","Acceleration z (m/s^2)"
5.650364800E-2,-2.128714800E0,-2.446661234E0,-1.190518951E1
6.621729400E-2,-2.200499535E0,-2.190330029E0,-1.221177006E1
7.593172100E-2,-2.260320187E0,-1.287936807E0,-1.236730385E1
8.564531500E-2,-2.078465462E0,-7.468597889E-1,-1.262094307E1
9.535817900E-2,-1.570888042E0,-3.445664644E-1,-1.254676533E1
1.050718770E-1,-1.242772222E0,-2.871387303E-1,-1.213011551E1
1.147863040E-1,-1.092024446E0,-5.240281820E-1,-1.199133110E1
1.244998980E-1,-1.075274706E0,-1.060319543E0,-1.198176003E1
1.342127100E-1,-1.341177106E0,-1.701895118E0,-1.146221828E1
1.439264080E-1,-1.463211060E0,-2.298007011E0,-1.153878880E1
1.536408350E-1,-1.499103427E0,-2.685943365E0,-1.107458115E1
1.633544290E-1,-1.832004786E0,-2.673979282E0,-1.119900799E1
1.730672940E-1,-2.025823355E0,-2.501696110E0,-1.162762260E1
1.827809920E-1,-2.083251238E0,-2.226222277E0,-1.122772217E1
1.924954190E-1,-2.324926376E0,-2.113759756E0,-1.077039337E1
2.022089600E-1,-2.202892303E0,-1.735394597E0,-1.089482021E1
2.119218250E-1,-2.200499535E0,-1.807478428E0,-1.021017456E1
2.216355230E-1,-1.858325839E0,-2.161616087E0,-1.018624592E1
2.313499500E-1,-1.084846020E0,-2.434697151E0,-1.070100212E1
2.410635440E-1,-4.791627228E-1,-2.592623234E0,-1.043270683E1
2.507764080E-1,-2.614158690E-1,-2.860619545E0,-9.415457726E0
2.604900020E-1,-3.858426586E-2,-3.243770123E0,-9.587740898E0
2.702044810E-1,-1.944168359E-1,-3.686741590E0,-9.815059662E0
2.799180750E-1,-9.628120065E-1,-3.921238184E0,-1.003789139E1
2.896309400E-1,-1.851147413E0,-3.894917011E0,-1.031067276E1
2.993446370E-1,-3.017050266E0,-3.875774384E0,-1.015513897E1
3.090590650E-1,-3.996013880E0,-3.947559118E0,-9.980463028E0
3.187726580E-1,-4.252345085E0,-4.342673779E0,-9.982855797E0
3.284854710E-1,-3.869194269E0,-4.881358147E0,-9.345767021E0
3.381991690E-1,-3.567698479E0,-5.096712112E0,-9.420243263E0
3.479135960E-1,-2.638685226E0,-5.029713154E0,-9.858130455E0
3.576271900E-1,-2.133500576E0,-5.432006359E0,-8.136793137E0
3.673400540E-1,-2.418545485E0,-5.827121258E0,-7.818548203E0
3.770537520E-1,-2.540579557E0,-5.965905190E0,-7.921439171E0
3.867681790E-1,-2.743969440E0,-6.301199436E0,-7.344470024E0
3.964817210E-1,-2.904288530E0,-6.636194706E0,-7.112366199E0
4.061945850E-1,-2.547757864E0,-6.765407085E0,-7.674978733E0
4.159082830E-1,-2.238784790E0,-6.914061069E0,-7.811369419E0
4.256227100E-1,-2.068894386E0,-7.227520943E0,-7.607680321E0
4.353363040E-1,-2.145464659E0,-7.806882858E0,-6.978068829E0
4.450491690E-1,-2.224427700E0,-7.802097321E0,-6.360421658E0
4.547627620E-1,-2.475973129E0,-7.596314430E0,-6.319743633E0
4.644772420E-1,-2.449652195E0,-7.292127132E0,-6.396314144E0
4.741908350E-1,-2.420938253E0,-6.844669342E0,-6.192924023E0
4.839037000E-1,-1.870290041E0,-6.212365627E0,-5.716453075E0
4.936173980E-1,-9.221340418E-1,-5.649753571E0,-5.575276852E0
5.033318250E-1,-3.403790295E-1,-5.867799282E0,-5.635097504E0
5.130454190E-1,-2.542374134E-1,-7.122236729E0,-5.137091160E0
5.227582310E-1,-2.709871531E-1,-7.660920620E0,-4.524229527E0
5.324719290E-1,-5.270192027E-1,-7.766204834E0,-4.251148701E0
5.421863560E-1,-7.785646915E-1,-8.113463402E0,-4.217648983E0
5.518999500E-1,-9.101698995E-1,-7.900203228E0,-4.019044876E0
5.616128150E-1,-9.149555564E-1,-7.124629498E0,-4.081258297E0
5.713265120E-1,-1.080060363E0,-6.698407650E0,-4.119543076E0
5.810409400E-1,-1.250249863E0,-6.866204739E0,-3.674179077E0
5.907545330E-1,-1.326820135E0,-7.091129780E0,-2.877070189E0
6.004673460E-1,-7.450651526E-1,-7.344769001E0,-2.822035313E0
6.101810440E-1,4.881358147E-1,-7.464709282E0,-2.989532709E0
6.198954710E-1,1.476670623E0,-7.622635841E0,-2.201995134E0
6.296090650E-1,1.022034407E0,-8.635397911E0,-2.379063845E0
6.393219290E-1,-2.805584669E-1,-9.317651749E0,-2.228316069E0
6.490356270E-1,-6.035895348E-1,-8.865108490E0,-1.196411371E0
6.587500540E-1,-3.332005441E-1,-8.530113220E0,-1.450050473E0
6.684636480E-1,1.049850956E-1,-8.290532112E0,-2.410170555E0
6.781764600E-1,2.916252613E-1,-7.938787460E0,-2.841177702E0
6.878901580E-1,-1.226321608E-2,-7.572386265E0,-3.094816923E0
6.976045850E-1,-7.881359458E-1,-7.351947784E0,-3.171387196E0
7.073181790E-1,-1.774278045E0,-7.100701332E0,-3.322434187E0
7.170310440E-1,-2.825325251E0,-6.985845566E0,-2.731107950E0
7.267447420E-1,-3.620340586E0,-6.832705021E0,-2.240280151E0
7.364591690E-1,-3.761517286E0,-6.887740135E0,-1.885843396E0
7.461727620E-1,-3.081656456E0,-7.162914753E0,-1.940878272E0
7.558855750E-1,-2.418545485E0,-7.371089935E0,-3.511467278E-1
7.655992730E-1,-1.666600943E0,-7.174878597E0,-7.031907439E-1
7.753137000E-1,-1.456032634E0,-6.696014881E0,-1.246660590E0
7.850273980E-1,-2.538186550E0,-7.055237770E0,-1.701596022E0
7.947401580E-1,-3.790230989E0,-7.256234646E0,-1.857129455E0
8.044538560E-1,-4.343272209E0,-7.603493214E0,-1.715952992E0
8.141682830E-1,-4.068097591E0,-8.364709854E0,-1.205982566E0
8.238818770E-1,-2.911466837E0,-9.339186668E0,-6.640082598E-2
8.335947420E-1,-1.034596682E0,-1.052183914E1,8.075776696E-1
8.433084400E-1,5.312066078E-1,-1.124477100E1,1.240678549E0
8.530228670E-1,1.599003673E0,-1.169970608E1,8.865407705E-1
8.627364600E-1,1.589432478E0,-1.225514030E1,9.128618240E-1
8.724493250E-1,1.136889815E0,-1.348086357E1,9.511470199E-1
8.821630230E-1,-2.039881349E-1,-1.363191032E1,1.384546995E0
8.918774500E-1,-1.508674622E0,-1.357209015E1,1.863111496E0
9.015910440E-1,-2.097608089E0,-1.340190029E1,1.954337835E0
9.113039080E-1,-2.176571369E0,-1.265025520E1,2.004587173E0
9.210176060E-1,-1.920539260E0,-1.164945698E1,2.038086653E0
9.307320330E-1,-2.028216362E0,-1.038066292E1,1.882553220E0
9.404456270E-1,-2.155035973E0,-9.427721024E0,1.650150299E0
9.501584920E-1,-2.188535452E0,-8.910572052E0,1.247856975E0
9.598721900E-1,-2.214856386E0,-8.640183449E0,1.097109199E0
9.695866170E-1,-2.327319145E0,-8.611469269E0,9.870393276E-1
9.793002100E-1,-2.236391783E0,-8.585148811E0,6.326025128E-1
9.890130750E-1,-2.095215321E0,-8.635397911E0,5.344967842E-1
9.987267730E-1,-1.802991867E0,-8.630612373E0,6.014958024E-1
1.008441200E0,-1.599601984E0,-8.656932831E0,4.339981973E-1
1.018154794E0,-1.527817249E0,-8.728717804E0,5.297111273E-1
1.027867658E0,-1.465603828E0,-8.987142563E0,9.176474810E-1
1.037581356E0,-1.336391449E0,-9.243474007E0,9.511470199E-1
1.047295783E0,-1.211665511E0,-9.468399048E0,7.597211599E-1
1.057009377E0,-9.867402315E-1,-9.770194054E0,6.708876491E-1
1.066722242E0,-7.259225845E-1,-1.015065289E1,6.828517914E-1
1.076435940E0,-3.427718580E-1,-1.062712383E1,5.775675774E-1
1.086150419E0,4.516452923E-2,-1.116580772E1,6.134598851E-1
1.095864012E0,1.839482337E-1,-1.152981567E1,8.219345808E-1
1.105576877E0,3.798605874E-2,-1.173081303E1,1.159322619E0
1.115290575E0,-1.680957973E-1,-1.170209885E1,1.290927768E0
1.125005002E0,-3.547359705E-1,-1.143410301E1,1.063609719E0
1.134718596E0,-6.323033571E-1,-1.074227810E1,7.836494446E-1
1.144431460E0,-8.742775917E-1,-9.533005714E0,4.004986882E-1
1.154145158E0,-7.881359458E-1,-8.405387878E0,-4.663013220E-1
1.163859637E0,-6.801598072E-1,-7.921738625E0,-1.555633783E0
1.173573231E0,-8.862416744E-1,-7.943572998E0,-2.450848579E0
1.183286096E0,-1.621137381E0,-8.374280930E0,-1.938485503E0
1.192999794E0,-2.554936409E0,-8.903393745E0,-1.668993831E-1
1.202714221E0,-2.950051308E0,-8.889037132E0,1.247856975E0
1.212427815E0,-2.882753134E0,-8.585148811E0,1.678864241E0
1.222140679E0,-2.284248352E0,-8.283353806E0,9.415757060E-1
1.231854429E0,-1.549352646E0,-8.087141991E0,-2.578266263E-1
1.241568856E0,-1.310070395E0,-7.613064289E0,-1.198804140E0
1.251282450E0,-1.527817249E0,-6.839883327E0,-1.747059584E0
1.260995315E0,-1.668993831E0,-5.863013744E0,-1.469193101E0
1.270709012E0,-1.795813441E0,-5.178367138E0,-1.337587833E0
1.280423492E0,-1.922932148E0,-5.455934525E0,-2.347957134E0
1.290137085E0,-1.767099500E0,-6.133402824E0,-1.799701691E0
1.299849950E0,-1.994716763E0,-6.253343105E0,-1.227517962E0
1.309563648E0,-2.217249393E0,-6.430411816E0,-1.268195987E0
1.319278127E0,-2.387438774E0,-6.928418159E0,-1.464407444E0
1.328991721E0,-2.456830740E0,-7.351947784E0,-1.605883121E0
1.338704585E0,-2.164607286E0,-7.931309700E0,-2.613560438E0
1.348418283E0,-1.973181367E0,-8.273782730E0,-4.426123619E0
1.358132710E0,-2.397010088E0,-8.115856171E0,-4.864309311E0
1.367846408E0,-3.280260801E0,-7.938787460E0,-5.321338654E0
1.377559221E0,-3.179762125E0,-7.926524162E0,-5.661418438E0
1.387272919E0,-2.210070848E0,-8.326424599E0,-5.144269466E0
1.396987346E0,-6.586244106E-1,-9.174081802E0,-3.080460072E0
1.406701044E0,1.336989701E-1,-9.875477791E0,-1.330409408E0
1.416413856E0,2.892324328E-1,-9.992726326E0,-2.204387903E0
1.426127554E0,1.001994461E-1,-9.343972206E0,-3.856332779E0
1.435841981E0,-1.082453132E0,-8.580363274E0,-4.555335999E0
1.445555679E0,-2.214856386E0,-7.921738625E0,-5.000699997E0
1.455268492E0,-2.703291416E0,-7.608278751E0,-6.240780354E0
1.464982190E0,-2.578864574E0,-7.400103092E0,-6.451348782E0
1.474696617E0,-2.040180445E0,-7.541279793E0,-5.737988472E0
1.484410315E0,-1.214058399E0,-8.479565620E0,-6.116353989E0
1.494123127E0,-3.667000830E-1,-9.200403214E0,-6.535097599E0
1.503836825E0,3.825525343E-1,-9.358329773E0,-5.850451469E0
1.513551252E0,9.834501147E-1,-9.121439934E0,-4.811367989E0
1.523264950E0,9.690931439E-1,-8.458029747E0,-6.353243351E0
1.532977762E0,7.513462901E-1,-7.785347462E0,-7.868797302E0
1.542691460E0,6.191428751E-2,-7.471887589E0,-7.787441254E0
1.552405940E0,-1.448854089E0,-7.337590694E0,-7.667500973E0
1.562119533E0,-3.158226728E0,-6.672086716E0,-8.295019150E0
1.571832398E0,-4.202095509E0,-5.891727448E0,-8.443373680E0
1.581546096E0,-4.963312149E0,-5.422435284E0,-8.608478546E0
1.591260575E0,-5.173880577E0,-4.941178799E0,-9.721739769E0
1.600974169E0,-4.159024715E0,-4.373780727E0,-1.023170948E1
1.610687033E0,-2.289033890E0,-3.945166349E0,-1.053589725E1
1.620400783E0,-1.317248821E0,-4.191926003E0,-9.853344917E0
1.630115210E0,-9.675976634E-1,-4.835894585E0,-8.259126663E0
1.639828908E0,-6.107679605E-1,-5.317151070E0,-8.472087860E0
1.649541721E0,-1.633101404E-1,-5.439185143E0,-8.898308754E0
1.659255419E0,4.088735580E-1,-5.518147945E0,-9.230911255E0
1.668969846E0,9.978070259E-1,-5.283651352E0,-9.039485931E0
1.678683544E0,1.531705618E0,-4.711467743E0,-8.364410400E0
1.688396356E0,1.268495083E0,-3.758526087E0,-9.199805260E0
1.698110054E0,5.599204898E-1,-2.449054003E0,-9.302696228E0
1.707824533E0,-8.240283132E-1,-8.928219676E-1,-1.026760197E1
1.717538127E0,-9.987043738E-1,3.281157911E-1,-1.084217834E1
1.727250992E0,-1.477568030E0,6.418746710E-1,-1.026520920E1
1.736964742E0,-2.808575630E0,5.174478889E-1,-1.043270683E1
1.746679169E0,-2.954836845E0,-3.661018610E-1,-1.025324535E1
1.756392762E0,-1.788634896E0,-8.282157183E-1,-1.030110168E1
1.766105679E0,-3.371187925E0,-2.657229662E0,-1.049521923E1
1.775819377E0,-3.366402388E0,-4.582255363E0,-1.011685371E1
1.785533856E0,-2.466402054E0,-5.350650311E0,-1.111525917E1
1.795247450E0,-1.853540182E0,-5.171188831E0,-1.114397335E1
1.804960315E0,-2.030609131E0,-4.776073933E0,-1.003310490E1
1.814674065E0,-2.770290375E0,-3.782454491E0,-1.058853912E1
1.824388492E0,-3.127120018E0,-2.726621389E0,-1.097378349E1
1.834102085E0,-2.997907639E0,-1.493719578E0,-1.076082230E1
1.843815002E0,-2.444866419E0,-9.239286184E-1,-1.132822037E1
1.853528700E0,-2.523829699E0,9.870393202E-3,-1.026520920E1
1.863243127E0,-2.413759947E0,-3.326023519E-1,-9.683454514E0
1.872956825E0,-2.430509567E0,-1.141675472E0,-1.079192924E1
1.882669637E0,-3.115155935E0,-1.910369754E0,-1.187647629E1
1.892383335E0,-3.515056372E0,-2.350948334E0,-1.184058380E1
1.902097815E0,-2.906681299E0,-3.334697485E0,-1.180708408E1
1.911811408E0,-2.507079840E0,-3.401696444E0,-1.139282703E1
1.921524273E0,-1.870290041E0,-2.858226538E0,-1.164915752E1
1.931238023E0,-9.963115454E-1,-2.175973177E0,-1.149811077E1
1.940952502E0,-6.323033571E-1,-1.572682738E0,-1.185015488E1
1.950666096E0,-1.111167073E0,-1.151246786E0,-1.131625652E1
1.960378960E0,-2.092822552E0,-1.120140076E0,-1.159143066E1
1.970092658E0,-2.559721947E0,-1.584646821E0,-1.183579826E1
1.979807137E0,-2.598007202E0,-2.087438583E0,-1.145264721E1
1.989520731E0,-2.385046005E0,-2.312364101E0,-1.154835987E1
1.999233596E0,-2.485544443E0,-2.444268227E0,-1.095464134E1
2.008947346E0,-2.667398930E0,-2.240579367E0,-1.136411285E1
2.018661773E0,-2.535793781E0,-2.202294111E0,-1.105783176E1
2.028375471E0,-2.205285072E0,-2.204686880E0,-1.092592716E1
2.038088283E0,-2.078465462E0,-2.015654087E0,-1.103360462E1
2.047801981E0,-2.688934565E0,-1.790728688E0,-9.898808479E0
2.057516460E0,-3.445365429E0,-1.692323804E0,-9.719346046E0
2.067230054E0,-3.739981890E0,-1.994118571E0,-9.570991516E0
2.076942971E0,-3.555734396E0,-2.408375978E0,-1.024606609E1
2.086656669E0,-3.457329512E0,-2.781656265E0,-1.039202881E1
2.096371096E0,-3.256332397E0,-3.035594702E0,-1.021496010E1
2.106084794E0,-2.990729094E0,-3.162414312E0,-1.008096218E1
2.115797606E0,-3.206083298E0,-3.282055378E0,-9.561420441E0
2.125511304E0,-3.646661758E0,-3.337090254E0,-9.513564110E0
2.135225783E0,-3.651447296E0,-3.476173162E0,-9.908379555E0
2.144939377E0,-3.151048422E0,-3.832703590E0,-1.041835022E1
2.154652294E0,-2.598007202E0,-4.553242207E0,-9.436993599E0
2.164365992E0,-2.121536493E0,-5.216652393E0,-9.285946846E0
2.174080419E0,-2.174178362E0,-5.309972763E0,-9.056235313E0
2.183794117E0,-2.214856386E0,-5.812764645E0,-9.190233231E0
2.193506929E0,-1.942074656E0,-6.181259155E0,-9.918250084E0
2.203220627E0,-1.518245935E0,-6.940382004E0,-8.879166603E0
2.212935106E0,-2.102393866E0,-6.839883327E0,-8.405088425E0
2.222648700E0,-2.576471806E0,-6.411269188E0,-8.362017632E0
2.232361565E0,-1.326820135E0,-7.225128174E0,-8.053044319E0
2.242075315E0,-1.182951689E0,-6.509375095E0,-7.421040535E0
2.251789742E0,-7.331010103E-1,-6.870990276E0,-7.035496712E0
2.261503440E0,2.246262282E-1,-8.587541580E0,-6.470491409E0
2.271216252E0,-3.140579537E-2,-8.767003059E0,-6.173781395E0
2.280929950E0,-2.224427700E0,-8.044071198E0,-5.790630817E0
2.290644429E0,-3.962514400E0,-7.792526245E0,-5.883950710E0
2.300358023E0,-3.885943890E0,-6.662515640E0,-5.891129494E0
2.310070887E0,-3.100799084E0,-6.138188362E0,-6.300601006E0
2.319784637E0,-1.293320656E0,-6.976274490E0,-5.587240696E0
2.329499065E0,-1.298106313E-1,-7.244270325E0,-4.552943230E0
2.339212762E0,4.064807594E-1,-8.510971069E0,-4.586442947E0
2.348925575E0,6.879365072E-3,-9.241081238E0,-4.378267288E0
2.358639273E0,-9.197412133E-1,-8.953642845E0,-4.471587181E0
2.368353752E0,-3.067299604E0,-8.044071198E0,-4.543372154E0
2.378067346E0,-4.053740501E0,-7.098308563E0,-4.325624943E0
2.387780210E0,-3.414258718E0,-6.571588516E0,-4.167399883E0
2.397493960E0,-1.875075698E0,-6.466304302E0,-3.856332779E0
2.407208387E0,-2.039881349E-1,-6.401698112E0,-3.166601658E0
2.416922085E0,1.390529037E0,-7.543672562E0,-3.056531906E0
2.426634898E0,1.577468276E0,-8.426922798E0,-3.248256683E0
2.436348596E0,1.467099428E0,-9.513862610E0,-3.430111170E0
2.446063075E0,1.435992718E0,-9.633803368E0,-2.340778828E0
2.455776669E0,8.542376757E-1,-8.939286232E0,-2.029412746E0
2.465489533E0,9.523434043E-1,-8.580363274E0,-2.321636200E0
2.475203283E0,3.080759197E-2,-8.022536278E0,-2.012662888E0
2.484917710E0,-1.757528186E0,-7.773383617E0,-2.249851465E0
2.494631408E0,-3.562912941E0,-7.445566654E0,-2.319243431E0
2.504344221E0,-4.541876316E0,-6.825526714E0,-2.565704107E0
2.514057919E0,-4.173381805E0,-6.612266064E0,-4.109972000E0
2.523772398E0,-2.887538671E0,-6.693622112E0,-5.115555763E0
2.533485992E0,-1.764706731E0,-6.159723759E0,-4.718048096E0
2.543198856E0,-1.755135417E0,-5.953940868E0,-4.059722900E0
2.552912606E0,-1.673779488E0,-6.585945129E0,-2.424527645E0
2.562627033E0,-1.798206210E0,-7.407281399E0,-9.643075466E-1
2.572340731E0,-1.745564103E0,-7.682456017E0,-6.385845542E-1
2.582053544E0,-1.424925923E0,-6.669693947E0,-5.763711333E-1
2.591767242E0,-2.562114954E0,-6.382555485E0,-1.055234790E0
2.601481721E0,-4.118346691E0,-6.478268147E0,-2.776571512E0
2.611195315E0,-5.090131760E0,-6.049654007E0,-2.642573595E0
2.620908179E0,-4.963312149E0,-6.770192623E0,-2.556132793E0
2.630621929E0,-3.651447296E0,-7.921738625E0,-1.639382601E0
2.640336356E0,-2.229213476E0,-9.207581520E0,-7.869395614E-1
2.650050054E0,-7.163512707E-1,-9.949655533E0,-3.224328458E-1
2.659762867E0,8.111668825E-1,-1.048594666E1,-3.535395563E-1
2.669476565E0,1.275673628E0,-1.142453194E1,-4.304089844E-1
2.679191044E0,9.140582681E-1,-1.129980564E1,-3.439682424E-1
2.688904637E0,5.952146277E-2,-1.139581776E1,1.657029688E-1
2.698617502E0,-3.667000830E-1,-1.152503014E1,1.398903966E0
2.708331252E0,-1.489532143E-1,-1.194885921E1,2.985943556E0
2.718045679E0,2.270190418E-1,-1.235324574E1,4.192823410E0
2.727759377E0,8.805587292E-1,-1.258804131E1,3.611068487E0
2.737472190E0,6.245267391E-1,-1.205892849E1,2.097907305E0
2.747185887E0,-8.165507019E-2,-1.121127129E1,3.119642437E-1
2.756900367E0,-1.137488008E0,-1.037348461E1,-7.055835724E-1
2.766613960E0,-1.719243050E0,-9.865906715E0,-4.519443810E-1
2.776326825E0,-1.918146491E0,-9.657731056E0,2.377867550E-1
2.786040575E0,-2.033001900E0,-9.636196136E0,4.507479668E-1
2.795755002E0,-1.977967024E0,-9.645767212E0,9.056833982E-1
2.805468700E0,-1.795813441E0,-9.751050949E0,1.662114382E0
2.815181512E0,-1.441675663E0,-9.897013664E0,2.251047850E0
2.824895210E0,-1.161416292E0,-9.918548584E0,2.540878534E0
2.834609690E0,-9.221340418E-1,-9.724730492E0,2.241476536E0
2.844323283E0,-8.312067389E-1,-9.473184586E0,1.245464206E0
2.854036200E0,-7.977072597E-1,-9.238688469E0,4.698905349E-1
2.863749898E0,-9.317052960E-1,-9.099904060E0,-7.597211748E-2
2.873464325E0,-1.185344458E0,-9.087940216E0,-2.099701911E-1
2.883178023E0,-1.118345499E0,-9.190832138E0,8.195417374E-2
2.892890835E0,-1.096810102E0,-9.406186104E0,5.297111273E-1
2.902604533E0,-1.211665511E0,-9.629017830E0,8.913264275E-1
2.912319012E0,-1.044167995E0,-9.782157898E0,1.324726462E0
2.922032606E0,-1.130309582E0,-9.832406998E0,1.858325839E0
2.931745523E0,-7.929216027E-1,-1.017966557E1,1.843968987E0
2.941459221E0,-7.331010103E-1,-1.016261673E1,1.690828323E0
2.951173700E0,-6.900302172E-1,-1.029691410E1,1.106680512E0
2.960887294E0,-7.761718631E-1,-1.040698433E1,6.756733060E-1
2.970600158E0,-8.982058167E-1,-1.032802105E1,6.038886309E-1
2.980313856E0,-1.051346421E0,-1.027777100E1,4.148556292E-1
2.990028335E0,-1.223629713E0,-1.014826012E1,5.656034350E-1
2.999741929E0,-1.017846942E0,-1.046919727E1,4.459623098E-1
3.009454846E0,-9.245268703E-1,-1.039023399E1,5.871388316E-1
3.019168544E0,-9.101698995E-1,-1.058405304E1,7.235297561E-1
3.028883023E0,-9.963115454E-1,-1.094806099E1,7.402794957E-1
3.038596617E0,-1.630708575E0,-1.052901745E1,1.118644595E0
3.048309481E0,-2.428116798E0,-9.772586823E0,2.617149651E-1
3.058023231E0,-2.909074068E0,-9.403793335E0,-9.257232547E-1
3.067737658E0,-3.033800125E0,-9.303294182E0,-1.782951951E0
3.077451356E0,-2.329711914E0,-9.425328255E0,-2.331207514E0
3.087164169E0,-1.149452209E0,-9.655338287E0,-2.652144909E0
3.096877867E0,-6.251249462E-2,-9.528220177E0,-3.458825111E0
3.106592346E0,3.466601670E-1,-9.071190834E0,-4.342374802E0
3.116305940E0,3.080759197E-2,-8.654540062E0,-4.459623337E0
3.126018804E0,-4.648058116E-1,-8.520542145E0,-3.650250912E0
3.135732554E0,-1.060917735E0,-8.630612373E0,-1.711167336E0
3.145446981E0,-1.764706731E0,-8.757431984E0,3.287140131E-1
3.155160575E0,-2.277069807E0,-8.345566750E0,1.415653706E0
3.164873492E0,-2.655434847E0,-7.953144073E0,1.089930773E0
3.174587190E0,-2.825325251E0,-7.404888630E0,-2.506481707E-1
3.184301669E0,-2.650649309E0,-6.954739094E0,-1.751845241E0
3.194015262E0,-2.423331022E0,-6.301199436E0,-2.436491728E0
3.203728127E0,-2.231606245E0,-5.506184101E0,-2.635395050E0
3.213441877E0,-2.190928221E0,-4.936393261E0,-3.025425196E0
3.223156304E0,-2.123929262E0,-5.796014786E0,-2.652144909E0
3.232870002E0,-2.171785593E0,-7.380960464E0,-1.069591761E0
3.242582815E0,-2.334497690E0,-8.247461319E0,6.397809386E-1
3.252296512E0,-2.870789051E0,-7.965108395E0,2.784647346E-1
3.262010992E0,-4.017549038E0,-7.376174927E0,-2.237887383E0
3.271724585E0,-5.042275429E0,-6.652944088E0,-4.622334957E0
3.281437450E0,-5.473282814E0,-6.478268147E0,-5.663811207E0
3.291151200E0,-5.015954494E0,-6.763014317E0,-5.907878876E0
3.300865627E0,-3.084049225E0,-7.770990849E0,-5.141876698E0
3.310579325E0,-1.489532143E-1,-9.308079720E0,-2.755036116E0
3.320292137E0,2.065604210E0,-1.010997486E1,-9.714859724E-1
3.330005835E0,2.606681108E0,-9.748658180E0,-1.687239051E0
3.339720315E0,1.764108539E0,-9.080761909E0,-3.276970625E0
3.349433908E0,4.666004181E-1,-8.671290398E0,-4.785047054E0
3.359146773E0,-1.094417214E0,-8.426922798E0,-5.371587753E0
3.368860523E0,-2.241177559E0,-8.072785378E0,-5.481956482E0
3.378574950E0,-2.966800928E0,-8.058428764E0,-5.929414749E0
3.388288648E0,-3.170190811E0,-8.015357971E0,-5.680561066E0
3.398001460E0,-3.311367512E0,-7.924131393E0,-4.627120972E0
3.407715158E0,-3.172583818E0,-8.115856171E0,-4.648656368E0
3.417429637E0,-2.308176517E0,-8.798110008E0,-5.060520649E0
3.427143231E0,-1.159023523E0,-9.377471924E0,-5.520241737E0
3.436856096E0,1.121635586E-1,-9.987940788E0,-5.302196026E0
3.446569846E0,1.285244823E0,-9.889835358E0,-5.213661671E0
3.456284273E0,1.972284079E0,-9.174081802E0,-6.300601006E0
3.465997867E0,1.594218135E0,-7.747062206E0,-7.313363075E0
3.475710783E0,1.336989701E-1,-6.392126560E0,-7.677371502E0
3.485424481E0,-1.386640668E0,-5.575575829E0,-7.279863834E0
3.495138908E0,-2.432902336E0,-5.063212872E0,-6.789036274E0
3.504852606E0,-2.894717216E0,-4.831109047E0,-7.248756886E0
3.514565419E0,-3.009871721E0,-4.639683247E0,-8.836095810E0
3.524279117E0,-3.256332397E0,-4.306781769E0,-1.019103146E1
3.533993596E0,-3.241975546E0,-4.215854168E0,-9.630811691E0
3.543707190E0,-3.213261604E0,-4.357030869E0,-8.565407753E0
3.553420054E0,-3.246761322E0,-4.163212299E0,-7.938189030E0
3.563133804E0,-3.103191853E0,-3.722633839E0,-8.136793137E0
3.572848231E0,-2.598007202E0,-3.646063566E0,-8.316554070E0
3.582561929E0,-1.994716763E0,-3.765704632E0,-8.917451859E0
3.592274742E0,-1.336391449E0,-4.129712582E0,-9.340981483E0
3.601988440E0,-7.570292354E-1,-4.555634975E0,-1.019342422E1
3.611702867E0,-3.308077157E-1,-4.907679081E0,-1.021974564E1
3.621416565E0,-2.542374134E-1,-5.063212872E0,-9.422636032E0
3.631129377E0,-7.953144312E-1,-5.003392220E0,-9.879665375E0
3.640843075E0,-9.029914737E-1,-4.491028786E0,-8.970093727E0
3.650557554E0,-1.080060363E0,-3.691527128E0,-8.675477982E0
3.660271148E0,-1.680957913E0,-2.595016241E0,-1.005464077E1
3.669984012E0,-2.200499535E0,-1.362114310E0,-1.084457111E1
3.679697762E0,-3.009871721E0,-7.013961077E-1,-9.975677490E0
3.689412190E0,-4.060919285E0,-1.914258152E-1,-9.838987350E0
3.699125783E0,-4.431806564E0,-2.632105052E-1,-1.070818043E1
3.708838700E0,-3.684946775E0,-1.249651670E0,-1.088285637E1
3.718552398E0,-2.557329178E0,-2.408375978E0,-1.043270683E1
3.728266825E0,-2.138286114E0,-3.435195923E0,-1.004028416E1
3.737980523E0,-1.776670814E0,-3.672384501E0,-1.048086262E1
3.747693335E0,-1.922932148E0,-3.557528973E0,-1.096421242E1
3.757407033E0,-2.641077995E0,-2.800798893E0,-1.086849976E1
3.767121512E0,-2.854039192E0,-1.771586061E0,-1.088285637E1
3.776835106E0,-2.784647465E0,-8.784649968E-1,-1.130429268E1
3.786547971E0,-2.344068766E0,-4.163511395E-1,-1.080389309E1
3.796261669E0,-1.829612017E0,-4.283152521E-1,-1.148136139E1
3.805976148E0,-1.635494232E0,-1.045962572E0,-1.156271744E1
3.815689742E0,-2.116750717E0,-2.132902384E0,-1.136411285E1
3.825402606E0,-2.430509567E0,-3.267698526E0,-1.161087322E1
3.835116356E0,-2.308176517E0,-4.189533234E0,-1.131864929E1
3.844830783E0,-2.238784790E0,-3.940380573E0,-1.160130119E1
3.854544377E0,-2.293819666E0,-2.645265341E0,-1.194586754E1
3.864257294E0,-2.061715841E0,-1.311864972E0,-1.229551888E1
3.873970992E0,-1.841576099E0,-6.990033388E-1,-1.173051357E1
3.883685419E0,-1.769492388E0,-6.053841114E-1,-1.232901859E1
3.893399117E0,-1.714457393E0,-1.264008522E0,-1.168505001E1
3.903111929E0,-2.150250196E0,-2.058724880E0,-1.121097183E1
3.912825627E0,-2.382653236E0,-2.664407969E0,-1.160608673E1
3.922540054E0,-2.262712955E0,-2.846262455E0,-1.140718365E1
3.932253752E0,-2.025823355E0,-2.427518606E0,-1.152921772E1
3.941966565E0,-2.241177559E0,-1.697109461E0,-1.137607670E1
3.951680262E0,-2.428116798E0,-1.060319543E0,-1.091157055E1
3.961394742E0,-2.473580360E0,-8.377870321E-1,-1.117268753E1
3.971108335E0,-2.413759947E0,-9.454640746E-1,-1.127797127E1
3.980821200E0,-2.289033890E0,-1.326221943E0,-1.173290634E1
3.990534898E0,-2.128714800E0,-1.807478428E0,-1.083978558E1
4.000249377E0,-1.985145450E0,-2.382055044E0,-1.034417248E1
4.009962971E0,-2.178964138E0,-2.796013355E0,-1.030827999E1
4.019675835E0,-2.052144527E0,-2.978166819E0,-1.043988514E1
4.029389533E0,-2.023430586E0,-2.954238653E0,-1.007139015E1
4.039104012E0,-2.269891262E0,-2.626122952E0,-1.043509960E1
4.048817606E0,-2.538186550E0,-2.266900301E0,-1.040877819E1
4.058530471E0,-2.791825771E0,-1.893620014E0,-1.133539867E1
4.068244169E0,-2.633899450E0,-1.723430514E0,-1.060528946E1
4.077958648E0,-2.593221426E0,-1.587039590E0,-1.000917721E1
4.087672242E0,-2.535793781E0,-1.529611826E0,-9.910772324E0
4.097385106E0,-2.346461773E0,-1.922333837E0,-9.441779137E0
4.107098804E0,-2.300997972E0,-2.563909531E0,-9.307481766E0
4.116813283E0,-2.284248352E0,-3.334697485E0,-9.465706825E0
4.126526877E0,-2.009073734E0,-3.971487284E0,-9.575777054E0
4.136239742E0,-1.702493310E0,-4.675575256E0,-8.613264084E0
4.145953440E0,-1.127916813E0,-5.101497650E0,-9.197412491E0
4.155667919E0,-7.307082415E-1,-5.140082359E0,-9.410672188E0
4.165381512E0,-6.394818425E-1,-5.125426292E0,-8.725727081E0
4.175094377E0,-1.194915771E0,-5.185545921E0,-8.663513184E0
4.184808075E0,-1.939681888E0,-5.053641319E0,-1.017428207E1
4.194522554E0,-3.024228811E0,-4.785645485E0,-9.831809044E0
4.204236148E0,-3.914657831E0,-4.431208611E0,-8.476873398E0
4.213949012E0,-3.828516245E0,-4.330709934E0,-7.868797302E0
4.223662710E0,-3.017050266E0,-4.211068630E0,-8.065009117E0
4.233377190E0,-1.944467545E0,-4.074677944E0,-8.431409836E0
4.243090783E0,-1.719243050E0,-4.553242207E0,-7.504789352E0
4.252803648E0,-1.585245013E0,-5.587540150E0,-6.324529171E0
4.262517346E0,-1.381855130E0,-6.372983932E0,-6.312565327E0
4.272231825E0,-8.934201598E-1,-6.569195271E0,-7.150651455E0
4.281945419E0,-2.279163599E-1,-6.731907368E0,-7.864011765E0
4.291658283E0,2.509472668E-1,-6.650551319E0,-7.686942577E0
4.301371981E0,7.866404206E-2,-6.305984974E0,-7.437789917E0
4.311086408E0,-7.642077208E-1,-6.054439545E0,-6.901498795E0
4.320800106E0,-2.741576433E0,-6.456732750E0,-5.716453075E0
4.330512919E0,-3.723232031E0,-7.162914753E0,-4.840082169E0
4.340226617E0,-3.476472139E0,-7.636992455E0,-4.749154568E0
4.349941044E0,-2.147857428E0,-7.866703510E0,-4.902594566E0
4.359654742E0,-5.772684813E-1,-8.158926964E0,-4.924129963E0
4.369367554E0,6.604190469E-1,-7.826025486E0,-5.330909729E0
4.379081252E0,1.069890857E0,-7.186842918E0,-5.510670662E0
4.388795679E0,1.055533886E0,-7.043273449E0,-5.096413136E0
4.398509273E0,3.777668774E-1,-8.321639061E0,-4.328018188E0
4.408222137E0,-1.137488008E0,-9.059226990E0,-3.839582920E0
4.417935887E0,-1.633101463E0,-9.241081238E0,-3.724428415E0
4.427650315E0,-1.185344458E0,-9.772586823E0,-3.647858143E0
4.437363908E0,-4.456632137E-1,-9.760622978E0,-2.683251381E0
4.447076773E0,1.624128371E-1,-9.111868858E0,-1.189232826E0
4.456790471E0,1.863410622E-1,-8.285746574E0,-1.445264935E0
4.466504950E0,-1.752742529E-1,-7.296912670E0,-3.023032188E0
4.476218544E0,-9.699904919E-1,-6.573981285E0,-3.614358664E0
4.485931408E0,-1.654636860E0,-6.830312252E0,-3.186043262E0
4.495645106E0,-2.406581402E0,-7.785347462E0,-3.164208889E0
4.505359585E0,-2.461616278E0,-7.873881817E0,-3.080460072E0
4.515073179E0,-2.025823355E0,-8.168498039E0,-1.756630898E0
4.524786044E0,-1.470389485E0,-8.041678429E0,-9.041878581E-1
4.534499742E0,-1.302891970E0,-7.464709282E0,-1.481157184E0
4.544214169E0,-1.257428288E0,-6.717550278E0,-1.967199326E0
4.553927762E0,-1.293320656E0,-6.186044693E0,-3.032603502E0
4.563640627E0,-1.621137381E0,-5.977869034E0,-4.136292934E0
4.573354325E0,-2.135893345E0,-6.150152206E0,-3.865904093E0
4.583068804E0,-2.320140600E0,-7.014559746E0,-3.023032188E0
4.592782398E0,-2.358425856E0,-7.742276669E0,-2.563311338E0
4.602495262E0,-2.312962294E0,-8.161319733E0,-2.036591291E0
4.612208960E0,-1.724028707E0,-8.640183449E0,-1.632204175E0
4.621923387E0,-1.048953652E0,-9.303294182E0,-1.055234790E0
4.631637085E0,-5.916253924E-1,-9.772586823E0,-4.615156651E-1
4.641349898E0,-5.318048596E-1,-1.019641590E1,-7.989036441E-1
4.651063596E0,-4.887340367E-1,-1.003818989E1,-1.275374413E0
4.660778023E0,-8.431708813E-1,-1.026102161E1,-1.215553880E0
4.670491617E0,-9.939187169E-1,-1.069412231E1,-8.994022012E-1
4.680204481E0,-1.130309582E0,-1.094327545E1,-9.690931439E-1
4.689918179E0,-1.089631557E0,-1.116580772E1,-7.342974544E-1
4.699632658E0,-1.027418256E0,-1.108445168E1,-3.487538993E-1
4.709346252E0,-7.953144312E-1,-1.090499020E1,-2.673979402E-1
4.719059117E0,-6.418746710E-1,-1.051705360E1,-9.990034252E-2
4.728772815E0,-5.964110494E-1,-1.006929684E1,-9.272187948E-2
4.738487242E0,-6.514459848E-1,-9.925727844E0,5.084748194E-2
4.748200835E0,-1.003489971E0,-9.724730492E0,6.520441920E-2
4.757913700E0,-1.343569875E0,-9.506684303E0,1.800599098E-1
4.767627450E0,-1.695314884E0,-9.303294182E0,2.282154560E-1
4.777341877E0,-1.858325839E0,-9.286544800E0,1.875374764E-1
4.787055471E0,-1.954038739E0,-9.178867340E0,4.818546474E-1
4.796768335E0,-1.666600943E0,-9.300901413E0,5.129613280E-1
4.806482033E0,-1.429711580E0,-9.554540634E0,1.776670814E-1
4.816196460E0,-1.331605792E0,-9.751050949E0,1.513460279E-1
4.825910054E0,-1.250249863E0,-9.672088623E0,-5.285146832E-1
4.835622919E0,-1.331605792E0,-9.722337723E0,-5.596213937E-1
4.845336617E0,-1.324427366E0,-9.959226608E0,-9.750752151E-2
4.855051096E0,-1.298106313E0,-1.013868904E1,2.760719061E-1
4.864764690E0,-1.245165110E0,-1.013868904E1,4.459623098E-1
4.874477554E0,-1.290927768E0,-1.002861881E1,3.574278951E-1
4.884191252E0,-1.290927768E0,-9.968798637E0,2.449652255E-1
4.893905679E0,-1.362712502E0,-1.003579712E1,4.818546474E-1
4.903619273E0,-1.362712502E0,-1.007886791E1,5.153541565E-1
4.913332137E0,-1.247856975E0,-1.001426220E1,1.848455518E-1
4.923045835E0,-1.125523925E0,-1.002383327E1,1.226321608E-1
4.932760315E0,-9.269196987E-1,-9.956833839E0,3.550350666E-1
4.942473908E0,-8.431708813E-1,-9.844371796E0,6.302096844E-1
4.952186773E0,-9.723833203E-1,-9.751050949E0,5.703890920E-1
4.961900471E0,-1.218844056E0,-9.633803368E0,4.076771438E-1
4.971614898E0,-1.592423439E0,-9.446864128E0,3.669991791E-1
4.981328492E0,-1.740778446E0,-9.353543282E0,2.018944174E-1
4.991041356E0,-1.494317770E0,-9.461220741E0,2.162513435E-1
5.000755054E0,-1.142273664E0,-9.705587387E0,3.669991791E-1
5.010469533E0,-8.479565382E-1,-1.005733299E1,3.334996700E-1
5.020183127E0,-4.576273263E-1,-1.030169964E1,2.497508675E-1
5.029895940E0,-2.829512656E-1,-1.040219784E1,2.066800594E-1
5.039609690E0,-4.408775866E-1,-1.016979504E1,-7.118647546E-2
5.049324117E0,-8.934201598E-1,-9.684052467E0,-4.328017831E-1
5.059037710E0,-1.271785259E0,-9.212367058E0,-8.084749579E-1
5.068750575E0,-1.592423439E0,-8.695218086E0,-1.464407444E0
5.078464273E0,-1.910967946E0,-8.197212219E0,-2.175673962E0
5.088178700E0,-2.176571369E0,-8.041678429E0,-2.477169752E0
5.097892294E0,-2.040180445E0,-8.496614456E0,-1.950449586E0
5.107605158E0,-1.168594718E0,-9.415757179E0,-1.418943882E0
5.117318856E0,-2.901297510E-1,-1.009561825E1,-6.912266612E-1
5.127033283E0,4.040879309E-1,-1.007647514E1,-1.079162955E0
5.136746877E0,1.073779166E-1,-9.334401131E0,-2.264208317E0
5.146459742E0,-8.910273314E-1,-8.123034477E0,-3.731606960E0
5.156173492E0,-2.696112871E0,-6.784549713E0,-4.835296154E0
5.165887919E0,-4.522733688E0,-5.977869034E0,-5.046164036E0
5.175601512E0,-5.516353607E0,-5.941977024E0,-3.784548044E0
5.185314377E0,-5.418247700E0,-6.605087757E0,-1.641775489E0
5.195028075E0,-4.221238136E0,-7.730312824E0,-2.195414752E-1
5.204742502E0,-2.497508526E0,-8.355138779E0,-4.543372095E-1
5.214456096E0,-1.084846020E0,-8.580363274E0,-1.727917075E0
5.224168960E0,-5.700899959E-1,-8.161319733E0,-2.225923300E0
5.233882658E0,-8.096713424E-1,-7.794919014E0,-2.089532375E0
5.243597085E0,-1.532602906E0,-7.694420338E0,-1.912164450E0
5.253310679E0,-2.336890459E0,-7.689634800E0,-2.563311338E0
5.263023544E0,-2.858824968E0,-7.342376232E0,-3.523431301E0
5.272737242E0,-3.143869877E0,-7.026523590E0,-3.868296862E0
5.282451669E0,-3.105584621E0,-7.402495861E0,-4.220041752E0
5.292165262E0,-2.329711914E0,-8.400602341E0,-5.390730381E0
5.301878127E0,-1.250249863E0,-9.097511292E0,-5.249553680E0
5.311591825E0,-1.245165110E0,-9.305686951E0,-4.246362686E0
5.321306304E0,-1.362712502E0,-9.473184586E0,-3.544966698E0
5.331019898E0,-1.230808139E0,-9.446864128E0,-3.535395384E0
5.340732710E0,-1.338784218E0,-9.011071205E0,-3.968795538E0
5.350446408E0,-1.151844978E0,-8.597112656E0,-4.469194412E0
5.360160887E0,-6.227321029E-1,-8.474779129E0,-5.501099110E0
5.369874481E0,-4.073780477E-1,-8.369495392E0,-5.244768143E0
5.379587294E0,-9.053842425E-1,-8.173283577E0,-4.366302967E0
5.389301044E0,-1.192523003E0,-7.818847179E0,-4.957629204E0
5.399015471E0,-1.647458434E0,-7.232306480E0,-5.721239090E0
5.408729065E0,-1.918146491E0,-6.693622112E0,-6.255137444E0
5.418441929E0,-1.882254124E0,-6.389733791E0,-6.571289062E0
5.428155627E0,-1.901396751E0,-6.087938786E0,-6.848856449E0
5.437870054E0,-1.863111496E0,-5.870192051E0,-5.843272686E0
5.447583648E0,-1.918146491E0,-5.803193092E0,-7.078567505E0
5.457296512E0,-2.064108610E0,-5.592325687E0,-7.387540817E0
5.467010210E0,-1.970788598E0,-5.700301647E0,-6.212066650E0
5.476724637E0,-1.704886079E0,-5.946762562E0,-5.489135265E0
5.486438231E0,-1.329213023E0,-5.944369793E0,-6.853642464E0
5.496151096E0,-1.307677627E0,-5.644967556E0,-8.984451294E0
5.505864794E0,-1.841576099E0,-5.561218739E0,-9.130413055E0
5.515579221E0,-1.668993831E0,-5.877370834E0,-8.280661583E0
5.525292815E0,-9.628120065E-1,-5.987440586E0,-7.602894783E0
5.535005679E0,-2.494517565E-1,-5.630610943E0,-8.316554070E0
5.544719377E0,2.294118702E-1,-5.075176716E0,-9.259625435E0
5.554433804E0,2.820539773E-1,-4.893322468E0,-9.429815292E0
5.564147398E0,-2.039881349E-1,-4.723432064E0,-8.718548775E0
5.573860262E0,-1.290927768E0,-4.347459793E0,-8.259126663E0
5.583573960E0,-2.004287958E0,-4.007678986E0,-8.242376328E0
5.593288387E0,-2.255534410E0,-3.669991732E0,-8.340482712E0
5.603001981E0,-2.317747831E0,-3.243770123E0,-8.187042236E0
5.612714846E0,-1.834397674E0,-3.162414312E0,-9.750452995E0
5.622428544E0,-1.549352646E0,-2.870190859E0,-1.069621658E1
5.632142971E0,-1.444068432E0,-2.278864384E0,-1.065553856E1
5.641856565E0,-2.068894386E0,-1.888834357E0,-1.038245773E1
5.651569429E0,-2.665006161E0,-1.826620936E0,-1.035374355E1
5.661283127E0,-2.885145903E0,-2.278864384E0,-1.016710377E1
5.670997554E0,-2.377867460E0,-2.827120066E0,-9.542277336E0
5.680711148E0,-1.300499082E0,-3.420839071E0,-8.692227364E0
5.690424012E0,-4.552344978E-1,-3.490530014E0,-9.070592880E0
5.700137710E0,1.911267042E-1,-2.963809967E0,-9.738489151E0
5.709852137E0,-7.354938388E-1,-2.020439625E0,-1.025324535E1
5.719565731E0,-2.078465462E0,-1.053141117E0,-1.129711437E1
5.729278596E0,-3.419044495E0,-8.330013752E-1,-1.102403259E1
5.738992294E0,-4.046263218E0,-1.465005636E0,-1.080389309E1
5.748706721E0,-3.589233875E0,-2.736192703E0,-1.176162052E1
5.758420315E0,-3.478864908E0,-2.623729944E0,-1.063160992E1
5.768133179E0,-2.708076954E0,-2.453839540E0,-1.150050354E1
5.777846877E0,-2.696112871E0,-9.646066427E-1,-1.172812080E1
5.787561304E0,-2.071287155E0,-1.674975902E-1,-1.148853970E1
5.797274898E0,-1.652244091E0,-2.943171859E-1,-1.128275681E1
5.806987710E0,-1.913360834E0,-7.229315639E-1,-1.133539867E1
5.816701408E0,-2.327319145E0,-1.438684583E0,-1.179272747E1
5.826415835E0,-2.854039192E0,-2.097009897E0,-1.213490105E1
5.836129429E0,-3.332902908E0,-2.456232548E0,-1.189322567E1
5.845842294E0,-3.404687405E0,-2.226222277E0,-1.158425236E1
5.855555992E0,-3.378366470E0,-1.407577872E0,-1.221894836E1
5.865270419E0,-3.098406315E0,-7.181459069E-1,-1.231944752E1
5.874984012E0,-2.674577475E0,-4.283152521E-1,-1.213011551E1
5.884696877E0,-2.111965179E0,-5.120640397E-1,-1.149093246E1
5.894410575E0,-2.104786634E0,-9.071788788E-1,-1.079671478E1
5.904125002E0,-2.289033890E0,-1.177567840E0,-1.173051357E1
5.913838596E0,-2.547757864E0,-1.405185103E0,-1.151007557E1
5.923551460E0,-2.722434044E0,-1.462612867E0,-1.136650562E1
5.933265158E0,-2.971586704E0,-1.543968797E0,-1.074885845E1
5.942979585E0,-3.098406315E0,-1.488933921E0,-1.130668545E1
5.952693179E0,-2.889931440E0,-1.584646821E0,-1.121815109E1
5.962406044E0,-2.586043119E0,-2.053939104E0,-1.035135078E1
5.972119742E0,-2.593221426E0,-2.590230465E0,-1.072492981E1
5.981834169E0,-2.818146944E0,-3.169592619E0,-1.073689461E1
5.991547762E0,-2.899502754E0,-3.636492252E0,-1.083978558E1
6.001260627E0,-2.696112871E0,-3.789632797E0,-1.075364399E1
6.010974325E0,-2.681756020E0,-3.478565931E0,-1.118465137E1
6.020688752E0,-2.531008244E0,-2.877369165E0,-1.163958645E1
6.030402346E0,-2.339283228E0,-2.578266382E0,-1.066989517E1
6.040115158E0,-2.444866419E0,-2.211865425E0,-1.060289669E1
6.049828856E0,-2.545365095E0,-1.936690807E0,-1.037527943E1
6.059543283E0,-3.091227770E0,-1.572682738E0,-1.058375359E1
6.069256877E0,-3.282653570E0,-1.354935765E0,-1.010728264E1
6.078969742E0,-3.225225925E0,-1.340578914E0,-9.254839897E0
6.088683440E0,-3.227618694E0,-1.172782183E0,-9.678668022E0
6.098397867E0,-3.292224884E0,-1.261615753E0,-9.805487633E0
6.108111460E0,-3.009871721E0,-2.147259235E0,-9.278767586E0
6.117824325E0,-2.428116798E0,-2.690729141E0,-8.982057571E0
6.127538023E0,-2.088036776E0,-3.394518137E0,-8.563014984E0
6.137252450E0,-1.937289000E0,-4.010071754E0,-8.673085213E0
6.146966044E0,-2.121536493E0,-4.220640182E0,-9.178269386E0
6.156678856E0,-2.700898647E0,-4.048357010E0,-9.001200676E0
6.166392554E0,-3.124727249E0,-3.926023722E0,-8.701798439E0
6.176106981E0,-3.232404232E0,-4.033999920E0,-8.773583412E0
6.185820575E0,-3.074477911E0,-4.132105827E0,-8.677870750E0
6.195533440E0,-3.517449379E0,-4.036392689E0,-8.213363647E0
6.205247137E0,-3.627519131E0,-4.136891365E0,-8.002795219E0
6.214961565E0,-3.498306751E0,-4.462315083E0,-8.393124580E0
6.224675158E0,-3.490829229E0,-4.819144726E0,-8.304590225E0
6.234388023E0,-3.330509901E0,-5.161617756E0,-7.423433304E0
6.244101721E0,-2.753540754E0,-5.372185707E0,-8.017151833E0
6.253816148E0,-2.459223509E0,-5.147260666E0,-8.675477982E0
6.263529742E0,-3.165405273E0,-4.761716843E0,-8.021938324E0
6.273242554E0,-3.694518089E0,-4.459922314E0,-7.198507786E0
6.282956252E0,-3.395116329E0,-4.670789719E0,-7.040282249E0
6.292670679E0,-2.969193697E0,-6.497410774E0,-7.112366199E0
6.302384273E0,-2.370688915E0,-8.027321815E0,-7.126723289E0
6.312097137E0,-1.582852125E0,-8.304888725E0,-6.796214581E0
6.321810835E0,-7.474579811E-1,-8.788538933E0,-6.542276382E0
6.331525262E0,2.748754919E-1,-8.920144081E0,-6.391528606E0
6.341238856E0,1.304387450E0,-8.402995110E0,-5.958128452E0
6.350951721E0,1.328315616E0,-7.965108395E0,-5.328516960E0
6.360665315E0,7.148557901E-2,-7.699205875E0,-5.216054440E0
6.370379794E0,-2.104786634E0,-7.945965767E0,-5.012664318E0
6.380093387E0,-2.765504837E0,-8.388637543E0,-5.458028316E0
6.389806252E0,-2.011466503E0,-8.810073853E0,-5.570491314E0
6.399519950E0,-5.126622319E-1,-9.267401695E0,-4.952843666E0
6.409234377E0,1.057926655E0,-9.154939651E0,-4.651049137E0
6.418947971E0,1.330708504E0,-8.764610291E0,-4.852046013E0
6.428660835E0,-7.977072597E-1,-8.079963684E0,-4.679762840E0
6.438374533E0,-2.277069807E0,-7.435995579E0,-3.798905134E0
6.448088908E0,-2.341675997E0,-7.146164894E0,-3.580859184E0
6.457802502E0,-1.769492388E0,-6.904489517E0,-3.882653952E0
6.467515367E0,-7.881359458E-1,-6.810870647E0,-3.647858143E0
6.477229065E0,1.097707376E-1,-6.803691864E0,-3.667000771E0
6.486943492E0,-8.335995674E-1,-6.650551319E0,-3.296113253E0
6.496657085E0,-2.464009047E0,-6.609873295E0,-2.695215702E0
6.506369950E0,-3.572484255E0,-6.583552361E0,-2.304886341E0
6.516083648E0,-4.048655987E0,-7.012166977E0,-2.170888424E0
6.525798075E0,-3.565305710E0,-7.335197926E0,-2.166102648E0
6.535511617E0,-2.011466503E0,-7.941180229E0,-2.331207514E0
6.545224481E0,-7.881359458E-1,-8.580363274E0,-2.419741869E0
6.554938179E0,-5.461617708E-1,-8.738288879E0,-2.570489645E0
6.564652606E0,-2.614158690E-1,-8.934500694E0,-2.441277266E0
6.574366200E0,9.272187948E-3,-9.135796547E0,-2.015055656E0
6.584079065E0,1.217348501E-1,-9.011071205E0,-1.270588875E0
6.593792658E0,-1.223330572E-1,-8.745467186E0,-1.261017561E0
6.603507137E0,-1.252642632E0,-8.223533630E0,-1.546062589E0
6.613220731E0,-2.267498493E0,-7.723134041E0,-1.134197950E0
6.622933596E0,-3.067299604E0,-7.433602810E0,-1.234696507E0
6.632647294E0,-3.830909014E0,-7.067201614E0,-1.732702732E0
6.642361721E0,-4.293023109E0,-6.945167542E0,-2.173281193E0
6.652075315E0,-4.214059830E0,-6.973881721E0,-2.000698805E0
6.661788127E0,-3.464508057E0,-7.124629498E0,-1.651346684E0
6.671501825E0,-2.475973129E0,-7.641777992E0,-1.043270707E0
6.681216252E0,-1.755135417E0,-7.986643791E0,-3.320041299E-1
6.690929846E0,-1.415354609E0,-8.106285095E0,-9.990034252E-2
6.700642710E0,-1.264606714E0,-8.455636978E0,-3.296113312E-1
6.710356408E0,-1.065703392E0,-9.152546883E0,-6.170491576E-1
6.720070835E0,-9.867402315E-1,-1.005494022E1,-4.782654345E-1
6.729784377E0,-8.694919348E-1,-1.085474110E1,-1.166501045E-1
6.739497242E0,-8.072785139E-1,-1.146520996E1,3.287140131E-1
6.749210940E0,-8.048857450E-1,-1.178345490E1,1.164108157E0
6.758925367E0,-9.819545746E-1,-1.179302597E1,1.714756489E0
6.768638960E0,-1.127916813E0,-1.163510036E1,2.152942181E0
6.778351773E0,-1.384247899E0,-1.171167088E1,2.349153519E0
6.788065471E0,-1.652244091E0,-1.167338562E1,1.980658889E0
6.797779898E0,-1.724028707E0,-1.169013500E1,1.207179070E0
6.807493492E0,-1.539781332E0,-1.173799133E1,2.353939265E-1
6.817206356E0,-1.573280931E0,-1.164227867E1,-7.836493850E-2
6.826920054E0,-1.546959877E0,-1.121127129E1,-1.615155302E-2
6.836634481E0,-1.747956991E0,-1.044048309E1,-1.740778536E-1
6.846348075E0,-1.846361756E0,-9.523433685E0,-6.161518395E-2
6.856060887E0,-1.997109652E0,-8.755039215E0,2.880360186E-1
6.865774585E0,-2.217249393E0,-8.328817368E0,3.191427290E-1
6.875489012E0,-2.190928221E0,-8.364709854E0,4.076771438E-1
6.885202606E0,-1.865504384E0,-8.510971069E0,6.421737671E-1
6.894915471E0,-1.417747378E0,-8.860322952E0,8.027920127E-1
6.904629065E0,-9.388837814E-1,-9.293723106E0,1.123430252E0
6.914343544E0,-8.216354847E-1,-9.533005714E0,1.475474238E0
6.924057137E0,-7.977072597E-1,-9.648159981E0,1.640578985E0
6.933770002E0,-7.378866673E-1,-9.739087105E0,1.463510156E0
6.943483700E0,-5.940182209E-1,-9.784550667E0,1.278963685E0
6.953198127E0,-2.350948304E-1,-1.008843899E1,9.966106415E-1
6.962911669E0,-3.619144112E-2,-1.025623608E1,9.343972206E-1
6.972624533E0,-5.294119939E-2,-1.044287586E1,1.137787223E0
6.982338231E0,-2.709871531E-1,-1.053380394E1,1.176072359E0
6.992052658E0,-6.658028960E-1,-1.043091202E1,1.061216831E0
7.001766252E0,-9.532406926E-1,-1.045244789E1,1.211964726E0
7.011479065E0,-1.094417214E0,-1.050030422E1,1.149751306E0
7.021192762E0,-1.111167073E0,-1.064387321E1,5.895316601E-1
7.030907190E0,-1.118345499E0,-1.068215847E1,1.178465188E-1
7.040620783E0,-1.096810102E0,-1.062233829E1,4.127619043E-2
7.050333596E0,-1.178166032E0,-1.055294609E1,4.483551383E-1
7.060047294E0,-1.491924882E0,-1.035912704E1,9.846464992E-1
7.069761721E0,-1.891825438E0,-9.999904633E0,6.134598851E-1
7.079475315E0,-2.147857428E0,-9.523433685E0,-5.117649436E-1
7.089188179E0,-2.336890459E0,-9.219545364E0,-1.083948612E0
7.098901773E0,-2.279462576E0,-9.083154678E0,-7.031907439E-1
7.108616252E0,-2.267498493E0,-9.111868858E0,-5.682953820E-2
7.118329846E0,-1.774278045E0,-9.332008362E0,-9.032905847E-2
7.128042710E0,-1.276570916E0,-9.281759262E0,-3.487538993E-1
7.137756408E0,-9.125627279E-1,-8.790931702E0,-1.016949654E0
7.147470835E0,-1.290927768E0,-8.127820015E0,-1.840379715E0
7.157184377E0,-1.980359793E0,-7.773383617E0,-2.505883455E0
7.166897242E0,-2.478366137E0,-7.873881817E0,-2.728715181E0
7.176610940E0,-2.657827854E0,-8.245068550E0,-2.007877350E0
7.186325367E0,-2.233999014E0,-8.633005142E0,1.082752272E-1
7.196038908E0,-1.633101463E0,-8.728717804E0,1.520937920E0
7.205751773E0,-1.499103427E0,-8.034500122E0,1.056431174E0
7.215465471E0,-1.202094316E0,-7.227520943E0,-6.242275834E-1
7.225179898E0,-1.245165110E0,-6.413661957E0,-2.486740828E0
7.234893492E0,-1.558923960E0,-5.779264927E0,-5.381158829E0
7.244606304E0,-1.810469389E0,-5.616253853E0,-6.202495575E0
7.254320002E0,-2.332104683E0,-6.238687038E0,-3.758227110E0
7.264034429E0,-2.918645382E0,-7.270591736E0,-1.404586911E0
7.273748023E0,-2.791825771E0,-8.374280930E0,-1.884347796E-1
7.283460835E0,-2.923431158E0,-8.587541580E0,3.861417472E-1
7.293174533E0,-3.017050266E0,-8.063214302E0,3.406781256E-1
7.302888960E0,-3.048156977E0,-7.258627415E0,-1.723131418E0
7.312602554E0,-2.736790895E0,-6.538088799E0,-4.701298237E0
7.322315419E0,-2.406581402E0,-6.485446453E0,-5.077270508E0
7.332029012E0,-2.363211393E0,-6.880561352E0,-4.454837322E0
7.341743492E0,-2.346461773E0,-7.182057381E0,-4.509872437E0
7.351457085E0,-2.397010088E0,-7.217949390E0,-5.060520649E0
7.361169950E0,-1.439282775E0,-7.249056339E0,-5.086842060E0
7.370883544E0,7.148557901E-2,-7.804490089E0,-4.421338081E0
7.380598023E0,5.958128572E-1,-8.319246292E0,-3.090031385E0
7.390311617E0,1.217348501E-1,-8.465208054E0,-4.936093807E0
7.400024481E0,-7.977072597E-1,-8.386244774E0,-5.816951752E0
7.409738075E0,-1.937289000E0,-8.795717239E0,-5.165804863E0
7.419452554E0,-3.297010422E0,-9.054141998E0,-5.749952793E0
7.429166148E0,-3.704089403E0,-8.996713638E0,-5.828916073E0
7.438879012E0,-2.233999014E0,-9.525827408E0,-6.216852188E0
7.448592606E0,-3.571287692E-1,-9.334401131E0,-6.405885220E0
7.458307085E0,3.370888829E-1,-8.462815285E0,-6.444170475E0
7.468020679E0,-3.882354796E-1,-7.830811024E0,-6.425027847E0
7.477733544E0,-1.484746456E0,-7.311269760E0,-6.815357208E0
7.487447137E0,-2.976372242E0,-6.528517246E0,-7.545466900E0
7.497161617E0,-4.065704823E0,-5.870192051E0,-8.093722343E0
7.506875210E0,-4.309772491E0,-5.503791332E0,-7.528717518E0
7.516588075E0,-3.179762125E0,-5.688038349E0,-6.501598358E0
7.526301669E0,-2.150250196E0,-5.649753571E0,-6.693323135E0
7.536016148E0,-1.451246977E0,-5.656931877E0,-7.667500973E0
7.545729742E0,-7.307082415E-1,-5.882156372E0,-7.049853802E0
7.555442606E0,-6.849454641E-1,-6.083153248E0,-7.897511005E0
7.565156200E0,-8.551349640E-1,-6.035296917E0,-8.201399803E0
7.574870679E0,-1.463211060E0,-6.145366669E0,-8.634799957E0
7.584584273E0,-1.503889084E0,-5.867799282E0,-8.443373680E0
7.594297137E0,-1.561316729E0,-5.839085579E0,-8.539086342E0
7.604010731E0,-1.575673699E0,-5.067998409E0,-8.608478546E0
7.613725210E0,-1.812862277E0,-4.634897232E0,-8.737690926E0
7.623438804E0,-2.981158018E0,-4.570291042E0,-9.082556725E0
7.633151669E0,-3.940979004E0,-4.249353886E0,-8.462516785E0
7.642865262E0,-4.482056141E0,-4.213461399E0,-8.381160736E0
7.652579742E0,-4.417449474E0,-3.847060680E0,-8.804988861E0
7.662293335E0,-3.809373617E0,-3.095415115E0,-8.814560890E0
7.672006200E0,-2.193320990E0,-2.729014158E0,-8.050651550E0
7.681719794E0,-3.308077157E-1,-2.556730986E0,-7.351648331E0
7.691434273E0,-2.446661144E-1,-2.101795673E0,-8.831310272E0
7.701147867E0,-9.269196987E-1,-1.713859200E0,-8.141578674E0
7.710860731E0,-2.119143486E0,-1.776371717E0,-8.431409836E0
7.720574325E0,-3.170190811E0,-1.958226204E0,-9.527920723E0
7.730288804E0,-3.912265062E0,-2.791227579E0,-9.520742416E0
7.740002398E0,-4.070490360E0,-3.277269602E0,-8.986844063E0
7.749715210E0,-4.053740501E0,-3.277269602E0,-9.032307625E0
7.759428908E0,-3.287439108E0,-3.140878916E0,-8.761619568E0
7.769143335E0,-2.722434044E0,-3.547957659E0,-9.487242699E0
7.778856929E0,-2.837289333E0,-3.305983543E0,-9.269196510E0
7.788569742E0,-2.648256540E0,-3.133700371E0,-9.439386368E0
7.798283440E0,-3.074477911E0,-3.538386583E0,-1.050239754E1
7.807997867E0,-3.306581736E0,-4.062713623E0,-1.026760197E1
7.817711460E0,-3.009871721E0,-3.947559118E0,-1.004028416E1
7.827424273E0,-3.201297522E0,-3.677170277E0,-1.014078236E1
7.837137971E0,-3.433401346E0,-3.320340633E0,-1.040159988E1
7.846852398E0,-3.184547901E0,-2.951845884E0,-1.025563812E1
7.856565992E0,-3.658625841E0,-2.822334290E0,-1.072014427E1
7.866278804E0,-3.280260801E0,-2.302792788E0,-1.070100212E1
7.875992502E0,-4.343272209E0,-3.133700371E0,-1.101446152E1
7.885706929E0,-3.811766386E0,-2.685943365E0,-1.117508030E1
7.895420523E0,-5.054239750E0,-4.258925438E0,-1.106501007E1
7.905133335E0,-3.905086517E0,-2.432304144E0,-1.073450184E1
7.914847033E0,-4.709673405E0,-3.471387386E0,-1.126840019E1
7.924561460E0,-4.881956577E0,-3.030808926E0,-1.101446152E1
7.934275054E0,-4.721637249E0,-2.805584431E0,-1.081825066E1
7.943987867E0,-4.659423828E0,-2.331805706E0,-1.102163982E1
7.953701565E0,-4.704887390E0,-2.290828466E0,-1.131625652E1
7.963415992E0,-4.829314232E0,-2.528017044E0,-1.109611702E1
7.973129533E0,-4.558626175E0,-2.705085993E0,-1.140000534E1
7.982842398E0,-4.204488277E0,-2.848655462E0,-1.138325596E1
7.992556096E0,-4.154239178E0,-2.752942562E0,-1.108654594E1
8.002270471E0,-4.015156269E0,-2.583052158E0,-1.121097183E1
8.011984065E0,-4.015156269E0,-2.480160713E0,-1.121575832E1
8.021696929E0,-4.060919285E0,-2.556730986E0,-1.076560783E1
8.031410523E0,-4.304986954E0,-2.573480844E0,-1.106740284E1
8.041125002E0,-4.336093903E0,-2.819941521E0,-1.084217834E1
8.050838596E0,-4.092025757E0,-3.045166016E0,-1.084217834E1
8.060551460E0,-3.931407690E0,-3.334697485E0,-1.067228794E1
8.070265054E0,-3.964907169E0,-3.459423304E0,-1.040638542E1
8.079979533E0,-4.041477680E0,-3.392125130E0,-1.028195858E1
8.089693127E0,-4.142275333E0,-3.222234726E0,-1.044467068E1
8.099405940E0,-3.960121393E0,-3.047558784E0,-1.071057320E1
8.109119637E0,-3.785445452E0,-3.114557743E0,-1.031785107E1
8.118834065E0,-3.723232031E0,-3.188735247E0,-1.026281643E1
8.128547658E0,-3.493520975E0,-3.246163130E0,-1.022692394E1
8.138260471E0,-3.364009619E0,-3.396910906E0,-1.004506969E1
8.147974169E0,-3.527020693E0,-3.339483023E0,-1.028435135E1
8.157688596E0,-3.297010422E0,-3.435195923E0,-9.618847847E0
8.167402190E0,-3.354438305E0,-3.825525284E0,-9.247661591E0
8.177115002E0,-2.981158018E0,-4.275674820E0,-9.580562592E0
8.186828700E0,-2.413759947E0,-4.704289436E0,-9.185447693E0
8.196543075E0,-2.480758905E0,-4.716253281E0,-8.838488579E0
8.206256669E0,-3.024228811E0,-4.361816406E0,-8.333304405E0
8.215969533E0,-3.582055569E0,-3.928416491E0,-8.179863930E0
8.225683127E0,-3.050549746E0,-4.084249020E0,-8.213363647E0
8.235397606E0,-2.370688915E0,-4.632504463E0,-8.373981476E0
8.245111200E0,-2.152642965E0,-4.790431023E0,-8.060222626E0
8.254824012E0,-2.360818624E0,-4.833501816E0,-8.299804688E0
8.264537710E0,-2.791825771E0,-4.701896667E0,-8.292626381E0
8.274252137E0,-3.285046339E0,-4.764110088E0,-8.649156570E0
8.283965731E0,-3.646661758E0,-4.637290478E0,-8.960522652E0
8.293678544E0,-3.866801500E0,-4.608576298E0,-8.081758499E0
8.303392242E0,-3.816552162E0,-4.579862595E0,-7.938189030E0
8.313106669E0,-3.323331594E0,-4.694717884E0,-7.942974567E0
8.322820210E0,-2.854039192E0,-4.855037212E0,-7.571788311E0
8.332533075E0,-2.868396044E0,-5.190331459E0,-7.102495670E0
8.342246773E0,-3.435794115E0,-5.118247509E0,-7.272685528E0
8.351961148E0,-3.979264021E0,-5.067998409E0,-7.411468983E0
8.361674742E0,-3.431008577E0,-5.247759342E0,-6.824928284E0
8.371387554E0,-2.238784790E0,-5.451148987E0,-6.690930367E0
8.381101252E0,-1.855933070E0,-5.791228771E0,-6.619145870E0
8.390815679E0,-1.915753603E0,-6.344270229E0,-6.214459419E0
8.400529273E0,-2.607578516E0,-6.224329948E0,-5.907878876E0
8.410242085E0,-3.435794115E0,-5.898906231E0,-6.137889385E0
8.419955783E0,-2.978765011E0,-5.939583778E0,-6.302993774E0
8.429670210E0,-1.609173179E0,-6.150152206E0,-6.350850582E0
8.439383752E0,-6.801598072E-1,-6.696014881E0,-5.804987907E0
8.449096617E0,-9.628120065E-1,-7.493422985E0,-4.593621254E0
8.458810210E0,-1.427318692E0,-8.252246857E0,-3.710071564E0
8.468524690E0,-1.865504384E0,-8.676075935E0,-3.784548044E0
8.478238283E0,-2.739183664E0,-8.688039780E0,-4.847260475E0
8.487951096E0,-3.069692373E0,-8.402995110E0,-5.941378593E0
8.497664794E0,-3.021835804E0,-7.684848785E0,-6.219244957E0
8.507379221E0,-2.152642965E0,-7.445566654E0,-5.704489231E0
8.517092815E0,-9.915258884E-1,-7.569993496E0,-5.283053398E0
8.526805627E0,1.408774406E-1,-8.070392609E0,-5.012664318E0
8.536519325E0,9.164510965E-1,-8.566005707E0,-4.392624378E0
8.546233700E0,1.208674550E0,-9.054141998E0,-2.762214661E0
8.555947294E0,1.359422326E0,-9.796515465E0,-1.450050473E0
8.565660158E0,1.223031521E0,-9.932906151E0,-1.043270707E0
8.575373752E0,7.609176040E-1,-9.473184586E0,-1.308874011E0
8.585088231E0,2.748754919E-1,-8.874680519E0,-1.701596022E0
8.594801825E0,-8.883354068E-2,-8.527720451E0,-1.687239051E0
8.604514637E0,2.748754919E-1,-8.273782730E0,-2.010270119E0
8.614228335E0,8.685946465E-1,-7.955537319E0,-2.326421738E0
8.623942762E0,8.757730722E-1,-7.692027569E0,-2.065604210E0
8.633656356E0,2.341975123E-1,-6.885347366E0,-1.849951029E0
8.643369169E0,-1.276570916E0,-5.817550182E0,-2.290529490E0
8.653082762E0,-2.645863533E0,-5.319543839E0,-2.371885538E0
8.662797242E0,-4.269094467E0,-5.012963295E0,-1.715952992E0
8.672510835E0,-5.909075737E0,-4.811966419E0,-1.351944804E0
8.682223648E0,-6.744469643E0,-4.924428940E0,-1.115055323E0
8.691937346E0,-6.718148708E0,-5.697908878E0,-8.682954907E-1
8.701651773E0,-6.263213158E0,-6.356234074E0,-6.098706722E-1
8.711365315E0,-6.112465382E0,-6.904489517E0,-7.821539044E-1
8.721078179E0,-6.196214199E0,-7.205985546E0,-1.107876897E0
8.730791877E0,-6.071787357E0,-5.910870075E0,-5.620142221E-1
8.740506252E0,-5.770291805E0,-6.981060028E0,1.010967568E-1
8.750219846E0,-4.328915119E0,-8.975178719E0,1.704886109E-1
8.759932710E0,-2.370688915E0,-1.089302635E1,-8.682954907E-1
8.769646304E0,-2.231307179E-1,-1.248993587E1,-2.319243431E0
8.779360783E0,2.293221474E0,-1.349761391E1,-2.331207514E0
8.789074377E0,3.490231037E0,-1.445534039E1,-1.459621787E0
8.798787190E0,3.909274101E0,-1.464676666E1,2.641077936E-1
8.808500887E0,2.546860695E0,-1.465394497E1,2.320439816E0
8.818215262E0,4.977070987E-1,-1.371087360E1,3.261417150E0
8.827928856E0,-8.551349640E-1,-1.245882893E1,3.304488182E0
8.837641721E0,-1.410568953E0,-1.148913765E1,3.237488985E0
8.847355315E0,-1.489532113E0,-1.087866879E1,2.861516714E0
8.857069794E0,-1.724028707E0,-1.018923664E1,2.322832584E0
8.866783387E0,-1.482353687E0,-9.729516029E0,2.277369022E0
8.876496200E0,-1.305284739E0,-9.355937004E0,2.222334146E0
8.886209898E0,-9.795617461E-1,-9.054141998E0,1.774577141E0
8.895924273E0,-3.523431420E-1,-8.664112091E0,1.453938842E0
8.905637867E0,3.681955934E-1,-8.414958954E0,1.195214868E0
8.915350731E0,8.757730722E-1,-8.460422516E0,9.128618240E-1
8.925064325E0,1.110568762E0,-8.704790115E0,8.362914920E-1
8.934778804E0,1.065105200E0,-9.032606125E0,8.865407705E-1
8.944492398E0,7.441678643E-1,-9.332008362E0,9.391828775E-1
8.954205210E0,1.217348501E-1,-9.561718941E0,1.133001566E0
8.963918908E0,-5.605186820E-1,-9.624231339E0,1.293320656E0
8.973633283E0,-1.202094316E0,-9.576076508E0,1.243071318E0
8.983346877E0,-1.645065546E0,-9.406186104E0,1.063609719E0
8.993059742E0,-1.843968987E0,-9.427721024E0,1.034895778E0
9.002773335E0,-1.968395710E0,-9.611968994E0,1.087537885E0
9.012487815E0,-2.040180445E0,-9.844371796E0,1.104287624E0
9.022201356E0,-2.078465462E0,-1.010040379E1,1.137787223E0
9.031914221E0,-2.088036776E0,-1.019641590E1,1.068395257E0
9.041627815E0,-1.934896231E0,-1.019162941E1,1.027717352E0
9.051342294E0,-1.640279889E0,-1.001426220E1,1.121037364E0
9.061055887E0,-1.123131156E0,-9.937691689E0,1.180858016E0
9.070768700E0,-5.294120312E-1,-9.913763046E0,1.266999602E0
9.080482398E0,-1.465603895E-2,-9.947262764E0,1.463510156E0
9.090196825E0,2.581257522E-1,-9.978369713E0,1.575972795E0
9.099910367E0,3.681955934E-1,-1.012672424E1,1.616650820E0
9.109623231E0,2.748754919E-1,-1.020837975E1,1.542473316E0
9.119336825E0,1.504487246E-1,-1.028973579E1,1.370190024E0
9.129051304E0,8.105687052E-2,-1.033998489E1,1.331904888E0
9.138764898E0,-9.361918271E-2,-1.024666500E1,1.154536963E0
9.148477710E0,-3.116651475E-1,-1.015065289E1,1.068395257E0
9.158191408E0,-5.533402562E-1,-1.007647514E1,1.142572761E0
9.167905835E0,-5.772684813E-1,-1.003101158E1,1.226321578E0
9.177619377E0,-5.341976285E-1,-1.016022396E1,1.166501045E0
9.187332242E0,-5.389832854E-1,-1.037827015E1,9.631111026E-1
9.197045835E0,-4.600201547E-1,-1.051466084E1,8.075776696E-1
9.206760315E0,-4.049852192E-1,-1.039741230E1,5.344967842E-1
9.216473908E0,-6.849454641E-1,-1.015304565E1,8.195417374E-2
9.226186721E0,-1.170987606E0,-9.935298920E0,-1.022931710E-1
9.235900419E0,-1.496710539E0,-9.763015747E0,2.018944174E-1
9.245614794E0,-1.532602906E0,-9.609575272E0,6.421737671E-1
9.255328387E0,-1.590030670E0,-9.513862610E0,9.822536707E-1
9.265041200E0,-1.702493310E0,-9.253045082E0,1.166501045E0
9.274754898E0,-1.992323995E0,-8.649754524E0,8.243274093E-1
9.284469325E0,-2.397010088E0,-8.096714020E0,1.082752272E-1
9.294182867E0,-2.641077995E0,-7.730312824E0,-6.170491576E-1
9.303895731E0,-2.542972326E0,-7.651349545E0,-1.730309844E0
9.313609325E0,-1.942074656E0,-7.656135082E0,-3.032603502E0
9.323323804E0,-1.240379453E0,-7.742276669E0,-3.516252756E0
9.333037398E0,-7.187440991E-1,-8.154141426E0,-3.611965895E0
9.342750210E0,-3.978067636E-1,-9.358329773E0,-3.600001574E0
9.352463908E0,3.442673683E-1,-1.142213917E1,-2.158924341E0
9.362178283E0,8.638089895E-1,-1.285125256E1,1.441974759E0
9.371891877E0,-2.733799815E-1,-1.114666557E1,3.268595695E0
9.381604690E0,-2.202892303E0,-7.984251022E0,1.286142230E0
9.391318387E0,-3.852444410E0,-6.202794552E0,-1.998306036E0
9.401032815E0,-4.558626175E0,-5.106283665E0,-3.111566782E0
9.410746356E0,-4.429413795E0,-4.618147850E0,-2.831606388E0
9.420459221E0,-3.510270834E0,-4.725824833E0,-2.599203587E0
9.430172815E0,-2.344068766E0,-5.309972763E0,-3.130709410E0
9.439887294E0,-1.491924882E0,-6.466304302E0,-3.241078377E0
9.449600887E0,-4.456632137E-1,-7.608278751E0,-1.373480201E0
9.459313700E0,-1.226321608E-2,-7.747062206E0,7.402794957E-1
9.469027398E0,-4.552344978E-1,-7.196413994E0,8.147560954E-1
9.478741773E0,-1.142273664E0,-6.813562393E0,-1.076770186E0
9.488455367E0,-1.582852125E0,-6.416054726E0,-4.344767570E0
9.498168179E0,-1.501496196E0,-6.447161674E0,-7.550252914E0
9.507881877E0,-1.561316729E0,-6.978667259E0,-8.426624298E0
9.517596304E0,-2.382653236E0,-7.651349545E0,-6.911069870E0
9.527309846E0,-2.950051308E0,-8.393424034E0,-5.462814331E0
9.537022710E0,-3.349652529E0,-8.922536850E0,-5.244768143E0
9.546736304E0,-3.515056372E0,-9.034998894E0,-5.623133183E0
9.556450783E0,-3.141477108E0,-8.680861473E0,-5.687739372E0
9.566164377E0,-1.915753603E0,-8.235497475E0,-6.070889950E0
9.575877190E0,-3.619144261E-1,-8.546863556E0,-6.511169434E0
9.585590887E0,5.024927258E-1,-9.305686951E0,-6.212066650E0
9.595305262E0,-1.680957973E-1,-9.238688469E0,-4.545764923E0
9.605018856E0,-7.139584422E-1,-9.212367058E0,-3.738785267E0
9.614731669E0,-6.011967063E-1,-9.176474571E0,-4.986343384E0
9.624445367E0,3.798605874E-2,-9.006285667E0,-6.585646152E0
9.634159794E0,5.694918036E-1,-8.908179283E0,-7.835297585E0
9.643873335E0,3.514458239E-1,-8.566005707E0,-8.369195938E0
9.653586200E0,-1.369891018E-1,-7.847560883E0,-8.117650986E0
9.663299794E0,-4.935196638E-1,-7.354340553E0,-7.856832981E0
9.673014273E0,-8.216354847E-1,-6.619444847E0,-7.188936710E0
9.682727815E0,-1.386640668E0,-5.843871117E0,-7.006783009E0
9.692440679E0,-1.891825438E0,-5.549254894E0,-7.459325314E0
9.702154273E0,-2.389831543E0,-4.869394302E0,-7.576573849E0
9.711868752E0,-2.416152716E0,-4.603790760E0,-7.797012806E0
9.721582346E0,-2.322533369E0,-4.330709934E0,-8.335697174E0
9.731295158E0,-2.358425856E0,-4.024428368E0,-8.780761719E0
9.741008856E0,-2.324926376E0,-3.662813187E0,-9.221340179E0
9.750723231E0,-2.456830740E0,-3.317947626E0,-9.582955360E0
9.760436825E0,-2.442473650E0,-3.241377354E0,-8.615656853E0
9.770149637E0,-2.243570328E0,-3.387339592E0,-8.448159218E0
9.779863335E0,-1.609173179E0,-3.880560160E0,-8.457730293E0
9.789577762E0,-9.915258884E-1,-4.613361835E0,-8.227720261E0
9.799291304E0,-1.144666553E0,-5.072783947E0,-8.582157135E0
9.809004169E0,-1.156630635E0,-5.573183060E0,-8.127222061E0
9.818717762E0,-1.293320656E0,-5.841478348E0,-7.550252914E0
9.828432242E0,-2.001895189E0,-5.721837044E0,-7.421040535E0
9.838145783E0,-2.933301449E0,-5.228616714E0,-9.068199158E0
9.847858648E0,-3.529413462E0,-4.029214382E0,-1.082303619E1
9.857572242E0,-3.548556089E0,-3.124129057E0,-9.159127235E0
9.867286721E0,-2.889931440E0,-2.037189484E0,-9.985248566E0
9.877000315E0,-2.253141642E0,-8.904291391E-1,-9.882058144E0
9.886713127E0,-1.836790442E0,-8.066803217E-1,-9.240483284E0
9.896426721E0,-2.090429783E0,-6.388836503E-1,-9.810274124E0
9.906141200E0,-2.791825771E0,-1.309472203E0,-9.587740898E0
9.915854794E0,-3.735196114E0,-2.211865425E0,-1.014317513E1
9.925567606E0,-4.580161572E0,-2.889632463E0,-1.047607708E1
9.935281304E0,-5.159523964E0,-3.037987471E0,-9.068199158E0
9.944995731E0,-4.726422787E0,-3.911666870E0,-1.019103146E1
9.954709273E0,-4.113561153E0,-3.612564087E0,-9.532706261E0
9.964422085E0,-4.508377075E0,-3.502494097E0,-8.639585495E0
9.974135783E0,-5.068596363E0,-3.138485909E0,-1.018385315E1
9.983850210E0,-5.679065228E0,-2.324627161E0,-1.049043369E1
9.993563752E0,-5.803791523E0,-2.039582253E0,-1.020299530E1
1.000327662E1,-5.298606873E0,-1.948654890E0,-1.001396275E1
1.001299021E1,-4.783850670E0,-1.701895118E0,-1.037049294E1
1.002270469E1,-4.261916161E0,-1.591825247E0,-1.089242744E1
1.003241823E1,-3.869194269E0,-1.634896040E0,-9.963713646E0
1.004213110E1,-3.632304668E0,-1.800299883E0,-9.798309326E0
1.005184469E1,-3.873979807E0,-2.092224360E0,-9.817452431E0
1.006155917E1,-4.386343002E0,-2.080260277E0,-1.027717304E1
1.007127276E1,-4.422235489E0,-1.907976985E0,-1.048564816E1
1.008098558E1,-4.144668102E0,-2.046760559E0,-1.140479088E1
1.009069917E1,-3.792623997E0,-2.097009897E0,-1.168026447E1
1.010041365E1,-3.692125320E0,-1.986940145E0,-1.181665516E1
1.011012724E1,-3.570091486E0,-2.001296997E0,-1.163001537E1
1.011984005E1,-3.751945972E0,-2.063510418E0,-1.174008560E1
1.012955375E1,-3.625126362E0,-2.389233351E0,-1.176162052E1
1.013926813E1,-3.263510942E0,-2.525624275E0,-1.138804150E1
1.014898172E1,-3.246761322E0,-2.477767944E0,-1.112961674E1
1.015869453E1,-3.335295677E0,-2.422732830E0,-1.101924706E1
1.016840823E1,-3.409473181E0,-2.317149639E0,-1.111286640E1
1.017812261E1,-3.515056372E0,-2.266900301E0,-1.095942688E1
1.018783620E1,-3.833301783E0,-2.161616087E0,-1.072732258E1
1.019754901E1,-3.950550079E0,-2.187937260E0,-1.011446095E1
1.020726271E1,-4.374378681E0,-2.309971094E0,-1.012403297E1
1.021697714E1,-4.843671322E0,-2.918346405E0,-9.434600830E0
1.022669068E1,-4.697709084E0,-3.396910906E0,-9.841380119E0
1.023640354E1,-4.206881523E0,-3.483351469E0,-1.004267693E1
1.024611714E1,-4.197309971E0,-3.294019461E0,-9.985248566E0
1.025583162E1,-4.297808647E0,-3.014059305E0,-9.920642853E0
1.026554516E1,-4.618745804E0,-2.642872572E0,-1.023170948E1
1.027525802E1,-4.860421181E0,-2.327019930E0,-1.038963604E1
1.028497162E1,-5.008776188E0,-2.231008053E0,-1.003310490E1
1.029468610E1,-4.999204636E0,-2.602194548E0,-9.192625999E0
1.030439969E1,-4.474877357E0,-3.112164974E0,-8.871988297E0
1.031411250E1,-3.862015724E0,-3.473780155E0,-8.843274117E0
1.032382610E1,-3.244368315E0,-3.665206194E0,-9.247661591E0
1.033354058E1,-2.938086987E0,-3.770490170E0,-9.302696228E0
1.034325417E1,-2.894717216E0,-3.885345697E0,-9.724132538E0
1.035296698E1,-3.062513828E0,-3.882952929E0,-9.918250084E0
1.036268068E1,-3.239582777E0,-4.160819530E0,-8.582157135E0
1.037239505E1,-3.349652529E0,-4.526921272E0,-7.816154957E0
1.038210865E1,-3.040978432E0,-4.627718925E0,-8.816953659E0
1.039182146E1,-2.452044964E0,-4.783252239E0,-9.206983566E0
1.040153516E1,-2.126322031E0,-4.938786030E0,-9.173483849E0
1.041124953E1,-2.408974171E0,-4.826323509E0,-8.551051140E0
1.042096313E1,-3.371187925E0,-4.773681164E0,-8.519944191E0
1.043067594E1,-3.888336897E0,-4.826323509E0,-8.831310272E0
1.044038964E1,-3.742374659E0,-5.118247509E0,-8.280661583E0
1.045010401E1,-3.036192894E0,-5.420042515E0,-7.571788311E0
1.045981761E1,-2.265105724E0,-5.934798241E0,-7.191329479E0
1.046953042E1,-1.542174220E0,-6.107081413E0,-7.071389198E0
1.047924412E1,-1.259821177E0,-6.133402824E0,-6.578467846E0
1.048895849E1,-1.544566989E0,-6.588337898E0,-5.864808083E0
1.049867208E1,-2.360818624E0,-6.777370930E0,-5.606383324E0
1.050838490E1,-2.806182861E0,-6.818347931E0,-6.436992168E0
1.051809860E1,-2.641077995E0,-6.806085110E0,-7.413861752E0
1.052781297E1,-2.100000858E0,-7.009773731E0,-7.430611610E0
1.053752656E1,-1.855933070E0,-7.129415035E0,-6.465705872E0
1.054723938E1,-1.590030670E0,-7.747062206E0,-5.718846321E0
1.055695308E1,-1.491924882E0,-7.890631676E0,-5.362016678E0
1.056666750E1,-1.446461320E0,-7.888238907E0,-5.345266819E0
1.057638104E1,-1.659422517E0,-7.634599686E0,-5.390730381E0
1.058609386E1,-1.769492388E0,-7.170093060E0,-5.065306664E0
1.059580755E1,-1.611566067E0,-6.782156467E0,-4.730011940E0
1.060552198E1,-1.578066587E0,-6.401698112E0,-4.943272591E0
1.061523552E1,-1.697707653E0,-6.322734833E0,-4.916951656E0
1.062494834E1,-1.570888042E0,-6.499803543E0,-4.672584534E0
1.063466203E1,-1.046560764E0,-6.351448536E0,-4.718048096E0
1.064437646E1,-7.163512707E-1,-6.013761520E0,-4.763511658E0
1.065409000E1,-8.192426562E-1,-5.736194134E0,-4.952843666E0
1.066380282E1,-1.276570916E0,-5.678467274E0,-4.232006073E0
1.067351651E1,-1.767099500E0,-6.040082455E0,-3.056531906E0
1.068323094E1,-1.851147413E0,-6.856633186E0,-2.371885538E0
1.069294448E1,-1.747956991E0,-7.491030216E0,-2.508276224E0
1.070265735E1,-1.422533035E0,-7.926524162E0,-3.128316402E0
1.071237094E1,-6.849454641E-1,-8.137392044E0,-3.968795538E0
1.072208542E1,-5.294119939E-2,-8.130212784E0,-4.074079514E0
1.073179896E1,1.384846121E-1,-8.328817368E0,-3.168994427E0
1.074151182E1,1.289133132E-1,-8.518149376E0,-2.400599241E0
1.075122542E1,-3.092723191E-1,-8.929715157E0,-2.197209358E0
1.076093990E1,-6.442674994E-1,-9.181260109E0,-2.266601324E0
1.077065344E1,-8.670991063E-1,-9.763015747E0,-2.381456852E0
1.078036630E1,-6.251249313E-1,-1.011476040E1,-2.257030010E0
1.079007990E1,-3.619144261E-1,-1.039262676E1,-1.938485503E0
1.079979438E1,-9.361918271E-2,-1.074945641E1,-1.730309844E0
1.080950792E1,-5.084747914E-3,-1.083320522E1,-1.909771562E0
1.081922078E1,-1.417747438E-1,-1.046919727E1,-1.907378793E0
1.082893438E1,-6.514459848E-1,-9.844371796E0,-2.048555374E0
1.083864886E1,-1.410568953E0,-9.174081802E0,-2.731107950E0
1.084836240E1,-1.891825438E0,-8.726325035E0,-2.836392164E0
1.085807526E1,-2.222034931E0,-8.388637543E0,-1.981556296E0
1.086778886E1,-2.389831543E0,-8.247461319E0,-1.481157184E0
1.087750334E1,-2.351247311E0,-8.178069115E0,-1.162911773E0
1.088721688E1,-2.250748873E0,-7.854739666E0,-9.667003751E-1
1.089692974E1,-2.260320187E0,-7.450352192E0,-8.204390407E-1
1.090664334E1,-2.233999014E0,-7.270591736E0,-8.826524615E-1
1.091635782E1,-2.178964138E0,-7.220342159E0,-1.043270707E0
1.092607136E1,-1.903789520E0,-7.292127132E0,-9.762716293E-1
1.093578422E1,-1.357926846E0,-7.328019142E0,-7.079764009E-1
1.094549782E1,-7.067800164E-1,-7.818847179E0,-2.530409992E-1
1.095521229E1,-5.772684515E-2,-8.563612938E0,1.752742529E-1
1.096492584E1,5.144568682E-1,-9.243474007E0,6.014958024E-1
1.097463870E1,1.053141117E0,-9.715159416E0,-3.050848842E-2
1.098435229E1,1.146461129E0,-1.043091202E1,1.233500123E0
1.099406677E1,1.194317579E0,-1.097198868E1,2.950051308E0
1.100378032E1,9.619147182E-1,-1.121127129E1,2.516950369E0
1.101349318E1,1.935195327E-1,-1.086670494E1,2.062014818E0
1.102320677E1,-5.174478889E-1,-1.059362411E1,1.961516380E0
1.103292125E1,-9.867402315E-1,-1.034477043E1,2.045265198E0
1.104263479E1,-1.168594718E0,-1.007408237E1,2.708376169E0
1.105234766E1,-1.132702470E0,-1.005733299E1,3.623032570E0
1.106206125E1,-1.202094316E0,-1.020120144E1,4.048954964E0
1.107177573E1,-1.283749342E0,-1.054576778E1,3.917349815E0
1.108148927E1,-1.147059321E0,-1.090020466E1,2.957229614E0
1.109120214E1,-8.024929166E-1,-1.105573750E1,1.190429211E0
1.110091573E1,-4.289134443E-1,-1.110838032E1,-6.194419861E-1
1.111063021E1,-2.925225794E-1,-1.095045376E1,-1.811665893E0
1.112034375E1,-2.925225794E-1,-1.073240757E1,-2.307279348E0
1.113005656E1,-1.944168359E-1,-1.046680450E1,-2.170888424E0
1.113977026E1,-2.709871531E-1,-1.009083176E1,-1.414158225E0
1.114948464E1,-2.709871531E-1,-9.880263329E0,-5.165506005E-1
1.115919823E1,-4.241278172E-1,-9.648159981E0,2.018944174E-1
1.116891104E1,-7.043871880E-1,-9.370293617E0,1.056431174E0
1.117862474E1,-9.795617461E-1,-9.169296265E0,1.552044630E0
1.118833912E1,-1.072881818E0,-9.154939651E0,1.738684773E0
1.119805271E1,-9.628120065E-1,-9.166903496E0,1.973480463E0
1.120776552E1,-7.737790346E-1,-9.231510162E0,1.820040703E0
1.121747922E1,-6.011967063E-1,-9.415757179E0,1.592722535E0
1.122719360E1,-4.169493318E-1,-9.707980156E0,1.374975681E0
1.123690719E1,-9.840483218E-2,-1.002622604E1,1.307677627E0
1.124662000E1,2.341975123E-1,-1.040698433E1,1.176072359E0
1.125633370E1,6.173482537E-1,-1.070130062E1,1.180858016E0
1.126604808E1,8.973084688E-1,-1.094327545E1,1.449153185E0
1.127576167E1,9.571290612E-1,-1.108205891E1,1.745863199E0
1.128547448E1,7.274180651E-1,-1.098873901E1,1.877767563E0
1.129518818E1,2.844468057E-1,-1.068933678E1,1.772184253E0
1.130490255E1,-1.055833027E-1,-1.041176987E1,1.552044630E0
1.131461615E1,-5.389832854E-1,-1.020120144E1,9.559326172E-1
1.132432896E1,-9.508479238E-1,-1.006451130E1,2.928216755E-1
1.133404255E1,-1.274178028E0,-1.004058266E1,-1.854437590E-2
1.134375703E1,-1.365105271E0,-1.003579712E1,-1.238285750E-1
1.135347058E1,-1.192523003E0,-1.010279655E1,-5.069792867E-1
1.136318344E1,-1.001097202E0,-1.016022396E1,-1.129412293E0
1.137289703E1,-7.546364665E-1,-1.015065289E1,-1.718345761E0
1.138261151E1,-5.198407173E-1,-1.012911701E1,-2.089532375E0
1.139232505E1,-4.887340367E-1,-1.002383327E1,-2.477169752E0
1.140203792E1,-6.179464459E-1,-9.837192535E0,-2.218744755E0
1.141175151E1,-9.891330600E-1,-9.477970123E0,-1.634596944E0
1.142146599E1,-1.556531072E0,-8.757431984E0,-2.781357288E0
1.143117953E1,-2.245963097E0,-8.316853523E0,-4.265505314E0
1.144089240E1,-2.866003275E0,-7.972286701E0,-3.391826153E0
1.145060599E1,-3.701696634E0,-7.632206917E0,-1.148554921E0
1.146032047E1,-4.163810730E0,-7.505387306E0,8.697910309E-1
1.147003401E1,-3.761517286E0,-7.162914753E0,2.030908108E0
1.147974688E1,-2.916252613E0,-6.545267105E0,1.650150299E0
1.148946047E1,-2.195713997E0,-6.169294834E0,5.703890920E-1
1.149917495E1,-1.834397674E0,-6.308377743E0,5.084748194E-2
1.150888849E1,-1.551745534E0,-6.770192623E0,2.042872310E-1
1.151860130E1,-1.556531072E0,-7.048058987E0,2.904288471E-1
1.152831500E1,-1.915753603E0,-6.784549713E0,-5.309075117E-1
1.153802938E1,-2.231606245E0,-5.733801365E0,-1.936092615E0
1.154774297E1,-2.260320187E0,-5.611468315E0,-4.272684097E0
1.155745578E1,-1.518245935E0,-6.497410774E0,-5.931807518E0
1.156716948E1,2.126621157E-1,-7.972286701E0,-5.213661671E0
1.157688386E1,2.058425665E0,-9.604789734E0,-3.168994427E0
1.158659745E1,3.442374468E0,-1.072762203E1,-8.946165442E-1
1.159631026E1,3.791726589E0,-1.061037350E1,-4.136592150E-1
1.160602396E1,3.559622765E0,-1.005494022E1,-1.435693622E0
1.161573834E1,2.606681108E0,-9.607182503E0,-2.529811859E0
1.162545193E1,1.081854939E0,-8.857930183E0,-3.880260944E0
1.163516474E1,-2.685943544E-1,-8.221140862E0,-5.228018284E0
1.164487844E1,-6.370890141E-1,-8.266604424E0,-6.257530212E0
1.165459282E1,-6.131607890E-1,-8.781359673E0,-6.453741550E0
1.166430636E1,-3.116651475E-1,-9.339186668E0,-5.704489231E0
1.167401922E1,-7.926224917E-2,-9.784550667E0,-4.904987335E0
1.168373282E1,2.294118702E-1,-9.935298920E0,-5.034199715E0
1.169344729E1,-2.183450572E-2,-9.336793900E0,-5.635097504E0
1.170316084E1,-3.427718580E-1,-8.733503342E0,-5.525027275E0
1.171287370E1,-5.964110494E-1,-8.458029747E0,-4.596014023E0
1.172258729E1,-9.317052960E-1,-7.950751305E0,-4.722833633E0
1.173230177E1,-1.345962763E0,-7.002595425E0,-5.366802216E0
1.174201532E1,-1.676172256E0,-6.140581131E0,-6.291029930E0
1.175172813E1,-1.764706731E0,-5.563611984E0,-7.730013371E0
1.176144182E1,-1.970788598E0,-5.242973328E0,-7.706085205E0
1.177115625E1,-1.975574136E0,-5.290830135E0,-6.547360897E0
1.178086979E1,-1.472782373E0,-5.312365532E0,-5.766702652E0
1.179058261E1,-9.221340418E-1,-5.041677475E0,-5.761917114E0
1.180029630E1,-1.223629713E0,-4.886143684E0,-6.695715904E0
1.181001068E1,-2.416152716E0,-4.596612453E0,-7.878368378E0
1.181972427E1,-3.325724363E0,-4.447957993E0,-8.510373116E0
1.182943708E1,-3.574877024E0,-4.390530586E0,-8.704191208E0
1.183915078E1,-4.101597309E0,-4.311567307E0,-8.790332794E0
1.184886516E1,-4.546662331E0,-4.158426762E0,-9.415457726E0
1.185857875E1,-4.276273251E0,-3.969094515E0,-9.508777618E0
1.186829157E1,-3.881158352E0,-4.081856251E0,-8.268697739E0
1.187800516E1,-3.383152008E0,-4.294817448E0,-7.859225750E0
1.188771964E1,-2.248355865E0,-4.881358147E0,-7.301399231E0
1.189743318E1,-1.044167995E0,-5.796014786E0,-7.756334782E0
1.190714604E1,-1.345962733E-1,-6.258128643E0,-8.074580193E0
1.191685964E1,-5.748756528E-1,-6.169294834E0,-8.771190643E0
1.192657412E1,-9.867402315E-1,-5.918048382E0,-1.019342422E1
1.193628766E1,-6.107679605E-1,-5.726622581E0,-1.034895802E1
1.194600052E1,-7.594220638E-1,-5.451148987E0,-9.508777618E0
1.195571412E1,-1.218844056E0,-4.792823792E0,-7.842476368E0
1.196542860E1,-1.503889084E0,-3.937987804E0,-7.562216759E0
1.197514214E1,-1.585245013E0,-2.606980324E0,-8.259126663E0
1.198485495E1,-2.138286114E0,-1.977368832E0,-8.828917503E0
1.199456865E1,-2.693720102E0,-1.261615753E0,-9.549455643E0
1.200428302E1,-3.201297522E0,-1.014855862E0,-9.506384850E0
1.201399662E1,-4.068097591E0,-9.143573642E-1,-1.008574772E1
1.202370943E1,-4.070490360E0,-1.244866014E0,-1.125643635E1
1.203342313E1,-4.357629299E0,-1.788335800E0,-1.087328529E1
1.204313750E1,-4.192524433E0,-2.254936218E0,-9.417850494E0
1.205285110E1,-4.060919285E0,-2.990130901E0,-9.841380119E0
1.206256391E1,-4.290630341E0,-3.124129057E0,-1.014556789E1
1.207227750E1,-3.438187122E0,-3.064308405E0,-1.051675415E1
1.208199198E1,-3.541377544E0,-2.860619545E0,-1.073450184E1
1.209170552E1,-4.036691666E0,-1.639681697E0,-1.108175945E1
1.210141839E1,-3.842873096E0,-1.331007600E0,-1.117747307E1
1.211113198E1,-3.428615808E0,-1.383649707E0,-1.163001537E1
1.212084646E1,-3.172583818E0,-1.762014747E0,-1.163958645E1
1.213056000E1,-3.507878065E0,-1.546361685E0,-1.047607708E1
1.214027287E1,-3.742374659E0,-2.101795673E0,-1.218544960E1
1.214998646E1,-4.515555382E0,-1.675574064E0,-1.158903790E1
1.215970089E1,-4.714458942E0,-1.043569803E0,-1.156511021E1
1.216941448E1,-5.121238708E0,-2.751746178E-1,-1.203440285E1
1.217912729E1,-4.747958183E0,-2.841476910E-2,-1.102163982E1
1.218884099E1,-3.921836376E0,-3.852444589E-1,-1.161087322E1
1.219855537E1,-3.483650684E0,-1.084247708E0,-1.148614693E1
1.220826896E1,-3.320938826E0,-1.716252089E0,-1.145025444E1
1.221798177E1,-3.665804386E0,-2.197508574E0,-1.174247837E1
1.222769537E1,-4.111168385E0,-2.484946251E0,-1.109611702E1
1.223740985E1,-4.316951275E0,-2.180758715E0,-1.174008560E1
1.224712344E1,-4.223630905E0,-1.762014747E0,-1.154357433E1
1.225683625E1,-3.979264021E0,-1.398006678E0,-1.140718365E1
1.226654985E1,-3.917050600E0,-1.232901812E0,-1.116072273E1
1.227626433E1,-3.603590965E0,-1.297508121E0,-1.154357433E1
1.228597787E1,-3.232404232E0,-1.599003673E0,-1.127079296E1
1.229569073E1,-3.146262646E0,-1.795514345E0,-1.167308617E1
1.230540433E1,-2.962015390E0,-1.829013824E0,-1.113200951E1
1.231511880E1,-2.866003275E0,-2.051546335E0,-1.068425179E1
1.232483235E1,-2.995514870E0,-2.382055044E0,-1.078953648E1
1.233454516E1,-2.760719061E0,-2.752942562E0,-1.036092186E1
1.234425886E1,-1.989931107E0,-3.174378395E0,-1.020538902E1
1.235397328E1,-1.396211982E0,-2.980559587E0,-1.103599739E1
1.236368682E1,-1.257428288E0,-2.678765059E0,-1.148136139E1
1.237339964E1,-1.987538338E0,-2.046760559E0,-1.038245773E1
1.238311334E1,-2.794218540E0,-1.701895118E0,-1.004267693E1
1.239282771E1,-3.383152008E0,-1.462612867E0,-1.014078236E1
1.240254130E1,-3.756731510E0,-1.228116274E0,-9.982855797E0
1.241225412E1,-3.893122435E0,-1.701895118E0,-9.250054359E0
1.242196782E1,-3.936193228E0,-2.132902384E0,-8.793025017E0
1.243168219E1,-3.682554007E0,-2.520838737E0,-8.012366295E0
1.244139578E1,-3.340081215E0,-2.970988512E0,-8.668298721E0
1.245110860E1,-3.131905794E0,-3.344268799E0,-9.891630173E0
1.246082219E1,-2.643470764E0,-3.672384501E0,-9.046664238E0
1.247053667E1,-2.245963097E0,-3.830310822E0,-8.910273552E0
1.248025021E1,-2.413759947E0,-3.579064369E0,-9.027522087E0
1.248996308E1,-2.495115757E0,-3.509672642E0,-8.472087860E0
1.249967667E1,-2.887538671E0,-3.085843801E0,-8.852845192E0
1.250939115E1,-2.822932482E0,-2.889632463E0,-8.953344345E0
1.251910469E1,-2.772683144E0,-2.970988512E0,-8.400302887E0
1.252881750E1,-2.799004316E0,-3.205485106E0,-8.883952141E0
1.253853120E1,-2.925823927E0,-3.490530014E0,-8.543871880E0
1.254824558E1,-3.244368315E0,-3.818346739E0,-7.571788311E0
1.255795917E1,-3.716053486E0,-3.837489367E0,-7.840083599E0
1.256767198E1,-3.689732552E0,-3.837489367E0,-8.299804688E0
1.257738568E1,-3.208476067E0,-4.340281010E0,-9.125627518E0
1.258710005E1,-2.858824968E0,-4.783252239E0,-8.778368950E0
1.259681365E1,-2.612364054E0,-5.161617756E0,-8.110472679E0
1.260652646E1,-2.198106766E0,-5.748157978E0,-7.483253479E0
1.261624016E1,-2.004287958E0,-6.121438503E0,-8.455337524E0
1.262595453E1,-1.417747378E0,-6.174080849E0,-8.275876045E0
1.263566813E1,-9.484550953E-1,-6.696014881E0,-7.200900555E0
1.264538094E1,-1.724028707E0,-6.588337898E0,-6.597609997E0
1.265509453E1,-3.033800125E0,-6.011368752E0,-7.042675018E0
1.266480901E1,-3.318545818E0,-5.884549141E0,-7.267899513E0
1.267452261E1,-2.921038151E0,-6.329913139E0,-7.131508827E0
1.268423542E1,-2.550150633E0,-7.091129780E0,-6.398706913E0
1.269394901E1,-1.731207132E0,-7.584350586E0,-5.965306759E0
1.270366349E1,-6.948158741E-1,-7.723134041E0,-6.307779789E0
1.271337703E1,2.389831543E-1,-7.739883900E0,-6.566503525E0
1.272308990E1,5.814558864E-1,-7.320840836E0,-6.805785656E0
1.273280349E1,1.166501082E-2,-6.595516682E0,-6.343671799E0
1.274251797E1,-1.403390527E0,-6.782156467E0,-5.702096462E0
1.275223151E1,-2.665006161E0,-6.849454880E0,-4.763511658E0
1.276194438E1,-2.669791937E0,-6.786942482E0,-4.531407833E0
1.277165797E1,-1.832004786E0,-6.964310169E0,-5.263910770E0
1.278137245E1,-8.503493667E-1,-7.043273449E0,-5.311767101E0
1.279108599E1,-7.447660714E-2,-7.438388348E0,-4.651049137E0
1.280079886E1,9.541380405E-2,-8.001000404E0,-3.911367655E0
1.281051245E1,-1.417747438E-1,-8.192426682E0,-3.592823267E0
1.282022693E1,-6.203392744E-1,-8.314460754E0,-3.880260944E0
1.282994047E1,-1.142273664E0,-8.233104706E0,-4.155435562E0
1.283965334E1,-1.194915771E0,-8.024929047E0,-4.665405750E0
1.284936693E1,-1.077667475E0,-7.763812065E0,-4.663012981E0
1.285908141E1,-1.036989570E0,-7.524529934E0,-3.987937927E0
1.286879495E1,-8.742775917E-1,-7.469494820E0,-3.420539856E0
1.287850782E1,-8.144569993E-1,-7.830811024E0,-2.697608471E0
1.288822141E1,-2.781656384E-1,-8.060821533E0,-1.974377751E0
1.289793589E1,-5.054837838E-2,-8.290532112E0,-2.225923300E0
1.290764943E1,2.653042078E-1,-8.563612938E0,-2.522633314E0
1.291736229E1,-8.404789865E-2,-9.006285667E0,-2.673680305E0
1.292707589E1,-7.785646915E-1,-9.111868858E0,-3.044567823E0
1.293679037E1,-1.103988528E0,-9.071190834E0,-3.291327477E0
1.294650391E1,-1.046560764E0,-8.759824753E0,-2.644966364E0
1.295621677E1,-8.958129883E-1,-8.522934914E0,-2.130210400E0
1.296593037E1,-5.892325640E-1,-8.216354370E0,-2.089532375E0
1.297564485E1,-3.427718580E-1,-8.178069115E0,-2.065604210E0
1.298535839E1,-2.039881349E-1,-8.230711937E0,-1.766202211E0
1.299507125E1,-6.969095767E-2,-8.695218086E0,-1.368694544E0
1.300478485E1,-5.413761139E-1,-9.461220741E0,-1.196411371E0
1.301449933E1,-9.699904919E-1,-1.010997486E1,-4.974080026E-1
1.302421287E1,-1.511067510E0,-1.005733299E1,9.870393574E-2
1.303392573E1,-1.841576099E0,-9.629017830E0,-1.884347796E-1
1.304363933E1,-1.949253201E0,-8.996713638E0,-6.457630396E-1
1.305335380E1,-2.440080881E0,-8.108677864E0,-1.014556766E0
1.306306735E1,-2.765504837E0,-7.332805157E0,-1.167697430E0
1.307278021E1,-2.858824968E0,-6.997809887E0,-8.108677864E-1
1.308249380E1,-2.712862730E0,-7.287341595E0,-4.375874400E-1
1.309220828E1,-2.540579557E0,-7.792526245E0,-2.745763958E-1
1.310192183E1,-2.193320990E0,-8.379066467E0,-4.734797776E-1
1.311163469E1,-1.726421595E0,-8.994320869E0,-6.002993584E-1
1.312134828E1,-1.034596682E0,-9.657731056E0,-5.739783049E-1
1.313106276E1,-1.127617657E-1,-1.025145054E1,-6.314060688E-1
1.314077630E1,8.446664214E-1,-1.067019463E1,-4.399802685E-1
1.315048917E1,1.488634825E0,-1.081884861E1,-6.161518395E-2
1.316020276E1,1.709073544E0,-1.074706364E1,4.172484577E-1
1.316991724E1,1.651645780E0,-1.051466084E1,9.176474810E-1
1.317963078E1,1.452742457E0,-1.024666500E1,1.197607756E0
1.318934365E1,1.163210869E0,-9.959226608E0,1.425225019E0
1.319905724E1,6.891329288E-1,-9.851550102E0,1.757827282E0
1.320877172E1,1.289133132E-1,-9.983155251E0,2.083550215E0
1.321848526E1,-7.737790346E-1,-9.952048302E0,2.844767094E0
1.322819813E1,-1.707278967E0,-9.947262764E0,3.486342669E0
1.323791172E1,-2.281855583E0,-1.015304565E1,3.879064560E0
1.324762620E1,-2.176571369E0,-1.047637558E1,3.831208229E0
1.325733974E1,-1.817647934E0,-1.073480034E1,2.950051308E0
1.326705261E1,-1.113559842E0,-1.091934681E1,4.196412563E-1
1.327676620E1,-4.624129832E-1,-1.128066349E1,1.058824062E0
1.328648068E1,3.080759197E-2,-1.123519993E1,-3.801597059E-1
1.329619427E1,1.935195327E-1,-1.087866879E1,-1.411765337E0
1.330590709E1,-1.298106313E-1,-1.058644581E1,-1.510170221E0
1.331562068E1,-8.742775917E-1,-1.031127071E1,-1.237089276E0
1.332533516E1,-1.360319614E0,-1.005015373E1,-8.874381185E-1
1.333504875E1,-1.659422517E0,-9.777372360E0,-5.835496187E-1
1.334476156E1,-1.712064624E0,-9.480362892E0,-3.272185028E-1
1.335447516E1,-1.666600943E0,-9.353543282E0,5.084748194E-2
1.336418964E1,-1.558923960E0,-9.293723106E0,5.799604058E-1
1.337390323E1,-1.293320656E0,-9.236295700E0,1.101894855E0
1.338361604E1,-8.431708813E-1,-9.248259544E0,1.240678549E0
1.339332974E1,-4.432703853E-1,-9.205188751E0,1.178465128E0
1.340304412E1,-1.489532143E-1,-9.322437286E0,9.750752449E-1
1.341275771E1,6.669992954E-2,-9.583254814E0,8.673982024E-1
1.342247052E1,1.073779166E-1,-9.715159416E0,9.008977413E-1
1.343218422E1,1.719841212E-1,-9.944869995E0,9.559326172E-1
1.344189860E1,3.658027649E-1,-1.043330479E1,1.116251707E0
1.345161219E1,5.982056856E-1,-1.084516907E1,1.274178028E0
1.346132500E1,5.623133183E-1,-1.138146114E1,1.334297776E0
1.347103870E1,5.862415433E-1,-1.143410301E1,1.343868971E0
1.348075308E1,3.801597059E-1,-1.118734360E1,9.655039310E-1
1.349046667E1,-4.097708687E-2,-1.072283649E1,3.885345757E-1
1.350017948E1,-4.983053207E-1,-1.025384331E1,6.520441920E-2
1.350989318E1,-1.070489049E0,-9.777372360E0,-2.572284266E-2
1.351960755E1,-1.479960799E0,-9.403793335E0,-3.320041299E-1
1.352932115E1,-1.688136339E0,-9.262616158E0,-7.869395614E-1
1.353903396E1,-1.738385677E0,-9.329615593E0,-1.136590719E0
1.354874766E1,-1.731207132E0,-9.219545364E0,-1.296909928E0
1.355846208E1,-1.781456470E0,-9.114261627E0,-1.229910851E0
1.356817563E1,-1.848754644E0,-9.001500130E0,-1.107876897E0
1.357788844E1,-1.537388563E0,-9.054141998E0,-6.529414654E-1
1.358760214E1,-1.228415370E0,-9.166903496E0,-5.204389244E-2
1.359731657E1,-1.185344458E0,-9.164510727E0,1.274178028E0
1.360703011E1,-1.314856052E0,-8.953642845E0,1.654935956E0
1.361674297E1,-1.640279889E0,-8.240283012E0,4.316053987E-1
1.362645657E1,-1.913360834E0,-7.711170197E0,-1.296909928E0
1.363617104E1,-2.159821510E0,-7.189235687E0,-2.134995937E0
1.364588459E1,-2.464009047E0,-6.509375095E0,-1.775773525E0
1.365559745E1,-2.475973129E0,-5.558825970E0,-1.485942841E0
1.366531104E1,-2.562114954E0,-4.428815842E0,-2.324028969E0
1.367502552E1,-2.854039192E0,-3.964308977E0,-3.782155275E0
1.368473906E1,-2.849253654E0,-4.330709934E0,-4.775475979E0
1.369445193E1,-3.318545818E0,-5.362614632E0,-3.758227110E0
1.370416552E1,-3.495913982E0,-6.734300137E0,-2.374278307E0
1.371388000E1,-3.052942514E0,-8.096714020E0,-2.352742910E0
1.372359360E1,-2.367997169E0,-9.097511292E0,-3.530609846E0
1.373330641E1,-1.719243050E0,-9.549755096E0,-4.840082169E0
1.374302000E1,-1.123131156E0,-9.798908234E0,-4.816154003E0
1.375273448E1,4.498506486E-1,-1.067976570E1,-3.600001574E0
1.376244808E1,2.168794632E0,-1.141496086E1,-2.019841433E0
1.377216089E1,3.186043262E0,-1.152024460E1,-1.914557219E0
1.378187458E1,2.738585472E0,-1.090499020E1,-3.523431301E0
1.379158896E1,1.309173107E0,-1.001665497E1,-4.691727161E0
1.380130255E1,-2.039881349E-1,-9.746265411E0,-4.593621254E0
1.381101537E1,-1.410568953E0,-9.743872643E0,-3.772583961E0
1.382072906E1,-2.059323072E0,-9.506684303E0,-3.590430260E0
1.383044344E1,-2.521436930E0,-8.829216003E0,-4.198506355E0
1.384015703E1,-2.605185747E0,-8.046463966E0,-5.239982605E0
1.384986985E1,-2.442473650E0,-7.208378315E0,-6.061318874E0
1.385958354E1,-1.989931107E0,-6.463911057E0,-6.896713257E0
1.386929797E1,-1.604387641E0,-5.863013744E0,-8.383553505E0
1.387901151E1,-1.453639746E0,-5.544469357E0,-7.931010723E0
1.388872432E1,-6.610172391E-1,-5.896512985E0,-4.500301361E0
1.389843802E1,-1.007976532E-1,-6.435197353E0,-2.213959217E0
1.390815245E1,-6.777670383E-1,-6.329913139E0,-3.032603502E0
1.391786599E1,-2.073679924E0,-5.630610943E0,-4.916951656E0
1.392757886E1,-3.316153049E0,-5.333900928E0,-7.313363075E0
1.393729245E1,-3.921836376E0,-5.276473045E0,-9.549455643E0
1.394700693E1,-3.639483213E0,-5.690730572E0,-1.041595650E1
1.395672047E1,-2.667398930E0,-5.982655048E0,-8.338089943E0
1.396643334E1,-1.329213023E0,-6.578766823E0,-4.864309311E0
1.397614693E1,-9.532406926E-1,-6.801299095E0,-4.028615952E0
1.398586141E1,-1.036989570E0,-6.435197353E0,-5.139483929E0
1.399557500E1,-5.485545993E-1,-6.121438503E0,-7.310970306E0
1.400528782E1,-3.619144261E-1,-6.059225082E0,-8.752047539E0
1.401500151E1,-1.534995675E0,-5.831906796E0,-9.568598747E0
1.402471589E1,-2.830111027E0,-5.489434242E0,-9.930213928E0
1.403442948E1,-3.596412420E0,-5.120640278E0,-1.085414219E1
1.404414229E1,-3.677768469E0,-4.869394302E0,-1.059571743E1
1.405385599E1,-2.760719061E0,-4.620540619E0,-9.178269386E0
1.406357042E1,-1.820040703E0,-4.407280445E0,-9.312267303E0
1.407328396E1,-7.570292354E-1,-4.299602985E0,-9.264410973E0
1.408299677E1,-2.973082066E-1,-4.718646049E0,-8.292626381E0
1.409271047E1,-6.251249462E-2,-4.735395908E0,-8.100900650E0
1.410242490E1,2.006980032E-1,-4.541278362E0,-7.626822948E0
1.411213844E1,1.815554202E-1,-4.383351803E0,-8.814560890E0
1.412185130E1,-1.417747438E-1,-3.985844374E0,-9.767203331E0
1.413156490E1,-6.825526357E-1,-2.853441000E0,-1.022453117E1
1.414127938E1,-2.193320990E0,-2.829512835E0,-1.040159988E1
1.415099292E1,-2.454437733E0,-3.004487991E0,-1.022931671E1
1.416070578E1,-2.578864574E0,-3.368196964E0,-1.031545830E1
1.417041938E1,-2.466402054E0,-3.408874989E0,-9.046664238E0
1.418013386E1,-2.753540754E0,-3.315554857E0,-9.061020851E0
1.418984745E1,-2.866003275E0,-2.772084951E0,-9.101698875E0
1.419956026E1,-3.002693415E0,-2.147259235E0,-8.843274117E0
1.420927396E1,-3.407080412E0,-1.479362607E0,-9.824630737E0
1.421898834E1,-3.902693748E0,-1.235294700E0,-1.053350449E1
1.422870193E1,-4.680959225E0,-1.807478428E0,-9.966106415E0
1.423841474E1,-5.437390327E0,-2.592623234E0,-9.990034103E0
1.424812844E1,-5.391926765E0,-3.358625650E0,-1.029870892E1
1.425784287E1,-4.747958183E0,-3.528815269E0,-1.080150032E1
1.426755641E1,-4.400700092E0,-3.162414312E0,-1.000917721E1
1.427726927E1,-4.249952316E0,-2.154437780E0,-1.066271687E1
1.428698287E1,-3.852444410E0,-1.737787485E0,-1.076082230E1
1.429669735E1,-3.670589924E0,-1.860120535E0,-1.038963604E1
1.430641089E1,-4.151846409E0,-1.977368832E0,-1.015513897E1
1.431612375E1,-3.986442566E0,-2.190330029E0,-1.090199947E1
1.432583745E1,-4.115953922E0,-2.240579367E0,-1.049043369E1
1.433555183E1,-4.159024715E0,-2.161616087E0,-1.063878822E1
1.434526542E1,-4.604089737E0,-1.814656854E0,-1.168744278E1
1.435497823E1,-4.604089737E0,-1.522433400E0,-1.132582760E1
1.436469193E1,-4.817350388E0,-1.309472203E0,-1.169462204E1
1.437440636E1,-4.891527653E0,-1.287936807E0,-1.121575832E1
1.438411990E1,-4.235595226E0,-1.230509043E0,-1.156032467E1
1.439383276E1,-3.524627686E0,-1.304686546E0,-1.160130119E1
1.440354636E1,-3.299403429E0,-1.388435364E0,-1.181426239E1
1.441326084E1,-3.306581736E0,-1.524826288E0,-1.164197922E1
1.442297438E1,-3.337688446E0,-1.613360643E0,-1.161805153E1
1.443268724E1,-3.512663603E0,-1.749751568E0,-1.119900799E1
1.444240084E1,-3.835694790E0,-1.668395638E0,-1.152443218E1
1.445211532E1,-3.881158352E0,-1.716252089E0,-1.125404263E1
1.446182891E1,-3.570091486E0,-1.879263043E0,-1.118943691E1
1.447154172E1,-3.596412420E0,-2.015654087E0,-1.132582760E1
1.448125542E1,-3.495913982E0,-2.108973980E0,-1.103121185E1
1.449096979E1,-3.110370398E0,-2.228615284E0,-1.096181965E1
1.450068339E1,-3.069692373E0,-2.245364904E0,-1.017906761E1
1.451039620E1,-3.440579891E0,-2.099402666E0,-1.045902824E1
1.452010990E1,-3.594019651E0,-2.178365946E0,-1.031306553E1
1.452982433E1,-3.696911097E0,-2.592623234E0,-9.721739769E0
1.453953787E1,-3.110370398E0,-3.164807081E0,-9.475278854E0
1.454925073E1,-3.086441994E0,-3.093022346E0,-9.779167175E0
1.455896433E1,-3.462115288E0,-2.997309446E0,-9.719346046E0
1.456867880E1,-3.833301783E0,-2.513660192E0,-9.827023506E0
1.457839240E1,-4.132703781E0,-2.449054003E0,-9.448957443E0
1.458810521E1,-3.775874138E0,-2.451446772E0,-9.180662155E0
1.459781880E1,-3.737588882E0,-2.678765059E0,-8.436195374E0
1.460753328E1,-3.617947817E0,-3.021237612E0,-7.995616913E0
1.461724688E1,-3.469293833E0,-3.447459221E0,-8.510373116E0
1.462695969E1,-3.385545015E0,-3.739383698E0,-8.517551422E0
1.463667339E1,-3.620340586E0,-3.914059639E0,-9.116056442E0
1.464638782E1,-3.553341627E0,-4.072285175E0,-9.128020287E0
1.465610136E1,-3.699303865E0,-4.337888241E0,-8.637192726E0
1.466581417E1,-3.804588079E0,-4.304389000E0,-8.527122498E0
1.467552787E1,-3.711267948E0,-4.234996796E0,-8.452944756E0
1.468524229E1,-3.589233875E0,-4.306781769E0,-8.488837242E0
1.469495584E1,-3.543770313E0,-4.514957428E0,-8.084151268E0
1.470466870E1,-3.517449379E0,-4.747360229E0,-7.878368378E0
1.471438229E1,-3.658625841E0,-5.000999451E0,-7.768298626E0
1.472409677E1,-3.768695593E0,-5.496612549E0,-7.787441254E0
1.473381037E1,-3.594019651E0,-5.745765209E0,-7.907082558E0
1.474352318E1,-3.399901867E0,-5.961119175E0,-7.581359386E0
1.475323688E1,-3.100799084E0,-6.181259155E0,-7.488039494E0
1.476295125E1,-2.638685226E0,-6.389733791E0,-7.373183727E0
1.477266485E1,-2.245963097E0,-6.652944088E0,-6.963712215E0
1.478237766E1,-2.217249393E0,-6.607480526E0,-6.714858532E0
1.479209136E1,-2.167000055E0,-6.746264458E0,-6.334100723E0
1.480180578E1,-1.966002941E0,-7.301698208E0,-5.673382282E0
1.481151932E1,-1.673779488E0,-7.400103092E0,-5.838487148E0
1.482123219E1,-1.728814363E0,-7.749455452E0,-6.145067692E0
1.483094578E1,-1.697707653E0,-8.022536278E0,-5.840879917E0
1.484066026E1,-1.199701428E0,-8.008178711E0,-5.453242779E0
1.485037386E1,-8.455637097E-1,-7.912167072E0,-5.345266819E0
1.486008667E1,-5.126622319E-1,-7.529315472E0,-5.273481846E0
1.486980037E1,-7.926224917E-2,-6.971488953E0,-5.067699432E0
1.487951474E1,-4.624129832E-1,-6.238687038E0,-4.938487053E0
1.488922834E1,-1.377069473E0,-6.674479485E0,-4.837689400E0
1.489894115E1,-1.719243050E0,-7.916952610E0,-4.356731892E0
1.490865485E1,-1.175773263E0,-8.599505424E0,-3.578466177E0
1.491836927E1,-9.840483218E-2,-8.798110008E0,-2.860320330E0
1.492808282E1,6.819544435E-1,-8.860322952E0,-2.108675003E0
1.493779568E1,1.256531000E0,-9.269794464E0,-2.050948143E0
1.494750927E1,8.135597110E-1,-8.927322388E0,-1.866700768E0
1.495722375E1,-9.293124676E-1,-8.036892891E0,-1.440479279E0
1.496693729E1,-1.843968987E0,-7.529315472E0,-1.835594058E0
1.497665016E1,-1.637887120E0,-7.809275627E0,-2.199602127E0
1.498636375E1,-1.194915771E0,-8.414958954E0,-2.544168711E0
1.499607823E1,-9.675976634E-1,-8.903393745E0,-2.683251381E0
1.500579183E1,-1.094417214E0,-8.740681648E0,-2.285743713E0
1.501550464E1,-1.245165110E0,-9.056534767E0,-2.228316069E0
1.502521834E1,-1.266999602E0,-9.001500130E0,-1.986341953E0
1.503493271E1,-1.372283816E0,-8.513363838E0,-2.027019978E0
1.504464630E1,-1.566102386E0,-8.417351723E0,-2.733500719E0
1.505435912E1,-1.570888042E0,-8.350353241E0,-3.700500250E0
1.506407282E1,-1.604387641E0,-7.957930088E0,-3.952045679E0
