"Time (s)","Acceleration x (m/s^2)","Acceleration y (m/s^2)","Acceleration z (m/s^2)"
6.589896700E-2,-1.649851203E0,-1.582253933E0,-9.628418922E0
7.561344600E-2,-1.635494232E0,-1.591825247E0,-9.609276772E0
8.532704000E-2,-1.616351724E0,-1.594218135E0,-9.618847847E0
9.503985300E-2,-1.585245013E0,-1.610967875E0,-9.630811691E0
1.047535500E-1,-1.558923960E0,-1.625324726E0,-9.659525871E0
1.144679780E-1,-1.551745534E0,-1.646860242E0,-9.642776489E0
1.241815710E-1,-1.554138303E0,-1.642074585E0,-9.626026154E0
1.338944360E-1,-1.568495274E0,-1.639681697E0,-9.628418922E0
1.436081340E-1,-1.558923960E0,-1.630110383E0,-9.621240616E0
1.533225610E-1,-1.590030670E0,-1.634896040E0,-9.611669540E0
1.630361550E-1,-1.594816327E0,-1.649253011E0,-9.621240616E0
1.727490190E-1,-1.592423439E0,-1.656431437E0,-9.645169258E0
1.824627170E-1,-1.587637782E0,-1.666002750E0,-9.652347565E0
1.921771440E-1,-1.611566067E0,-1.658824325E0,-9.657133102E0
2.018908420E-1,-1.613958836E0,-1.642074585E0,-9.645169258E0
2.116036030E-1,-1.621137381E0,-1.622931957E0,-9.637990952E0
2.213173000E-1,-1.616351724E0,-1.627717614E0,-9.602098465E0
2.310317280E-1,-1.590030670E0,-1.618146300E0,-9.673882484E0
2.407453210E-1,-1.563709617E0,-1.620539188E0,-9.616455078E0
2.504581860E-1,-1.549352646E0,-1.632503271E0,-9.623633385E0
2.601718840E-1,-1.534995675E0,-1.649253011E0,-9.688240051E0
2.698863110E-1,-1.515853167E0,-1.646860242E0,-9.693025589E0
2.795999050E-1,-1.511067510E0,-1.654038668E0,-9.640383720E0
2.893127690E-1,-1.523031592E0,-1.644467354E0,-9.669096947E0
2.990264670E-1,-1.542174220E0,-1.622931957E0,-9.695418358E0
3.087408940E-1,-1.578066587E0,-1.603789330E0,-9.602098465E0
3.184544880E-1,-1.609173179E0,-1.587039590E0,-9.580562592E0
3.281673530E-1,-1.628315806E0,-1.575075507E0,-9.640383720E0
3.378810500E-1,-1.649851203E0,-1.579861164E0,-9.649954796E0
3.475954780E-1,-1.652244091E0,-1.594218135E0,-9.611669540E0
3.573090710E-1,-1.630708575E0,-1.608574986E0,-9.659525871E0
3.670219360E-1,-1.606780410E0,-1.634896040E0,-9.700203896E0
3.767356340E-1,-1.578066587E0,-1.637288928E0,-9.657133102E0
3.864500610E-1,-1.570888042E0,-1.634896040E0,-9.640383720E0
3.961636550E-1,-1.563709617E0,-1.632503271E0,-9.700203896E0
4.058765190E-1,-1.561316729E0,-1.634896040E0,-9.678668022E0
4.155902170E-1,-1.558923960E0,-1.630110383E0,-9.606884003E0
4.253046440E-1,-1.546959877E0,-1.627717614E0,-9.640383720E0
4.350182380E-1,-1.515853167E0,-1.642074585E0,-9.681061745E0
4.447311030E-1,-1.515853167E0,-1.654038668E0,-9.623633385E0
4.544448000E-1,-1.530210137E0,-1.668395638E0,-9.618847847E0
4.641592280E-1,-1.551745534E0,-1.656431437E0,-9.683454514E0
4.738728210E-1,-1.549352646E0,-1.646860242E0,-9.652347565E0
4.835856860E-1,-1.554138303E0,-1.627717614E0,-9.587740898E0
4.932993840E-1,-1.554138303E0,-1.634896040E0,-9.628418922E0
5.030138110E-1,-1.544566989E0,-1.630110383E0,-9.690632820E0
5.127274050E-1,-1.546959877E0,-1.622931957E0,-9.647562027E0
5.224402690E-1,-1.556531072E0,-1.627717614E0,-9.621240616E0
5.321539670E-1,-1.568495274E0,-1.630110383E0,-9.683454514E0
5.418683940E-1,-1.568495274E0,-1.649253011E0,-9.676275253E0
5.515819880E-1,-1.563709617E0,-1.673181176E0,-9.626026154E0
5.612948530E-1,-1.539781332E0,-1.692323804E0,-9.678668022E0
5.710085500E-1,-1.544566989E0,-1.680359721E0,-9.728918076E0
5.807229780E-1,-1.546959877E0,-1.656431437E0,-9.666704178E0
5.904365710E-1,-1.570888042E0,-1.613360643E0,-9.623633385E0
6.001494360E-1,-1.568495274E0,-1.589432478E0,-9.637990952E0
6.098631340E-1,-1.575673699E0,-1.577468276E0,-9.597312927E0
6.195775610E-1,-1.575673699E0,-1.560718536E0,-9.547062874E0
6.292911550E-1,-1.561316729E0,-1.567897081E0,-9.635597229E0
6.390040190E-1,-1.532602906E0,-1.603789330E0,-9.719346046E0
6.487177170E-1,-1.558923960E0,-1.615753531E0,-9.657133102E0
6.584321440E-1,-1.594816327E0,-1.630110383E0,-9.664311409E0
6.681457380E-1,-1.621137381E0,-1.632503271E0,-9.707382202E0
6.778586030E-1,-1.642672777E0,-1.630110383E0,-9.673882484E0
6.875723000E-1,-1.659422517E0,-1.627717614E0,-9.599705696E0
6.972867280E-1,-1.666600943E0,-1.620539188E0,-9.635597229E0
7.070003210E-1,-1.652244091E0,-1.618146300E0,-9.633204460E0
7.167131860E-1,-1.633101463E0,-1.615753531E0,-9.573384285E0
7.264268840E-1,-1.616351724E0,-1.627717614E0,-9.582955360E0
7.361413110E-1,-1.611566067E0,-1.644467354E0,-9.611669540E0
7.458549050E-1,-1.597209096E0,-1.646860242E0,-9.606884003E0
7.555677170E-1,-1.582852125E0,-1.651645780E0,-9.614062309E0
7.652814150E-1,-1.570888042E0,-1.642074585E0,-9.645169258E0
7.749958940E-1,-1.549352646E0,-1.654038668E0,-9.669096947E0
7.847094880E-1,-1.554138303E0,-1.661217093E0,-9.678668022E0
7.944223000E-1,-1.546959877E0,-1.654038668E0,-9.678668022E0
8.041359980E-1,-1.551745534E0,-1.646860242E0,-9.688240051E0
8.138504780E-1,-1.556531072E0,-1.630110383E0,-9.671489716E0
8.235640710E-1,-1.554138303E0,-1.634896040E0,-9.659525871E0
8.332768840E-1,-1.578066587E0,-1.622931957E0,-9.626026154E0
8.429905820E-1,-1.561316729E0,-1.615753531E0,-9.604491234E0
8.527050090E-1,-1.573280931E0,-1.615753531E0,-9.606884003E0
8.624186030E-1,-1.570888042E0,-1.613360643E0,-9.618847847E0
8.721314670E-1,-1.566102386E0,-1.622931957E0,-9.645169258E0
8.818451650E-1,-1.582852125E0,-1.627717614E0,-9.659525871E0
8.915595920E-1,-1.561316729E0,-1.627717614E0,-9.676275253E0
9.012731860E-1,-1.551745534E0,-1.632503271E0,-9.695418358E0
9.109860500E-1,-1.546959877E0,-1.651645780E0,-9.700203896E0
9.206997480E-1,-1.549352646E0,-1.677966833E0,-9.693025589E0
9.304141750E-1,-1.554138303E0,-1.680359721E0,-9.690632820E0
9.401277690E-1,-1.532602906E0,-1.687538147E0,-9.685847282E0
9.498406340E-1,-1.515853167E0,-1.685145378E0,-9.678668022E0
9.595543320E-1,-1.499103427E0,-1.675574064E0,-9.645169258E0
9.692687590E-1,-1.487139225E0,-1.656431437E0,-9.626026154E0
9.789823530E-1,-1.489532113E0,-1.637288928E0,-9.628418922E0
9.886952170E-1,-1.487139225E0,-1.639681697E0,-9.606884003E0
9.984089150E-1,-1.513460279E0,-1.618146300E0,-9.618847847E0
1.008123342E0,-1.561316729E0,-1.622931957E0,-9.640383720E0
1.017836936E0,-1.580459356E0,-1.627717614E0,-9.657133102E0
1.027549800E0,-1.599601984E0,-1.627717614E0,-9.669096947E0
1.037263498E0,-1.618744493E0,-1.634896040E0,-9.666704178E0
1.046977925E0,-1.606780410E0,-1.610967875E0,-9.637990952E0
1.056691519E0,-1.611566067E0,-1.606182218E0,-9.611669540E0
1.066404384E0,-1.616351724E0,-1.599003673E0,-9.590133667E0
1.076118082E0,-1.640279889E0,-1.587039590E0,-9.570991516E0
1.085832509E0,-1.633101463E0,-1.596610904E0,-9.602098465E0
1.095546103E0,-1.621137381E0,-1.613360643E0,-9.645169258E0
1.105258967E0,-1.625923038E0,-1.639681697E0,-9.697811127E0
1.114972665E0,-1.621137381E0,-1.634896040E0,-9.695418358E0
1.124687092E0,-1.611566067E0,-1.634896040E0,-9.685847282E0
1.134400686E0,-1.601994753E0,-1.627717614E0,-9.661918640E0
1.144113550E0,-1.599601984E0,-1.608574986E0,-9.642776489E0
1.153827248E0,-1.587637782E0,-1.589432478E0,-9.635597229E0
1.163541675E0,-1.566102386E0,-1.575075507E0,-9.633204460E0
1.173255269E0,-1.546959877E0,-1.591825247E0,-9.635597229E0
1.182968134E0,-1.534995675E0,-1.613360643E0,-9.630811691E0
1.192681832E0,-1.527817249E0,-1.630110383E0,-9.642776489E0
1.202396259E0,-1.523031592E0,-1.646860242E0,-9.640383720E0
1.212109853E0,-1.525424480E0,-1.666002750E0,-9.657133102E0
1.221822717E0,-1.530210137E0,-1.663609982E0,-9.649954796E0
1.231536415E0,-1.551745534E0,-1.651645780E0,-9.661918640E0
1.241250113E0,-1.563709617E0,-1.637288928E0,-9.637990952E0
1.250964488E0,-1.592423439E0,-1.627717614E0,-9.635597229E0
1.260677300E0,-1.613958836E0,-1.625324726E0,-9.635597229E0
1.270390894E0,-1.609173179E0,-1.627717614E0,-9.659525871E0
1.280105425E0,-1.590030670E0,-1.632503271E0,-9.645169258E0
1.289819019E0,-1.546959877E0,-1.637288928E0,-9.633204460E0
1.299531884E0,-1.534995675E0,-1.668395638E0,-9.635597229E0
1.309245478E0,-1.532602906E0,-1.654038668E0,-9.609276772E0
1.318960009E0,-1.525424480E0,-1.639681697E0,-9.621240616E0
1.328673603E0,-1.527817249E0,-1.601396561E0,-9.597312927E0
1.338386467E0,-1.525424480E0,-1.591825247E0,-9.618847847E0
1.348100165E0,-1.527817249E0,-1.579861164E0,-9.640383720E0
1.357814592E0,-1.506281853E0,-1.594218135E0,-9.657133102E0
1.367528186E0,-1.496710539E0,-1.630110383E0,-9.683454514E0
1.377240998E0,-1.496710539E0,-1.661217093E0,-9.702596664E0
1.386954748E0,-1.501496196E0,-1.680359721E0,-9.728918076E0
1.396669175E0,-1.566102386E0,-1.670788407E0,-9.709774971E0
1.406382769E0,-1.621137381E0,-1.661217093E0,-9.693025589E0
1.416095582E0,-1.671386600E0,-1.630110383E0,-9.666704178E0
1.425809280E0,-1.714457393E0,-1.589432478E0,-9.640383720E0
1.435523759E0,-1.728814363E0,-1.567897081E0,-9.635597229E0
1.445237353E0,-1.712064624E0,-1.563111424E0,-9.609276772E0
1.454950165E0,-1.673779488E0,-1.582253933E0,-9.594920158E0
1.464663863E0,-1.640279889E0,-1.601396561E0,-9.597312927E0
1.474378290E0,-1.606780410E0,-1.627717614E0,-9.597312927E0
1.484091988E0,-1.587637782E0,-1.654038668E0,-9.621240616E0
1.493804748E0,-1.580459356E0,-1.670788407E0,-9.657133102E0
1.503518446E0,-1.556531072E0,-1.685145378E0,-9.683454514E0
1.513232925E0,-1.554138303E0,-1.680359721E0,-9.683454514E0
1.522946467E0,-1.561316729E0,-1.673181176E0,-9.683454514E0
1.532659332E0,-1.566102386E0,-1.677966833E0,-9.678668022E0
1.542373030E0,-1.566102386E0,-1.673181176E0,-9.657133102E0
1.552087509E0,-1.561316729E0,-1.658824325E0,-9.637990952E0
1.561801103E0,-1.575673699E0,-1.642074585E0,-9.614062309E0
1.571513915E0,-1.601994753E0,-1.642074585E0,-9.582955360E0
1.581227613E0,-1.609173179E0,-1.613360643E0,-9.580562592E0
1.590942092E0,-1.599601984E0,-1.606182218E0,-9.606884003E0
1.600655686E0,-1.578066587E0,-1.601396561E0,-9.621240616E0
1.610368498E0,-1.570888042E0,-1.630110383E0,-9.635597229E0
1.620082196E0,-1.556531072E0,-1.646860242E0,-9.661918640E0
1.629796675E0,-1.575673699E0,-1.646860242E0,-9.693025589E0
1.639510269E0,-1.563709617E0,-1.666002750E0,-9.707382202E0
1.649223082E0,-1.570888042E0,-1.663609982E0,-9.695418358E0
1.658936780E0,-1.566102386E0,-1.651645780E0,-9.688240051E0
1.668651259E0,-1.566102386E0,-1.620539188E0,-9.685847282E0
1.678364800E0,-1.573280931E0,-1.608574986E0,-9.671489716E0
1.688077665E0,-1.578066587E0,-1.603789330E0,-9.635597229E0
1.697791363E0,-1.578066587E0,-1.594218135E0,-9.618847847E0
1.707505842E0,-1.578066587E0,-1.587039590E0,-9.626026154E0
1.717219384E0,-1.575673699E0,-1.594218135E0,-9.630811691E0
1.726932248E0,-1.568495274E0,-1.608574986E0,-9.637990952E0
1.736645946E0,-1.570888042E0,-1.615753531E0,-9.645169258E0
1.746360373E0,-1.568495274E0,-1.632503271E0,-9.628418922E0
1.756074071E0,-1.578066587E0,-1.644467354E0,-9.628418922E0
1.765786832E0,-1.609173179E0,-1.639681697E0,-9.618847847E0
1.775500530E0,-1.613958836E0,-1.613360643E0,-9.616455078E0
1.785215009E0,-1.623530149E0,-1.615753531E0,-9.618847847E0
1.794928603E0,-1.625923038E0,-1.606182218E0,-9.633204460E0
1.804641415E0,-1.623530149E0,-1.620539188E0,-9.649954796E0
1.814355113E0,-1.616351724E0,-1.646860242E0,-9.652347565E0
1.824069540E0,-1.611566067E0,-1.651645780E0,-9.652347565E0
1.833783238E0,-1.611566067E0,-1.658824325E0,-9.645169258E0
1.843495998E0,-1.609173179E0,-1.668395638E0,-9.626026154E0
1.853209696E0,-1.621137381E0,-1.656431437E0,-9.614062309E0
1.862924123E0,-1.601994753E0,-1.644467354E0,-9.594920158E0
1.872637821E0,-1.594816327E0,-1.632503271E0,-9.621240616E0
1.882350582E0,-1.597209096E0,-1.618146300E0,-9.640383720E0
1.892064280E0,-1.590030670E0,-1.625324726E0,-9.666704178E0
1.901778759E0,-1.585245013E0,-1.627717614E0,-9.666704178E0
1.911492353E0,-1.606780410E0,-1.637288928E0,-9.666704178E0
1.921205165E0,-1.599601984E0,-1.625324726E0,-9.659525871E0
1.930918863E0,-1.630708575E0,-1.618146300E0,-9.626026154E0
1.940633290E0,-1.621137381E0,-1.618146300E0,-9.604491234E0
1.950346988E0,-1.609173179E0,-1.606182218E0,-9.614062309E0
1.960059748E0,-1.597209096E0,-1.610967875E0,-9.635597229E0
1.969773446E0,-1.597209096E0,-1.618146300E0,-9.645169258E0
1.979487925E0,-1.594816327E0,-1.622931957E0,-9.661918640E0
1.989201519E0,-1.594816327E0,-1.615753531E0,-9.664311409E0
1.998914332E0,-1.611566067E0,-1.618146300E0,-9.657133102E0
2.008628030E0,-1.611566067E0,-1.613360643E0,-9.649954796E0
2.018342457E0,-1.616351724E0,-1.620539188E0,-9.626026154E0
2.028056050E0,-1.599601984E0,-1.625324726E0,-9.621240616E0
2.037768915E0,-1.594816327E0,-1.625324726E0,-9.633204460E0
2.047482613E0,-1.575673699E0,-1.646860242E0,-9.645169258E0
2.057197040E0,-1.585245013E0,-1.658824325E0,-9.661918640E0
2.066910634E0,-1.573280931E0,-1.651645780E0,-9.659525871E0
2.076623498E0,-1.573280931E0,-1.646860242E0,-9.659525871E0
2.086337196E0,-1.592423439E0,-1.625324726E0,-9.637990952E0
2.096051623E0,-1.616351724E0,-1.615753531E0,-9.626026154E0
2.105765217E0,-1.611566067E0,-1.627717614E0,-9.628418922E0
2.115478082E0,-1.590030670E0,-1.630110383E0,-9.628418922E0
2.125191780E0,-1.597209096E0,-1.637288928E0,-9.630811691E0
2.134906207E0,-1.597209096E0,-1.646860242E0,-9.654740334E0
2.144619800E0,-1.613958836E0,-1.644467354E0,-9.661918640E0
2.154332665E0,-1.625923038E0,-1.646860242E0,-9.637990952E0
2.164046363E0,-1.637887120E0,-1.618146300E0,-9.628418922E0
2.173760790E0,-1.623530149E0,-1.608574986E0,-9.621240616E0
2.183474384E0,-1.597209096E0,-1.610967875E0,-9.606884003E0
2.193187248E0,-1.585245013E0,-1.613360643E0,-9.626026154E0
2.202900946E0,-1.568495274E0,-1.620539188E0,-9.659525871E0
2.212615373E0,-1.546959877E0,-1.644467354E0,-9.671489716E0
2.222328967E0,-1.544566989E0,-1.644467354E0,-9.673882484E0
2.232041832E0,-1.570888042E0,-1.639681697E0,-9.681061745E0
2.241755530E0,-1.594816327E0,-1.637288928E0,-9.681061745E0
2.251469957E0,-1.599601984E0,-1.622931957E0,-9.676275253E0
2.261183550E0,-1.609173179E0,-1.610967875E0,-9.630811691E0
2.270896415E0,-1.599601984E0,-1.596610904E0,-9.602098465E0
2.280610113E0,-1.599601984E0,-1.589432478E0,-9.592526436E0
2.290324540E0,-1.621137381E0,-1.575075507E0,-9.618847847E0
2.300038134E0,-1.654636860E0,-1.579861164E0,-9.623633385E0
2.309750998E0,-1.668993831E0,-1.601396561E0,-9.628418922E0
2.319464696E0,-1.659422517E0,-1.622931957E0,-9.623633385E0
2.329179123E0,-1.654636860E0,-1.639681697E0,-9.647562027E0
2.338892717E0,-1.640279889E0,-1.654038668E0,-9.647562027E0
2.348605582E0,-1.611566067E0,-1.670788407E0,-9.647562027E0
2.358319280E0,-1.575673699E0,-1.677966833E0,-9.635597229E0
2.368033707E0,-1.573280931E0,-1.694716692E0,-9.628418922E0
2.377747300E0,-1.556531072E0,-1.668395638E0,-9.637990952E0
2.387460165E0,-1.549352646E0,-1.670788407E0,-9.642776489E0
2.397173863E0,-1.546959877E0,-1.654038668E0,-9.645169258E0
2.406888290E0,-1.554138303E0,-1.642074585E0,-9.645169258E0
2.416601884E0,-1.573280931E0,-1.646860242E0,-9.647562027E0
2.426314748E0,-1.585245013E0,-1.651645780E0,-9.642776489E0
2.436028446E0,-1.585245013E0,-1.658824325E0,-9.647562027E0
2.445742873E0,-1.613958836E0,-1.639681697E0,-9.640383720E0
2.455456467E0,-1.628315806E0,-1.615753531E0,-9.628418922E0
2.465169332E0,-1.628315806E0,-1.587039590E0,-9.614062309E0
2.474883030E0,-1.621137381E0,-1.577468276E0,-9.611669540E0
2.484597457E0,-1.611566067E0,-1.579861164E0,-9.616455078E0
2.494311050E0,-1.609173179E0,-1.591825247E0,-9.628418922E0
2.504023863E0,-1.599601984E0,-1.610967875E0,-9.642776489E0
2.513737561E0,-1.573280931E0,-1.627717614E0,-9.652347565E0
2.523452040E0,-1.580459356E0,-1.637288928E0,-9.669096947E0
2.533165634E0,-1.580459356E0,-1.627717614E0,-9.681061745E0
2.542878446E0,-1.594816327E0,-1.627717614E0,-9.671489716E0
2.552592144E0,-1.601994753E0,-1.620539188E0,-9.649954796E0
2.562306571E0,-1.609173179E0,-1.596610904E0,-9.637990952E0
2.572020165E0,-1.606780410E0,-1.599003673E0,-9.621240616E0
2.581733030E0,-1.606780410E0,-1.620539188E0,-9.633204460E0
2.591446728E0,-1.592423439E0,-1.637288928E0,-9.626026154E0
2.601161155E0,-1.580459356E0,-1.646860242E0,-9.642776489E0
2.610874748E0,-1.561316729E0,-1.649253011E0,-9.635597229E0
2.620587613E0,-1.568495274E0,-1.656431437E0,-9.645169258E0
2.630301311E0,-1.575673699E0,-1.646860242E0,-9.642776489E0
2.640015738E0,-1.570888042E0,-1.634896040E0,-9.635597229E0
2.649729332E0,-1.582852125E0,-1.618146300E0,-9.628418922E0
2.659442196E0,-1.568495274E0,-1.610967875E0,-9.642776489E0
2.669155894E0,-1.573280931E0,-1.620539188E0,-9.671489716E0
2.678870321E0,-1.585245013E0,-1.639681697E0,-9.659525871E0
2.688583915E0,-1.594816327E0,-1.661217093E0,-9.654740334E0
2.698296780E0,-1.594816327E0,-1.651645780E0,-9.637990952E0
2.708010478E0,-1.604387641E0,-1.658824325E0,-9.640383720E0
2.717724905E0,-1.592423439E0,-1.654038668E0,-9.633204460E0
2.727438498E0,-1.599601984E0,-1.642074585E0,-9.621240616E0
2.737151363E0,-1.590030670E0,-1.632503271E0,-9.623633385E0
2.746865061E0,-1.578066587E0,-1.625324726E0,-9.626026154E0
2.756579488E0,-1.566102386E0,-1.615753531E0,-9.623633385E0
2.766293082E0,-1.558923960E0,-1.615753531E0,-9.640383720E0
2.776005946E0,-1.568495274E0,-1.625324726E0,-9.659525871E0
2.785719540E0,-1.575673699E0,-1.634896040E0,-9.669096947E0
2.795434071E0,-1.573280931E0,-1.646860242E0,-9.666704178E0
2.805147613E0,-1.587637782E0,-1.656431437E0,-9.661918640E0
2.814860478E0,-1.618744493E0,-1.651645780E0,-9.661918640E0
2.824574175E0,-1.630708575E0,-1.637288928E0,-9.652347565E0
2.834288603E0,-1.645065546E0,-1.620539188E0,-9.630811691E0
2.844002196E0,-1.647458434E0,-1.603789330E0,-9.626026154E0
2.853715061E0,-1.621137381E0,-1.606182218E0,-9.618847847E0
2.863428759E0,-1.616351724E0,-1.606182218E0,-9.611669540E0
2.873143186E0,-1.606780410E0,-1.615753531E0,-9.609276772E0
2.882856780E0,-1.592423439E0,-1.599003673E0,-9.597312927E0
2.892569644E0,-1.599601984E0,-1.615753531E0,-9.611669540E0
2.902283342E0,-1.599601984E0,-1.615753531E0,-9.637990952E0
2.911997769E0,-1.592423439E0,-1.615753531E0,-9.637990952E0
2.921711363E0,-1.597209096E0,-1.632503271E0,-9.657133102E0
2.931424228E0,-1.613958836E0,-1.630110383E0,-9.654740334E0
2.941137925E0,-1.623530149E0,-1.632503271E0,-9.654740334E0
2.950852353E0,-1.628315806E0,-1.656431437E0,-9.647562027E0
2.960565946E0,-1.621137381E0,-1.654038668E0,-9.654740334E0
2.970278811E0,-1.630708575E0,-1.649253011E0,-9.654740334E0
2.979992405E0,-1.628315806E0,-1.627717614E0,-9.642776489E0
2.989706936E0,-1.618744493E0,-1.615753531E0,-9.626026154E0
2.999420530E0,-1.597209096E0,-1.606182218E0,-9.606884003E0
3.009133342E0,-1.587637782E0,-1.618146300E0,-9.616455078E0
3.018847040E0,-1.570888042E0,-1.627717614E0,-9.621240616E0
3.028561467E0,-1.566102386E0,-1.634896040E0,-9.637990952E0
3.038275061E0,-1.570888042E0,-1.637288928E0,-9.647562027E0
3.047987925E0,-1.597209096E0,-1.642074585E0,-9.664311409E0
3.057701623E0,-1.601994753E0,-1.637288928E0,-9.654740334E0
3.067416050E0,-1.611566067E0,-1.615753531E0,-9.633204460E0
3.077129644E0,-1.613958836E0,-1.610967875E0,-9.626026154E0
3.086842509E0,-1.597209096E0,-1.606182218E0,-9.628418922E0
3.096556207E0,-1.582852125E0,-1.603789330E0,-9.633204460E0
3.106270634E0,-1.575673699E0,-1.606182218E0,-9.652347565E0
3.115984228E0,-1.585245013E0,-1.613360643E0,-9.647562027E0
3.125697092E0,-1.599601984E0,-1.615753531E0,-9.647562027E0
3.135410790E0,-1.606780410E0,-1.620539188E0,-9.635597229E0
3.145125217E0,-1.613958836E0,-1.615753531E0,-9.633204460E0
3.154838811E0,-1.597209096E0,-1.613360643E0,-9.628418922E0
3.164551623E0,-1.590030670E0,-1.622931957E0,-9.642776489E0
3.174265321E0,-1.580459356E0,-1.622931957E0,-9.661918640E0
3.183979748E0,-1.582852125E0,-1.630110383E0,-9.661918640E0
3.193693342E0,-1.566102386E0,-1.642074585E0,-9.678668022E0
3.203406207E0,-1.597209096E0,-1.651645780E0,-9.654740334E0
3.213119905E0,-1.585245013E0,-1.649253011E0,-9.652347565E0
3.222834332E0,-1.575673699E0,-1.646860242E0,-9.649954796E0
3.232547925E0,-1.568495274E0,-1.639681697E0,-9.640383720E0
3.242260790E0,-1.563709617E0,-1.632503271E0,-9.635597229E0
3.251974488E0,-1.558923960E0,-1.637288928E0,-9.652347565E0
3.261688915E0,-1.573280931E0,-1.644467354E0,-9.654740334E0
3.271402509E0,-1.587637782E0,-1.656431437E0,-9.661918640E0
3.281115373E0,-1.613958836E0,-1.634896040E0,-9.657133102E0
3.290829071E0,-1.613958836E0,-1.627717614E0,-9.637990952E0
3.300543498E0,-1.618744493E0,-1.630110383E0,-9.633204460E0
3.310257092E0,-1.618744493E0,-1.632503271E0,-9.618847847E0
3.319969957E0,-1.613958836E0,-1.627717614E0,-9.614062309E0
3.329683550E0,-1.611566067E0,-1.622931957E0,-9.628418922E0
3.339398082E0,-1.623530149E0,-1.622931957E0,-9.640383720E0
3.349111623E0,-1.625923038E0,-1.620539188E0,-9.664311409E0
3.358824488E0,-1.628315806E0,-1.620539188E0,-9.652347565E0
3.368538186E0,-1.618744493E0,-1.603789330E0,-9.645169258E0
3.378252613E0,-1.613958836E0,-1.615753531E0,-9.649954796E0
3.387966207E0,-1.606780410E0,-1.627717614E0,-9.645169258E0
3.397679071E0,-1.594816327E0,-1.632503271E0,-9.637990952E0
3.407392769E0,-1.597209096E0,-1.634896040E0,-9.637990952E0
3.417107196E0,-1.613958836E0,-1.642074585E0,-9.652347565E0
3.426820790E0,-1.618744493E0,-1.630110383E0,-9.671489716E0
3.436533655E0,-1.606780410E0,-1.630110383E0,-9.671489716E0
3.446247353E0,-1.599601984E0,-1.620539188E0,-9.649954796E0
3.455961780E0,-1.597209096E0,-1.630110383E0,-9.621240616E0
3.465675373E0,-1.590030670E0,-1.632503271E0,-9.626026154E0
3.475388238E0,-1.582852125E0,-1.618146300E0,-9.647562027E0
3.485101936E0,-1.585245013E0,-1.625324726E0,-9.649954796E0
3.494816363E0,-1.585245013E0,-1.630110383E0,-9.666704178E0
3.504529957E0,-1.566102386E0,-1.622931957E0,-9.633204460E0
3.514242769E0,-1.558923960E0,-1.627717614E0,-9.621240616E0
3.523956467E0,-1.549352646E0,-1.620539188E0,-9.633204460E0
3.533670894E0,-1.542174220E0,-1.625324726E0,-9.664311409E0
3.543384488E0,-1.551745534E0,-1.630110383E0,-9.649954796E0
3.553097353E0,-1.580459356E0,-1.634896040E0,-9.645169258E0
3.562811050E0,-1.592423439E0,-1.637288928E0,-9.635597229E0
3.572525478E0,-1.599601984E0,-1.630110383E0,-9.626026154E0
3.582239071E0,-1.599601984E0,-1.639681697E0,-9.633204460E0
3.591951936E0,-1.597209096E0,-1.639681697E0,-9.645169258E0
3.601665634E0,-1.594816327E0,-1.644467354E0,-9.647562027E0
3.611380061E0,-1.590030670E0,-1.651645780E0,-9.645169258E0
3.621093655E0,-1.585245013E0,-1.642074585E0,-9.649954796E0
3.630806519E0,-1.590030670E0,-1.642074585E0,-9.642776489E0
3.640520217E0,-1.592423439E0,-1.639681697E0,-9.640383720E0
3.650234644E0,-1.606780410E0,-1.630110383E0,-9.645169258E0
3.659948238E0,-1.609173179E0,-1.618146300E0,-9.654740334E0
3.669661103E0,-1.601994753E0,-1.634896040E0,-9.642776489E0
3.679374800E0,-1.592423439E0,-1.613360643E0,-9.630811691E0
3.689089228E0,-1.601994753E0,-1.622931957E0,-9.642776489E0
3.698802821E0,-1.613958836E0,-1.622931957E0,-9.635597229E0
3.708515634E0,-1.613958836E0,-1.615753531E0,-9.628418922E0
3.718229332E0,-1.609173179E0,-1.613360643E0,-9.628418922E0
3.727943811E0,-1.609173179E0,-1.615753531E0,-9.633204460E0
3.737657353E0,-1.604387641E0,-1.618146300E0,-9.647562027E0
3.747370217E0,-1.604387641E0,-1.606182218E0,-9.664311409E0
3.757083915E0,-1.606780410E0,-1.615753531E0,-9.664311409E0
3.766798342E0,-1.592423439E0,-1.601396561E0,-9.671489716E0
3.776511936E0,-1.599601984E0,-1.608574986E0,-9.661918640E0
3.786224800E0,-1.601994753E0,-1.618146300E0,-9.654740334E0
3.795938498E0,-1.578066587E0,-1.639681697E0,-9.654740334E0
3.805652925E0,-1.585245013E0,-1.639681697E0,-9.642776489E0
3.815366519E0,-1.585245013E0,-1.651645780E0,-9.652347565E0
3.825079384E0,-1.585245013E0,-1.666002750E0,-9.637990952E0
3.834793082E0,-1.578066587E0,-1.646860242E0,-9.640383720E0
3.844507509E0,-1.575673699E0,-1.651645780E0,-9.633204460E0
3.854221103E0,-1.563709617E0,-1.656431437E0,-9.635597229E0
3.863933967E0,-1.551745534E0,-1.649253011E0,-9.635597229E0
3.873647665E0,-1.556531072E0,-1.651645780E0,-9.647562027E0
3.883362092E0,-1.551745534E0,-1.661217093E0,-9.635597229E0
3.893075686E0,-1.554138303E0,-1.649253011E0,-9.654740334E0
3.902788498E0,-1.558923960E0,-1.644467354E0,-9.669096947E0
3.912502196E0,-1.582852125E0,-1.642074585E0,-9.661918640E0
3.922216623E0,-1.580459356E0,-1.627717614E0,-9.649954796E0
3.931930321E0,-1.594816327E0,-1.622931957E0,-9.628418922E0
3.941643082E0,-1.599601984E0,-1.603789330E0,-9.618847847E0
3.951356780E0,-1.606780410E0,-1.610967875E0,-9.637990952E0
3.961071207E0,-1.616351724E0,-1.594218135E0,-9.630811691E0
3.970784800E0,-1.611566067E0,-1.594218135E0,-9.626026154E0
3.980497665E0,-1.628315806E0,-1.589432478E0,-9.628418922E0
3.990211363E0,-1.640279889E0,-1.589432478E0,-9.640383720E0
3.999925790E0,-1.649851203E0,-1.603789330E0,-9.659525871E0
4.009639384E0,-1.645065546E0,-1.622931957E0,-9.652347565E0
4.019352248E0,-1.645065546E0,-1.625324726E0,-9.678668022E0
4.029065946E0,-1.618744493E0,-1.634896040E0,-9.681061745E0
4.038780373E0,-1.633101463E0,-1.637288928E0,-9.666704178E0
4.048493967E0,-1.628315806E0,-1.654038668E0,-9.654740334E0
4.058206832E0,-1.637887120E0,-1.639681697E0,-9.621240616E0
4.067920530E0,-1.630708575E0,-1.634896040E0,-9.592526436E0
4.077634957E0,-1.623530149E0,-1.637288928E0,-9.585348129E0
4.087348550E0,-1.590030670E0,-1.632503271E0,-9.599705696E0
4.097061363E0,-1.563709617E0,-1.627717614E0,-9.621240616E0
4.106775061E0,-1.554138303E0,-1.632503271E0,-9.637990952E0
4.116489540E0,-1.554138303E0,-1.637288928E0,-9.640383720E0
4.126203082E0,-1.546959877E0,-1.642074585E0,-9.637990952E0
4.135915946E0,-1.563709617E0,-1.630110383E0,-9.635597229E0
4.145629644E0,-1.587637782E0,-1.627717614E0,-9.649954796E0
4.155344071E0,-1.604387641E0,-1.625324726E0,-9.652347565E0
4.165057665E0,-1.609173179E0,-1.625324726E0,-9.645169258E0
4.174770530E0,-1.616351724E0,-1.632503271E0,-9.647562027E0
4.184484228E0,-1.630708575E0,-1.632503271E0,-9.642776489E0
4.194198655E0,-1.628315806E0,-1.642074585E0,-9.649954796E0
4.203912248E0,-1.640279889E0,-1.644467354E0,-9.633204460E0
4.213625113E0,-1.628315806E0,-1.654038668E0,-9.626026154E0
4.223338811E0,-1.613958836E0,-1.668395638E0,-9.614062309E0
4.233053238E0,-1.590030670E0,-1.651645780E0,-9.602098465E0
4.242766832E0,-1.561316729E0,-1.646860242E0,-9.621240616E0
4.252479696E0,-1.554138303E0,-1.634896040E0,-9.649954796E0
4.262193394E0,-1.556531072E0,-1.625324726E0,-9.654740334E0
4.271907821E0,-1.580459356E0,-1.627717614E0,-9.640383720E0
4.281621415E0,-1.578066587E0,-1.622931957E0,-9.640383720E0
4.291334228E0,-1.590030670E0,-1.630110383E0,-9.640383720E0
4.301047925E0,-1.580459356E0,-1.639681697E0,-9.652347565E0
4.310762405E0,-1.587637782E0,-1.637288928E0,-9.654740334E0
4.320475946E0,-1.592423439E0,-1.642074585E0,-9.669096947E0
4.330188811E0,-1.590030670E0,-1.637288928E0,-9.661918640E0
4.339902509E0,-1.587637782E0,-1.637288928E0,-9.654740334E0
4.349616936E0,-1.585245013E0,-1.620539188E0,-9.640383720E0
4.359330530E0,-1.601994753E0,-1.610967875E0,-9.621240616E0
4.369043394E0,-1.604387641E0,-1.594218135E0,-9.614062309E0
4.378757092E0,-1.616351724E0,-1.613360643E0,-9.614062309E0
4.388471519E0,-1.611566067E0,-1.608574986E0,-9.618847847E0
4.398185113E0,-1.601994753E0,-1.625324726E0,-9.630811691E0
4.407897978E0,-1.606780410E0,-1.656431437E0,-9.645169258E0
4.417611675E0,-1.594816327E0,-1.663609982E0,-9.661918640E0
4.427326103E0,-1.601994753E0,-1.658824325E0,-9.659525871E0
4.437039696E0,-1.606780410E0,-1.644467354E0,-9.657133102E0
4.446752509E0,-1.609173179E0,-1.639681697E0,-9.637990952E0
4.456466207E0,-1.609173179E0,-1.613360643E0,-9.642776489E0
4.466180634E0,-1.609173179E0,-1.615753531E0,-9.633204460E0
4.475894228E0,-1.616351724E0,-1.606182218E0,-9.618847847E0
4.485607092E0,-1.597209096E0,-1.613360643E0,-9.640383720E0
4.495320790E0,-1.597209096E0,-1.632503271E0,-9.637990952E0
4.505035217E0,-1.592423439E0,-1.632503271E0,-9.623633385E0
4.514748811E0,-1.580459356E0,-1.634896040E0,-9.630811691E0
4.524461675E0,-1.597209096E0,-1.632503271E0,-9.628418922E0
4.534175373E0,-1.594816327E0,-1.632503271E0,-9.618847847E0
4.543889800E0,-1.587637782E0,-1.632503271E0,-9.630811691E0
4.553603394E0,-1.582852125E0,-1.627717614E0,-9.645169258E0
4.563316259E0,-1.570888042E0,-1.644467354E0,-9.657133102E0
4.573029957E0,-1.563709617E0,-1.651645780E0,-9.669096947E0
4.582744384E0,-1.563709617E0,-1.642074585E0,-9.669096947E0
4.592457978E0,-1.554138303E0,-1.642074585E0,-9.664311409E0
4.602170790E0,-1.575673699E0,-1.625324726E0,-9.647562027E0
4.611884488E0,-1.592423439E0,-1.615753531E0,-9.640383720E0
4.621598915E0,-1.611566067E0,-1.599003673E0,-9.614062309E0
4.631312509E0,-1.616351724E0,-1.587039590E0,-9.594920158E0
4.641025373E0,-1.625923038E0,-1.591825247E0,-9.611669540E0
4.650739071E0,-1.623530149E0,-1.606182218E0,-9.635597229E0
4.660453498E0,-1.635494232E0,-1.632503271E0,-9.657133102E0
4.670167092E0,-1.625923038E0,-1.644467354E0,-9.659525871E0
4.679879957E0,-1.637887120E0,-1.651645780E0,-9.669096947E0
4.689593655E0,-1.623530149E0,-1.646860242E0,-9.654740334E0
4.699308082E0,-1.616351724E0,-1.644467354E0,-9.640383720E0
4.709021675E0,-1.609173179E0,-1.622931957E0,-9.628418922E0
4.718734540E0,-1.606780410E0,-1.606182218E0,-9.609276772E0
4.728448134E0,-1.587637782E0,-1.582253933E0,-9.618847847E0
4.738162613E0,-1.597209096E0,-1.582253933E0,-9.626026154E0
4.747876207E0,-1.580459356E0,-1.587039590E0,-9.642776489E0
4.757589071E0,-1.578066587E0,-1.610967875E0,-9.649954796E0
4.767302769E0,-1.578066587E0,-1.625324726E0,-9.649954796E0
4.777017196E0,-1.582852125E0,-1.634896040E0,-9.637990952E0
4.786730790E0,-1.570888042E0,-1.642074585E0,-9.645169258E0
4.796443655E0,-1.570888042E0,-1.656431437E0,-9.657133102E0
4.806157353E0,-1.573280931E0,-1.658824325E0,-9.657133102E0
4.815871780E0,-1.578066587E0,-1.639681697E0,-9.647562027E0
4.825585373E0,-1.587637782E0,-1.639681697E0,-9.661918640E0
4.835298186E0,-1.587637782E0,-1.618146300E0,-9.654740334E0
4.845011936E0,-1.587637782E0,-1.610967875E0,-9.652347565E0
4.854726363E0,-1.592423439E0,-1.610967875E0,-9.628418922E0
4.864439905E0,-1.575673699E0,-1.625324726E0,-9.637990952E0
4.874152769E0,-1.573280931E0,-1.646860242E0,-9.628418922E0
4.883866467E0,-1.580459356E0,-1.639681697E0,-9.642776489E0
4.893580894E0,-1.582852125E0,-1.649253011E0,-9.642776489E0
4.903294488E0,-1.573280931E0,-1.649253011E0,-9.649954796E0
4.913007353E0,-1.597209096E0,-1.649253011E0,-9.640383720E0
4.922721050E0,-1.606780410E0,-1.620539188E0,-9.647562027E0
4.932435478E0,-1.616351724E0,-1.615753531E0,-9.635597229E0
4.942149071E0,-1.623530149E0,-1.606182218E0,-9.621240616E0
4.951861936E0,-1.601994753E0,-1.582253933E0,-9.626026154E0
4.961575530E0,-1.597209096E0,-1.606182218E0,-9.618847847E0
4.971290061E0,-1.590030670E0,-1.615753531E0,-9.637990952E0
4.981003603E0,-1.578066587E0,-1.615753531E0,-9.642776489E0
4.990716467E0,-1.594816327E0,-1.618146300E0,-9.661918640E0
5.000430165E0,-1.611566067E0,-1.618146300E0,-9.649954796E0
5.010144592E0,-1.611566067E0,-1.606182218E0,-9.657133102E0
5.019858186E0,-1.594816327E0,-1.599003673E0,-9.640383720E0
5.029571050E0,-1.613958836E0,-1.610967875E0,-9.635597229E0
5.039284748E0,-1.585245013E0,-1.610967875E0,-9.635597229E0
5.048999175E0,-1.609173179E0,-1.620539188E0,-9.654740334E0
5.058712769E0,-1.601994753E0,-1.622931957E0,-9.649954796E0
5.068425634E0,-1.592423439E0,-1.622931957E0,-9.654740334E0
5.078139228E0,-1.592423439E0,-1.627717614E0,-9.642776489E0
5.087853707E0,-1.580459356E0,-1.639681697E0,-9.649954796E0
5.097567300E0,-1.573280931E0,-1.634896040E0,-9.645169258E0
5.107280165E0,-1.561316729E0,-1.634896040E0,-9.633204460E0
5.116993863E0,-1.549352646E0,-1.632503271E0,-9.635597229E0
5.126708290E0,-1.554138303E0,-1.637288928E0,-9.652347565E0
5.136421884E0,-1.568495274E0,-1.622931957E0,-9.645169258E0
5.146134748E0,-1.582852125E0,-1.618146300E0,-9.652347565E0
5.155848446E0,-1.582852125E0,-1.644467354E0,-9.640383720E0
5.165562873E0,-1.585245013E0,-1.632503271E0,-9.652347565E0
5.175276467E0,-1.590030670E0,-1.642074585E0,-9.652347565E0
5.184989280E0,-1.590030670E0,-1.625324726E0,-9.633204460E0
5.194702978E0,-1.599601984E0,-1.620539188E0,-9.652347565E0
5.204417405E0,-1.611566067E0,-1.618146300E0,-9.635597229E0
5.214130998E0,-1.611566067E0,-1.596610904E0,-9.633204460E0
5.223843863E0,-1.604387641E0,-1.603789330E0,-9.657133102E0
5.233557561E0,-1.616351724E0,-1.627717614E0,-9.654740334E0
5.243271988E0,-1.601994753E0,-1.637288928E0,-9.661918640E0
5.252985582E0,-1.601994753E0,-1.637288928E0,-9.652347565E0
5.262698446E0,-1.599601984E0,-1.639681697E0,-9.657133102E0
5.272412040E0,-1.611566067E0,-1.630110383E0,-9.649954796E0
5.282126571E0,-1.613958836E0,-1.622931957E0,-9.633204460E0
5.291840113E0,-1.599601984E0,-1.601396561E0,-9.637990952E0
5.301552978E0,-1.599601984E0,-1.613360643E0,-9.621240616E0
5.311266675E0,-1.582852125E0,-1.620539188E0,-9.623633385E0
5.320981103E0,-1.594816327E0,-1.625324726E0,-9.637990952E0
5.330694696E0,-1.582852125E0,-1.634896040E0,-9.669096947E0
5.340407561E0,-1.582852125E0,-1.644467354E0,-9.661918640E0
5.350121259E0,-1.575673699E0,-1.632503271E0,-9.659525871E0
5.359835686E0,-1.568495274E0,-1.632503271E0,-9.628418922E0
5.369549280E0,-1.575673699E0,-1.615753531E0,-9.618847847E0
5.379262092E0,-1.578066587E0,-1.613360643E0,-9.587740898E0
5.388975790E0,-1.592423439E0,-1.591825247E0,-9.587740898E0
5.398690217E0,-1.592423439E0,-1.601396561E0,-9.621240616E0
5.408403811E0,-1.590030670E0,-1.606182218E0,-9.700203896E0
5.418116675E0,-1.558923960E0,-1.627717614E0,-9.731310844E0
5.427830373E0,-1.549352646E0,-1.632503271E0,-9.697811127E0
5.437544800E0,-1.575673699E0,-1.642074585E0,-9.683454514E0
5.447258394E0,-1.578066587E0,-1.649253011E0,-9.690632820E0
5.456971259E0,-1.587637782E0,-1.644467354E0,-9.673882484E0
5.466684957E0,-1.592423439E0,-1.642074585E0,-9.645169258E0
5.476399384E0,-1.582852125E0,-1.651645780E0,-9.635597229E0
5.486112978E0,-1.592423439E0,-1.642074585E0,-9.628418922E0
5.495825790E0,-1.597209096E0,-1.634896040E0,-9.618847847E0
5.505539488E0,-1.621137381E0,-1.627717614E0,-9.640383720E0
5.515253915E0,-1.618744493E0,-1.622931957E0,-9.640383720E0
5.524967509E0,-1.625923038E0,-1.627717614E0,-9.645169258E0
5.534680373E0,-1.616351724E0,-1.632503271E0,-9.649954796E0
5.544394071E0,-1.599601984E0,-1.622931957E0,-9.640383720E0
5.554108498E0,-1.604387641E0,-1.632503271E0,-9.642776489E0
5.563822092E0,-1.601994753E0,-1.627717614E0,-9.654740334E0
5.573534957E0,-1.587637782E0,-1.620539188E0,-9.649954796E0
5.583248655E0,-1.587637782E0,-1.632503271E0,-9.669096947E0
5.592963082E0,-1.594816327E0,-1.627717614E0,-9.671489716E0
5.602676675E0,-1.580459356E0,-1.622931957E0,-9.669096947E0
5.612389540E0,-1.592423439E0,-1.620539188E0,-9.664311409E0
5.622103238E0,-1.575673699E0,-1.625324726E0,-9.647562027E0
5.631817665E0,-1.573280931E0,-1.606182218E0,-9.640383720E0
5.641531259E0,-1.566102386E0,-1.608574986E0,-9.647562027E0
5.651244071E0,-1.585245013E0,-1.601396561E0,-9.630811691E0
5.660957769E0,-1.568495274E0,-1.591825247E0,-9.640383720E0
5.670672196E0,-1.568495274E0,-1.608574986E0,-9.649954796E0
5.680385790E0,-1.551745534E0,-1.625324726E0,-9.652347565E0
5.690098655E0,-1.556531072E0,-1.632503271E0,-9.671489716E0
5.699812353E0,-1.539781332E0,-1.642074585E0,-9.673882484E0
5.709526780E0,-1.549352646E0,-1.649253011E0,-9.683454514E0
5.719240373E0,-1.534995675E0,-1.673181176E0,-9.661918640E0
5.728953238E0,-1.537388563E0,-1.658824325E0,-9.654740334E0
5.738666936E0,-1.546959877E0,-1.637288928E0,-9.649954796E0
5.748381363E0,-1.546959877E0,-1.642074585E0,-9.647562027E0
5.758094957E0,-1.537388563E0,-1.644467354E0,-9.642776489E0
5.767807821E0,-1.546959877E0,-1.644467354E0,-9.652347565E0
5.777521519E0,-1.561316729E0,-1.646860242E0,-9.652347565E0
5.787235946E0,-1.561316729E0,-1.651645780E0,-9.649954796E0
5.796949540E0,-1.563709617E0,-1.644467354E0,-9.642776489E0
5.806662353E0,-1.580459356E0,-1.642074585E0,-9.647562027E0
5.816376050E0,-1.594816327E0,-1.634896040E0,-9.652347565E0
5.826090478E0,-1.606780410E0,-1.634896040E0,-9.645169258E0
5.835804071E0,-1.618744493E0,-1.615753531E0,-9.642776489E0
5.845516936E0,-1.623530149E0,-1.613360643E0,-9.630811691E0
5.855230634E0,-1.623530149E0,-1.610967875E0,-9.630811691E0
5.864945061E0,-1.635494232E0,-1.620539188E0,-9.637990952E0
5.874658655E0,-1.649851203E0,-1.627717614E0,-9.628418922E0
5.884371519E0,-1.649851203E0,-1.627717614E0,-9.626026154E0
5.894085217E0,-1.652244091E0,-1.622931957E0,-9.621240616E0
5.903799644E0,-1.647458434E0,-1.620539188E0,-9.637990952E0
5.913513238E0,-1.647458434E0,-1.618146300E0,-9.640383720E0
5.923226103E0,-1.633101463E0,-1.608574986E0,-9.633204460E0
5.932939800E0,-1.621137381E0,-1.603789330E0,-9.630811691E0
5.942654228E0,-1.613958836E0,-1.591825247E0,-9.640383720E0
5.952367821E0,-1.616351724E0,-1.601396561E0,-9.635597229E0
5.962080686E0,-1.606780410E0,-1.632503271E0,-9.652347565E0
5.971794384E0,-1.587637782E0,-1.666002750E0,-9.652347565E0
5.981508811E0,-1.568495274E0,-1.682752490E0,-9.676275253E0
5.991222405E0,-1.561316729E0,-1.701895118E0,-9.678668022E0
6.000935217E0,-1.566102386E0,-1.687538147E0,-9.690632820E0
6.010648915E0,-1.578066587E0,-1.654038668E0,-9.681061745E0
6.020363394E0,-1.592423439E0,-1.618146300E0,-9.666704178E0
6.030076988E0,-1.594816327E0,-1.589432478E0,-9.642776489E0
6.039789800E0,-1.590030670E0,-1.563111424E0,-9.604491234E0
6.049503498E0,-1.568495274E0,-1.563111424E0,-9.602098465E0
6.059217925E0,-1.537388563E0,-1.587039590E0,-9.609276772E0
6.068931623E0,-1.527817249E0,-1.606182218E0,-9.633204460E0
6.078644384E0,-1.527817249E0,-1.644467354E0,-9.657133102E0
6.088358082E0,-1.546959877E0,-1.663609982E0,-9.666704178E0
6.098072509E0,-1.568495274E0,-1.670788407E0,-9.654740334E0
6.107786103E0,-1.582852125E0,-1.661217093E0,-9.659525871E0
6.117498967E0,-1.599601984E0,-1.642074585E0,-9.664311409E0
6.127212665E0,-1.604387641E0,-1.644467354E0,-9.676275253E0
6.136927092E0,-1.609173179E0,-1.642074585E0,-9.652347565E0
6.146640686E0,-1.611566067E0,-1.630110383E0,-9.647562027E0
6.156353550E0,-1.599601984E0,-1.627717614E0,-9.647562027E0
6.166067248E0,-1.599601984E0,-1.632503271E0,-9.637990952E0
6.175781675E0,-1.590030670E0,-1.630110383E0,-9.621240616E0
6.185495269E0,-1.563709617E0,-1.634896040E0,-9.611669540E0
6.195208134E0,-1.556531072E0,-1.615753531E0,-9.582955360E0
6.204921832E0,-1.558923960E0,-1.613360643E0,-9.606884003E0
6.214636259E0,-1.556531072E0,-1.606182218E0,-9.635597229E0
6.224349853E0,-1.556531072E0,-1.622931957E0,-9.664311409E0
6.234062717E0,-1.582852125E0,-1.634896040E0,-9.676275253E0
6.243776415E0,-1.590030670E0,-1.632503271E0,-9.688240051E0
6.253490842E0,-1.616351724E0,-1.639681697E0,-9.681061745E0
6.263204436E0,-1.616351724E0,-1.630110383E0,-9.666704178E0
6.272917300E0,-1.618744493E0,-1.630110383E0,-9.657133102E0
6.282630894E0,-1.625923038E0,-1.608574986E0,-9.642776489E0
6.292345425E0,-1.623530149E0,-1.599003673E0,-9.621240616E0
6.302059019E0,-1.611566067E0,-1.596610904E0,-9.606884003E0
6.311771832E0,-1.590030670E0,-1.577468276E0,-9.635597229E0
6.321485530E0,-1.585245013E0,-1.591825247E0,-9.676275253E0
6.331200009E0,-1.580459356E0,-1.594218135E0,-9.697811127E0
6.340913603E0,-1.570888042E0,-1.613360643E0,-9.714560509E0
6.350626415E0,-1.582852125E0,-1.630110383E0,-9.690632820E0
6.360340113E0,-1.575673699E0,-1.658824325E0,-9.661918640E0
6.370054592E0,-1.556531072E0,-1.668395638E0,-9.654740334E0
6.379768134E0,-1.546959877E0,-1.677966833E0,-9.637990952E0
6.389480998E0,-1.546959877E0,-1.680359721E0,-9.654740334E0
6.399194696E0,-1.563709617E0,-1.663609982E0,-9.652347565E0
6.408909175E0,-1.587637782E0,-1.654038668E0,-9.649954796E0
6.418622769E0,-1.594816327E0,-1.642074585E0,-9.645169258E0
6.428335582E0,-1.590030670E0,-1.618146300E0,-9.649954796E0
6.438049280E0,-1.597209096E0,-1.620539188E0,-9.664311409E0
6.447763707E0,-1.580459356E0,-1.618146300E0,-9.661918640E0
6.457477405E0,-1.573280931E0,-1.615753531E0,-9.661918640E0
6.467190165E0,-1.561316729E0,-1.622931957E0,-9.661918640E0
6.476903863E0,-1.561316729E0,-1.644467354E0,-9.664311409E0
6.486618342E0,-1.570888042E0,-1.646860242E0,-9.681061745E0
6.496331936E0,-1.575673699E0,-1.654038668E0,-9.678668022E0
6.506044748E0,-1.601994753E0,-1.639681697E0,-9.678668022E0
6.515758498E0,-1.635494232E0,-1.632503271E0,-9.671489716E0
6.525472925E0,-1.635494232E0,-1.630110383E0,-9.661918640E0
6.535186519E0,-1.611566067E0,-1.632503271E0,-9.657133102E0
6.544899332E0,-1.611566067E0,-1.618146300E0,-9.628418922E0
6.554613082E0,-1.599601984E0,-1.613360643E0,-9.635597229E0
6.564327509E0,-1.585245013E0,-1.610967875E0,-9.630811691E0
6.574041103E0,-1.582852125E0,-1.618146300E0,-9.640383720E0
6.583753967E0,-1.582852125E0,-1.627717614E0,-9.647562027E0
6.593467665E0,-1.580459356E0,-1.632503271E0,-9.659525871E0
6.603182092E0,-1.556531072E0,-1.637288928E0,-9.678668022E0
6.612895686E0,-1.561316729E0,-1.627717614E0,-9.704989433E0
6.622608550E0,-1.568495274E0,-1.632503271E0,-9.707382202E0
6.632322248E0,-1.594816327E0,-1.610967875E0,-9.716953278E0
6.642036675E0,-1.623530149E0,-1.606182218E0,-9.700203896E0
6.651750269E0,-1.630708575E0,-1.591825247E0,-9.688240051E0
6.661463134E0,-1.637887120E0,-1.606182218E0,-9.652347565E0
6.671176832E0,-1.613958836E0,-1.606182218E0,-9.642776489E0
6.680891259E0,-1.594816327E0,-1.630110383E0,-9.640383720E0
6.690604853E0,-1.587637782E0,-1.642074585E0,-9.659525871E0
6.700317717E0,-1.594816327E0,-1.651645780E0,-9.661918640E0
6.710031415E0,-1.604387641E0,-1.651645780E0,-9.669096947E0
6.719745894E0,-1.606780410E0,-1.639681697E0,-9.666704178E0
6.729459488E0,-1.601994753E0,-1.632503271E0,-9.671489716E0
6.739172353E0,-1.585245013E0,-1.632503271E0,-9.681061745E0
6.748886050E0,-1.580459356E0,-1.627717614E0,-9.671489716E0
6.758600478E0,-1.585245013E0,-1.613360643E0,-9.666704178E0
6.768314071E0,-1.597209096E0,-1.613360643E0,-9.652347565E0
6.778026936E0,-1.604387641E0,-1.606182218E0,-9.661918640E0
6.787740634E0,-1.599601984E0,-1.613360643E0,-9.664311409E0
6.797455061E0,-1.590030670E0,-1.632503271E0,-9.685847282E0
6.807168655E0,-1.570888042E0,-1.644467354E0,-9.669096947E0
6.816881519E0,-1.554138303E0,-1.656431437E0,-9.664311409E0
6.826595217E0,-1.523031592E0,-1.649253011E0,-9.666704178E0
6.836309696E0,-1.523031592E0,-1.651645780E0,-9.676275253E0
6.846023290E0,-1.534995675E0,-1.642074585E0,-9.681061745E0
6.855736155E0,-1.534995675E0,-1.620539188E0,-9.693025589E0
6.865449853E0,-1.546959877E0,-1.603789330E0,-9.695418358E0
6.875164280E0,-1.544566989E0,-1.591825247E0,-9.678668022E0
6.884877873E0,-1.546959877E0,-1.608574986E0,-9.671489716E0
6.894590738E0,-1.561316729E0,-1.613360643E0,-9.659525871E0
6.904304488E0,-1.570888042E0,-1.618146300E0,-9.657133102E0
6.914018915E0,-1.587637782E0,-1.625324726E0,-9.659525871E0
6.923732509E0,-1.597209096E0,-1.610967875E0,-9.666704178E0
6.933445373E0,-1.628315806E0,-1.615753531E0,-9.659525871E0
6.943159071E0,-1.637887120E0,-1.613360643E0,-9.659525871E0
6.952873550E0,-1.640279889E0,-1.589432478E0,-9.666704178E0
6.962587144E0,-1.623530149E0,-1.594218135E0,-9.676275253E0
6.972300009E0,-1.609173179E0,-1.603789330E0,-9.676275253E0
6.982013707E0,-1.597209096E0,-1.618146300E0,-9.693025589E0
6.991728134E0,-1.594816327E0,-1.622931957E0,-9.697811127E0
7.001441728E0,-1.580459356E0,-1.632503271E0,-9.683454514E0
7.011154644E0,-1.563709617E0,-1.649253011E0,-9.666704178E0
7.020868342E0,-1.568495274E0,-1.644467354E0,-9.647562027E0
7.030582769E0,-1.549352646E0,-1.646860242E0,-9.669096947E0
7.040296363E0,-1.566102386E0,-1.656431437E0,-9.664311409E0
7.050009228E0,-1.563709617E0,-1.627717614E0,-9.666704178E0
7.059722978E0,-1.566102386E0,-1.630110383E0,-9.681061745E0
7.069437405E0,-1.578066587E0,-1.639681697E0,-9.693025589E0
7.079150998E0,-1.575673699E0,-1.622931957E0,-9.683454514E0
7.088863863E0,-1.575673699E0,-1.613360643E0,-9.695418358E0
7.098577561E0,-1.592423439E0,-1.625324726E0,-9.671489716E0
7.108292040E0,-1.606780410E0,-1.618146300E0,-9.676275253E0
7.118005634E0,-1.585245013E0,-1.618146300E0,-9.659525871E0
7.127718498E0,-1.587637782E0,-1.618146300E0,-9.652347565E0
7.137432196E0,-1.566102386E0,-1.627717614E0,-9.657133102E0
7.147146675E0,-1.575673699E0,-1.620539188E0,-9.664311409E0
7.156860269E0,-1.573280931E0,-1.613360643E0,-9.688240051E0
7.166573134E0,-1.578066587E0,-1.599003673E0,-9.683454514E0
7.176286832E0,-1.582852125E0,-1.603789330E0,-9.702596664E0
7.186001311E0,-1.585245013E0,-1.613360643E0,-9.704989433E0
7.195714905E0,-1.566102386E0,-1.630110383E0,-9.712167740E0
7.205427769E0,-1.554138303E0,-1.637288928E0,-9.702596664E0
7.215141467E0,-1.544566989E0,-1.632503271E0,-9.716953278E0
7.224855946E0,-1.546959877E0,-1.625324726E0,-9.724132538E0
7.234569540E0,-1.573280931E0,-1.610967875E0,-9.704989433E0
7.244282405E0,-1.599601984E0,-1.587039590E0,-9.690632820E0
7.253996155E0,-1.609173179E0,-1.560718536E0,-9.642776489E0
7.263710582E0,-1.601994753E0,-1.570289850E0,-9.621240616E0
7.273424175E0,-1.590030670E0,-1.587039590E0,-9.633204460E0
7.283137040E0,-1.582852125E0,-1.622931957E0,-9.645169258E0
7.292850790E0,-1.592423439E0,-1.627717614E0,-9.678668022E0
7.302565217E0,-1.592423439E0,-1.646860242E0,-9.678668022E0
7.312278915E0,-1.611566067E0,-1.642074585E0,-9.657133102E0
7.321991728E0,-1.625923038E0,-1.639681697E0,-9.657133102E0
7.331705425E0,-1.637887120E0,-1.622931957E0,-9.654740334E0
7.341419905E0,-1.640279889E0,-1.615753531E0,-9.652347565E0
7.351133498E0,-1.613958836E0,-1.625324726E0,-9.671489716E0
7.360846363E0,-1.601994753E0,-1.634896040E0,-9.683454514E0
7.370560061E0,-1.604387641E0,-1.642074585E0,-9.688240051E0
7.380274540E0,-1.592423439E0,-1.639681697E0,-9.681061745E0
7.389988134E0,-1.594816327E0,-1.630110383E0,-9.685847282E0
7.399700998E0,-1.580459356E0,-1.620539188E0,-9.671489716E0
7.409414748E0,-1.558923960E0,-1.622931957E0,-9.671489716E0
7.419129175E0,-1.556531072E0,-1.630110383E0,-9.654740334E0
7.428842873E0,-1.549352646E0,-1.627717614E0,-9.659525871E0
7.438555686E0,-1.537388563E0,-1.627717614E0,-9.683454514E0
7.448269384E0,-1.534995675E0,-1.627717614E0,-9.702596664E0
7.457983863E0,-1.554138303E0,-1.632503271E0,-9.712167740E0
7.467697457E0,-1.556531072E0,-1.625324726E0,-9.700203896E0
7.477410373E0,-1.566102386E0,-1.630110383E0,-9.669096947E0
7.487124071E0,-1.570888042E0,-1.618146300E0,-9.669096947E0
7.496838498E0,-1.566102386E0,-1.606182218E0,-9.676275253E0
7.506552196E0,-1.566102386E0,-1.618146300E0,-9.683454514E0
7.516265009E0,-1.554138303E0,-1.615753531E0,-9.683454514E0
7.525978759E0,-1.554138303E0,-1.610967875E0,-9.697811127E0
7.535693186E0,-1.546959877E0,-1.613360643E0,-9.688240051E0
7.545406884E0,-1.546959877E0,-1.620539188E0,-9.685847282E0
7.555119696E0,-1.546959877E0,-1.608574986E0,-9.704989433E0
7.564833394E0,-1.525424480E0,-1.615753531E0,-9.704989433E0
7.574547873E0,-1.537388563E0,-1.625324726E0,-9.693025589E0
7.584261467E0,-1.534995675E0,-1.625324726E0,-9.702596664E0
7.593974384E0,-1.532602906E0,-1.639681697E0,-9.697811127E0
7.603688082E0,-1.544566989E0,-1.639681697E0,-9.709774971E0
7.613402561E0,-1.570888042E0,-1.637288928E0,-9.697811127E0
7.623116155E0,-1.578066587E0,-1.622931957E0,-9.685847282E0
7.632829071E0,-1.592423439E0,-1.610967875E0,-9.645169258E0
7.642542769E0,-1.597209096E0,-1.591825247E0,-9.628418922E0
7.652257248E0,-1.618744493E0,-1.596610904E0,-9.616455078E0
7.661970842E0,-1.628315806E0,-1.606182218E0,-9.637990952E0
7.671683707E0,-1.649851203E0,-1.613360643E0,-9.669096947E0
7.681397457E0,-1.666600943E0,-1.625324726E0,-9.669096947E0
7.691111936E0,-1.657029629E0,-1.627717614E0,-9.685847282E0
7.700825530E0,-1.659422517E0,-1.618146300E0,-9.664311409E0
7.710538394E0,-1.621137381E0,-1.615753531E0,-9.640383720E0
7.720252144E0,-1.587637782E0,-1.603789330E0,-9.669096947E0
7.729966623E0,-1.568495274E0,-1.610967875E0,-9.664311409E0
7.739680217E0,-1.563709617E0,-1.608574986E0,-9.681061745E0
7.749393082E0,-1.573280931E0,-1.618146300E0,-9.678668022E0
7.759106832E0,-1.587637782E0,-1.596610904E0,-9.683454514E0
7.768821311E0,-1.604387641E0,-1.596610904E0,-9.673882484E0
7.778534905E0,-1.606780410E0,-1.603789330E0,-9.666704178E0
7.788247821E0,-1.606780410E0,-1.622931957E0,-9.659525871E0
7.797961519E0,-1.597209096E0,-1.627717614E0,-9.661918640E0
7.807675998E0,-1.594816327E0,-1.642074585E0,-9.673882484E0
7.817389592E0,-1.585245013E0,-1.632503271E0,-9.688240051E0
7.827102509E0,-1.587637782E0,-1.639681697E0,-9.693025589E0
7.836816207E0,-1.573280931E0,-1.613360643E0,-9.702596664E0
7.846530686E0,-1.578066587E0,-1.618146300E0,-9.678668022E0
7.856244280E0,-1.554138303E0,-1.589432478E0,-9.666704178E0
7.865957196E0,-1.556531072E0,-1.601396561E0,-9.664311409E0
7.875670894E0,-1.546959877E0,-1.596610904E0,-9.657133102E0
7.885385373E0,-1.539781332E0,-1.622931957E0,-9.654740334E0
7.895099071E0,-1.520638824E0,-1.632503271E0,-9.669096947E0
7.904811884E0,-1.532602906E0,-1.632503271E0,-9.666704178E0
7.914525634E0,-1.539781332E0,-1.637288928E0,-9.649954796E0
7.924240061E0,-1.546959877E0,-1.637288928E0,-9.659525871E0
7.933953759E0,-1.568495274E0,-1.632503271E0,-9.671489716E0
7.943666571E0,-1.578066587E0,-1.622931957E0,-9.678668022E0
7.953380321E0,-1.587637782E0,-1.630110383E0,-9.676275253E0
7.963094800E0,-1.580459356E0,-1.630110383E0,-9.669096947E0
7.972808394E0,-1.585245013E0,-1.625324726E0,-9.666704178E0
7.982521311E0,-1.592423439E0,-1.613360643E0,-9.666704178E0
7.992235009E0,-1.585245013E0,-1.608574986E0,-9.678668022E0
8.001949488E0,-1.585245013E0,-1.620539188E0,-9.678668022E0
8.011663186E0,-1.590030670E0,-1.615753531E0,-9.652347565E0
8.021375998E0,-1.590030670E0,-1.620539188E0,-9.647562027E0
8.031089748E0,-1.582852125E0,-1.615753531E0,-9.630811691E0
8.040804175E0,-1.568495274E0,-1.632503271E0,-9.652347565E0
8.050517873E0,-1.551745534E0,-1.630110383E0,-9.657133102E0
8.060230738E0,-1.556531072E0,-1.630110383E0,-9.659525871E0
8.069944436E0,-1.532602906E0,-1.627717614E0,-9.673882484E0
8.079658915E0,-1.534995675E0,-1.613360643E0,-9.657133102E0
8.089372613E0,-1.556531072E0,-1.594218135E0,-9.661918640E0
8.099085425E0,-1.575673699E0,-1.587039590E0,-9.664311409E0
8.108799175E0,-1.594816327E0,-1.572682738E0,-9.666704178E0
8.118513655E0,-1.621137381E0,-1.572682738E0,-9.657133102E0
8.128227248E0,-1.633101463E0,-1.582253933E0,-9.666704178E0
8.137940165E0,-1.623530149E0,-1.596610904E0,-9.676275253E0
8.147653863E0,-1.604387641E0,-1.610967875E0,-9.676275253E0
8.157368342E0,-1.604387641E0,-1.625324726E0,-9.671489716E0
8.167082040E0,-1.604387641E0,-1.622931957E0,-9.652347565E0
8.176794853E0,-1.597209096E0,-1.601396561E0,-9.640383720E0
8.186508603E0,-1.590030670E0,-1.591825247E0,-9.654740334E0
8.196223082E0,-1.585245013E0,-1.603789330E0,-9.645169258E0
8.205936675E0,-1.566102386E0,-1.613360643E0,-9.681061745E0
8.215649592E0,-1.544566989E0,-1.627717614E0,-9.669096947E0
8.225363290E0,-1.544566989E0,-1.639681697E0,-9.664311409E0
8.235077769E0,-1.534995675E0,-1.651645780E0,-9.657133102E0
8.244791467E0,-1.544566989E0,-1.658824325E0,-9.657133102E0
8.254504280E0,-1.554138303E0,-1.651645780E0,-9.657133102E0
8.264218030E0,-1.563709617E0,-1.632503271E0,-9.647562027E0
8.273932509E0,-1.568495274E0,-1.620539188E0,-9.657133102E0
8.283646103E0,-1.575673699E0,-1.610967875E0,-9.652347565E0
8.293359019E0,-1.585245013E0,-1.596610904E0,-9.652347565E0
8.303072769E0,-1.568495274E0,-1.599003673E0,-9.654740334E0
8.312787196E0,-1.570888042E0,-1.608574986E0,-9.666704178E0
8.322500894E0,-1.568495274E0,-1.620539188E0,-9.666704178E0
8.332213707E0,-1.575673699E0,-1.625324726E0,-9.666704178E0
8.341927457E0,-1.575673699E0,-1.630110383E0,-9.659525871E0
8.351641936E0,-1.578066587E0,-1.625324726E0,-9.647562027E0
8.361355634E0,-1.587637782E0,-1.632503271E0,-9.642776489E0
8.371068446E0,-1.604387641E0,-1.615753531E0,-9.652347565E0
8.380782196E0,-1.590030670E0,-1.603789330E0,-9.664311409E0
8.390496675E0,-1.594816327E0,-1.603789330E0,-9.652347565E0
8.400210269E0,-1.597209096E0,-1.606182218E0,-9.642776489E0
8.409923186E0,-1.578066587E0,-1.613360643E0,-9.637990952E0
8.419636936E0,-1.558923960E0,-1.620539188E0,-9.637990952E0
8.429351363E0,-1.549352646E0,-1.639681697E0,-9.654740334E0
8.439065061E0,-1.532602906E0,-1.651645780E0,-9.688240051E0
8.448777925E0,-1.546959877E0,-1.639681697E0,-9.688240051E0
8.458491623E0,-1.561316729E0,-1.625324726E0,-9.688240051E0
8.468206103E0,-1.573280931E0,-1.589432478E0,-9.652347565E0
8.477919800E0,-1.582852125E0,-1.579861164E0,-9.628418922E0
8.487632613E0,-1.573280931E0,-1.560718536E0,-9.621240616E0
8.497346363E0,-1.566102386E0,-1.582253933E0,-9.626026154E0
8.507060842E0,-1.568495274E0,-1.587039590E0,-9.645169258E0
8.516774436E0,-1.573280931E0,-1.599003673E0,-9.666704178E0
8.526487353E0,-1.606780410E0,-1.608574986E0,-9.666704178E0
8.536201103E0,-1.613958836E0,-1.603789330E0,-9.666704178E0
8.545915582E0,-1.647458434E0,-1.615753531E0,-9.681061745E0
8.555629175E0,-1.649851203E0,-1.591825247E0,-9.685847282E0
8.565342092E0,-1.647458434E0,-1.610967875E0,-9.671489716E0
8.575055790E0,-1.630708575E0,-1.622931957E0,-9.654740334E0
8.584770269E0,-1.601994753E0,-1.632503271E0,-9.649954796E0
8.594483967E0,-1.582852125E0,-1.637288928E0,-9.628418922E0
8.604196832E0,-1.568495274E0,-1.637288928E0,-9.623633385E0
8.613910530E0,-1.551745534E0,-1.637288928E0,-9.626026154E0
8.623625009E0,-1.561316729E0,-1.630110383E0,-9.630811691E0
8.633338707E0,-1.561316729E0,-1.618146300E0,-9.642776489E0
8.643051519E0,-1.546959877E0,-1.630110383E0,-9.659525871E0
8.652765269E0,-1.554138303E0,-1.630110383E0,-9.678668022E0
8.662479748E0,-1.578066587E0,-1.639681697E0,-9.681061745E0
8.672193446E0,-1.590030670E0,-1.632503271E0,-9.673882484E0
8.681906259E0,-1.580459356E0,-1.622931957E0,-9.657133102E0
8.691620009E0,-1.582852125E0,-1.632503271E0,-9.626026154E0
8.701334488E0,-1.587637782E0,-1.618146300E0,-9.599705696E0
8.711048082E0,-1.585245013E0,-1.630110383E0,-9.594920158E0
8.720760998E0,-1.578066587E0,-1.608574986E0,-9.580562592E0
8.730474748E0,-1.546959877E0,-1.606182218E0,-9.599705696E0
8.740189228E0,-1.549352646E0,-1.613360643E0,-9.635597229E0
8.749902821E0,-1.554138303E0,-1.603789330E0,-9.676275253E0
8.759615738E0,-1.580459356E0,-1.584646821E0,-9.728918076E0
8.769329436E0,-1.609173179E0,-1.589432478E0,-9.740881920E0
8.779043915E0,-1.664208174E0,-1.589432478E0,-9.743274689E0
8.788757613E0,-1.678565025E0,-1.584646821E0,-9.740881920E0
8.798470478E0,-1.678565025E0,-1.589432478E0,-9.697811127E0
8.808184175E0,-1.664208174E0,-1.584646821E0,-9.666704178E0
8.817898655E0,-1.640279889E0,-1.591825247E0,-9.623633385E0
8.827612353E0,-1.618744493E0,-1.603789330E0,-9.599705696E0
8.837325217E0,-1.604387641E0,-1.618146300E0,-9.602098465E0
8.847038915E0,-1.606780410E0,-1.620539188E0,-9.614062309E0
8.856753394E0,-1.592423439E0,-1.620539188E0,-9.635597229E0
8.866467092E0,-1.597209096E0,-1.613360643E0,-9.657133102E0
8.876179905E0,-1.601994753E0,-1.599003673E0,-9.645169258E0
8.885893655E0,-1.592423439E0,-1.596610904E0,-9.647562027E0
8.895608134E0,-1.599601984E0,-1.618146300E0,-9.649954796E0
8.905321832E0,-1.599601984E0,-1.606182218E0,-9.657133102E0
8.915034644E0,-1.601994753E0,-1.610967875E0,-9.666704178E0
8.924748394E0,-1.597209096E0,-1.608574986E0,-9.666704178E0
8.934462873E0,-1.606780410E0,-1.630110383E0,-9.673882484E0
8.944176571E0,-1.618744493E0,-1.632503271E0,-9.669096947E0
8.953889384E0,-1.637887120E0,-1.625324726E0,-9.652347565E0
8.963603134E0,-1.633101463E0,-1.615753531E0,-9.630811691E0
8.973317613E0,-1.640279889E0,-1.601396561E0,-9.633204460E0
8.983031311E0,-1.637887120E0,-1.587039590E0,-9.647562027E0
8.992744123E0,-1.628315806E0,-1.587039590E0,-9.628418922E0
9.002457873E0,-1.613958836E0,-1.584646821E0,-9.652347565E0
9.012172353E0,-1.611566067E0,-1.589432478E0,-9.661918640E0
9.021885946E0,-1.601994753E0,-1.606182218E0,-9.669096947E0
9.031598863E0,-1.597209096E0,-1.622931957E0,-9.664311409E0
9.041312613E0,-1.599601984E0,-1.625324726E0,-9.661918640E0
9.051027092E0,-1.599601984E0,-1.627717614E0,-9.657133102E0
9.060740686E0,-1.597209096E0,-1.618146300E0,-9.664311409E0
9.070453603E0,-1.621137381E0,-1.606182218E0,-9.664311409E0
9.080167353E0,-1.616351724E0,-1.599003673E0,-9.654740334E0
9.089881832E0,-1.616351724E0,-1.594218135E0,-9.637990952E0
9.099595425E0,-1.611566067E0,-1.577468276E0,-9.614062309E0
9.109308342E0,-1.621137381E0,-1.584646821E0,-9.604491234E0
9.119022092E0,-1.604387641E0,-1.599003673E0,-9.621240616E0
9.128736571E0,-1.611566067E0,-1.603789330E0,-9.640383720E0
9.138450165E0,-1.592423439E0,-1.603789330E0,-9.659525871E0
9.148163082E0,-1.585245013E0,-1.618146300E0,-9.673882484E0
9.157876832E0,-1.580459356E0,-1.630110383E0,-9.669096947E0
9.167591311E0,-1.599601984E0,-1.627717614E0,-9.664311409E0
9.177304905E0,-1.582852125E0,-1.627717614E0,-9.647562027E0
9.187017821E0,-1.599601984E0,-1.630110383E0,-9.640383720E0
9.196731571E0,-1.590030670E0,-1.630110383E0,-9.633204460E0
9.206445998E0,-1.582852125E0,-1.622931957E0,-9.614062309E0
9.216159696E0,-1.575673699E0,-1.610967875E0,-9.626026154E0
9.225872561E0,-1.568495274E0,-1.608574986E0,-9.637990952E0
9.235586311E0,-1.561316729E0,-1.615753531E0,-9.649954796E0
9.245300790E0,-1.566102386E0,-1.618146300E0,-9.671489716E0
9.255014384E0,-1.546959877E0,-1.622931957E0,-9.666704178E0
9.264727300E0,-1.551745534E0,-1.610967875E0,-9.649954796E0
9.274441050E0,-1.534995675E0,-1.618146300E0,-9.649954796E0
9.284155478E0,-1.544566989E0,-1.625324726E0,-9.657133102E0
9.293869175E0,-1.582852125E0,-1.618146300E0,-9.657133102E0
9.303582040E0,-1.592423439E0,-1.610967875E0,-9.664311409E0
9.313295790E0,-1.609173179E0,-1.603789330E0,-9.659525871E0
9.323010217E0,-1.616351724E0,-1.587039590E0,-9.628418922E0
9.332723915E0,-1.637887120E0,-1.577468276E0,-9.606884003E0
9.342436780E0,-1.659422517E0,-1.587039590E0,-9.609276772E0
9.352150530E0,-1.657029629E0,-1.575075507E0,-9.621240616E0
9.361864957E0,-1.649851203E0,-1.579861164E0,-9.652347565E0
9.371578655E0,-1.652244091E0,-1.599003673E0,-9.645169258E0
9.381291519E0,-1.640279889E0,-1.603789330E0,-9.654740334E0
9.391005217E0,-1.621137381E0,-1.603789330E0,-9.666704178E0
9.400719696E0,-1.618744493E0,-1.613360643E0,-9.666704178E0
9.410433394E0,-1.597209096E0,-1.601396561E0,-9.652347565E0
9.420146259E0,-1.597209096E0,-1.608574986E0,-9.661918640E0
9.429859957E0,-1.590030670E0,-1.627717614E0,-9.645169258E0
9.439574436E0,-1.582852125E0,-1.625324726E0,-9.628418922E0
9.449288134E0,-1.561316729E0,-1.637288928E0,-9.635597229E0
9.459000998E0,-1.554138303E0,-1.646860242E0,-9.635597229E0
9.468714696E0,-1.544566989E0,-1.634896040E0,-9.666704178E0
9.478429175E0,-1.551745534E0,-1.637288928E0,-9.669096947E0
9.488142873E0,-1.551745534E0,-1.627717614E0,-9.654740334E0
9.497855738E0,-1.549352646E0,-1.630110383E0,-9.649954796E0
9.507569436E0,-1.558923960E0,-1.613360643E0,-9.642776489E0
9.517283915E0,-1.558923960E0,-1.613360643E0,-9.652347565E0
9.526997613E0,-1.561316729E0,-1.613360643E0,-9.659525871E0
9.536710478E0,-1.578066587E0,-1.613360643E0,-9.652347565E0
9.546424175E0,-1.563709617E0,-1.599003673E0,-9.654740334E0
9.556138655E0,-1.578066587E0,-1.608574986E0,-9.647562027E0
9.565852353E0,-1.580459356E0,-1.622931957E0,-9.649954796E0
9.575565217E0,-1.585245013E0,-1.620539188E0,-9.647562027E0
9.585278915E0,-1.566102386E0,-1.618146300E0,-9.647562027E0
9.594993394E0,-1.582852125E0,-1.613360643E0,-9.633204460E0
9.604707092E0,-1.587637782E0,-1.596610904E0,-9.647562027E0
9.614419957E0,-1.594816327E0,-1.582253933E0,-9.640383720E0
9.624133655E0,-1.597209096E0,-1.589432478E0,-9.640383720E0
9.633848134E0,-1.604387641E0,-1.608574986E0,-9.630811691E0
9.643561832E0,-1.592423439E0,-1.599003673E0,-9.611669540E0
9.653274696E0,-1.580459356E0,-1.615753531E0,-9.621240616E0
9.662988394E0,-1.580459356E0,-1.630110383E0,-9.652347565E0
9.672702873E0,-1.580459356E0,-1.639681697E0,-9.669096947E0
9.682416571E0,-1.599601984E0,-1.654038668E0,-9.669096947E0
9.692129436E0,-1.609173179E0,-1.651645780E0,-9.683454514E0
9.701843134E0,-1.616351724E0,-1.632503271E0,-9.642776489E0
9.711557613E0,-1.625923038E0,-1.610967875E0,-9.635597229E0
9.721271311E0,-1.609173179E0,-1.596610904E0,-9.642776489E0
9.730984123E0,-1.594816327E0,-1.589432478E0,-9.647562027E0
9.740697873E0,-1.606780410E0,-1.589432478E0,-9.666704178E0
9.750412353E0,-1.616351724E0,-1.591825247E0,-9.671489716E0
9.760126050E0,-1.609173179E0,-1.608574986E0,-9.661918640E0
9.769838863E0,-1.623530149E0,-1.608574986E0,-9.645169258E0
9.779552613E0,-1.623530149E0,-1.608574986E0,-9.637990952E0
9.789267092E0,-1.618744493E0,-1.608574986E0,-9.647562027E0
9.798980790E0,-1.592423439E0,-1.610967875E0,-9.642776489E0
9.808693603E0,-1.597209096E0,-1.625324726E0,-9.633204460E0
9.818407353E0,-1.575673699E0,-1.620539188E0,-9.661918640E0
9.828121832E0,-1.580459356E0,-1.625324726E0,-9.649954796E0
9.837835530E0,-1.570888042E0,-1.606182218E0,-9.659525871E0
9.847548394E0,-1.573280931E0,-1.613360643E0,-9.661918640E0
9.857262092E0,-1.582852125E0,-1.622931957E0,-9.661918640E0
9.866976571E0,-1.578066587E0,-1.632503271E0,-9.647562027E0
9.876690269E0,-1.575673699E0,-1.632503271E0,-9.635597229E0
9.886403082E0,-1.566102386E0,-1.630110383E0,-9.635597229E0
9.896116832E0,-1.573280931E0,-1.634896040E0,-9.657133102E0
9.905831311E0,-1.575673699E0,-1.639681697E0,-9.642776489E0
9.915545009E0,-1.592423439E0,-1.625324726E0,-9.649954796E0
9.925257821E0,-1.597209096E0,-1.606182218E0,-9.647562027E0
9.934971571E0,-1.592423439E0,-1.608574986E0,-9.661918640E0
9.944686050E0,-1.609173179E0,-1.606182218E0,-9.673882484E0
9.954399748E0,-1.594816327E0,-1.606182218E0,-9.657133102E0
9.964112561E0,-1.575673699E0,-1.608574986E0,-9.661918640E0
9.973826311E0,-1.558923960E0,-1.615753531E0,-9.647562027E0
9.983540790E0,-1.549352646E0,-1.625324726E0,-9.649954796E0
9.993254488E0,-1.551745534E0,-1.625324726E0,-9.669096947E0
1.000296730E1,-1.546959877E0,-1.620539188E0,-9.661918640E0
1.001268105E1,-1.554138303E0,-1.610967875E0,-9.659525871E0
1.002239553E1,-1.585245013E0,-1.591825247E0,-9.659525871E0
1.003210923E1,-1.585245013E0,-1.594218135E0,-9.649954796E0
1.004182204E1,-1.592423439E0,-1.610967875E0,-9.661918640E0
1.005153579E1,-1.587637782E0,-1.613360643E0,-9.676275253E0
1.006125027E1,-1.585245013E0,-1.625324726E0,-9.673882484E0
1.007096397E1,-1.587637782E0,-1.627717614E0,-9.671489716E0
1.008067678E1,-1.585245013E0,-1.649253011E0,-9.659525871E0
1.009039053E1,-1.585245013E0,-1.637288928E0,-9.647562027E0
1.010010501E1,-1.590030670E0,-1.637288928E0,-9.635597229E0
1.010981871E1,-1.585245013E0,-1.606182218E0,-9.630811691E0
1.011953152E1,-1.582852125E0,-1.594218135E0,-9.616455078E0
1.012924527E1,-1.575673699E0,-1.596610904E0,-9.633204460E0
1.013895975E1,-1.594816327E0,-1.603789330E0,-9.640383720E0
1.014867345E1,-1.594816327E0,-1.606182218E0,-9.652347565E0
1.015838626E1,-1.594816327E0,-1.625324726E0,-9.659525871E0
1.016810001E1,-1.613958836E0,-1.620539188E0,-9.669096947E0
1.017781449E1,-1.633101463E0,-1.613360643E0,-9.661918640E0
1.018752819E1,-1.635494232E0,-1.620539188E0,-9.654740334E0
1.019724100E1,-1.630708575E0,-1.622931957E0,-9.647562027E0
1.020695475E1,-1.616351724E0,-1.618146300E0,-9.664311409E0
1.021666923E1,-1.601994753E0,-1.610967875E0,-9.657133102E0
1.022638293E1,-1.592423439E0,-1.610967875E0,-9.652347565E0
1.023609579E1,-1.590030670E0,-1.599003673E0,-9.652347565E0
1.024580949E1,-1.590030670E0,-1.599003673E0,-9.637990952E0
1.025552397E1,-1.594816327E0,-1.599003673E0,-9.640383720E0
1.026523766E1,-1.594816327E0,-1.613360643E0,-9.642776489E0
1.027495053E1,-1.578066587E0,-1.613360643E0,-9.645169258E0
1.028466423E1,-1.561316729E0,-1.632503271E0,-9.664311409E0
1.029437871E1,-1.566102386E0,-1.644467354E0,-9.678668022E0
1.030409240E1,-1.556531072E0,-1.646860242E0,-9.681061745E0
1.031380527E1,-1.580459356E0,-1.639681697E0,-9.681061745E0
1.032351897E1,-1.590030670E0,-1.639681697E0,-9.685847282E0
1.033323345E1,-1.613958836E0,-1.606182218E0,-9.657133102E0
1.034294714E1,-1.604387641E0,-1.589432478E0,-9.630811691E0
1.035266001E1,-1.592423439E0,-1.589432478E0,-9.623633385E0
1.036237371E1,-1.568495274E0,-1.582253933E0,-9.623633385E0
1.037208819E1,-1.554138303E0,-1.589432478E0,-9.635597229E0
1.038180188E1,-1.551745534E0,-1.618146300E0,-9.649954796E0
1.039151475E1,-1.556531072E0,-1.620539188E0,-9.637990952E0
1.040122850E1,-1.570888042E0,-1.630110383E0,-9.637990952E0
1.041094292E1,-1.558923960E0,-1.630110383E0,-9.657133102E0
1.042065662E1,-1.568495274E0,-1.613360643E0,-9.654740334E0
1.043036949E1,-1.599601984E0,-1.618146300E0,-9.669096947E0
1.044008324E1,-1.609173179E0,-1.615753531E0,-9.671489716E0
1.044979772E1,-1.613958836E0,-1.637288928E0,-9.652347565E0
1.045951131E1,-1.606780410E0,-1.622931957E0,-9.635597229E0
1.046922423E1,-1.594816327E0,-1.625324726E0,-9.661918640E0
1.047893798E1,-1.592423439E0,-1.620539188E0,-9.642776489E0
1.048865246E1,-1.587637782E0,-1.620539188E0,-9.626026154E0
1.049836605E1,-1.592423439E0,-1.630110383E0,-9.626026154E0
1.050807897E1,-1.580459356E0,-1.642074585E0,-9.614062309E0
1.051779272E1,-1.575673699E0,-1.649253011E0,-9.630811691E0
1.052750720E1,-1.568495274E0,-1.637288928E0,-9.654740334E0
1.053722089E1,-1.570888042E0,-1.637288928E0,-9.661918640E0
1.054693371E1,-1.578066587E0,-1.610967875E0,-9.654740334E0
1.055664746E1,-1.606780410E0,-1.601396561E0,-9.635597229E0
1.056636194E1,-1.630708575E0,-1.579861164E0,-9.621240616E0
1.057607563E1,-1.625923038E0,-1.563111424E0,-9.621240616E0
1.058578845E1,-1.611566067E0,-1.567897081E0,-9.626026154E0
1.059550220E1,-1.611566067E0,-1.579861164E0,-9.640383720E0
1.060521668E1,-1.594816327E0,-1.579861164E0,-9.661918640E0
1.061493037E1,-1.597209096E0,-1.584646821E0,-9.697811127E0
1.062464319E1,-1.606780410E0,-1.591825247E0,-9.685847282E0
1.063435694E1,-1.597209096E0,-1.587039590E0,-9.685847282E0
1.064407142E1,-1.580459356E0,-1.596610904E0,-9.669096947E0
1.065378511E1,-1.580459356E0,-1.601396561E0,-9.649954796E0
1.066349798E1,-1.558923960E0,-1.613360643E0,-9.645169258E0
1.067321168E1,-1.546959877E0,-1.622931957E0,-9.637990952E0
1.068292616E1,-1.539781332E0,-1.644467354E0,-9.654740334E0
1.069263985E1,-1.525424480E0,-1.649253011E0,-9.649954796E0
1.070235272E1,-1.530210137E0,-1.656431437E0,-9.664311409E0
1.071206647E1,-1.537388563E0,-1.642074585E0,-9.654740334E0
1.072178089E1,-1.532602906E0,-1.627717614E0,-9.630811691E0
1.073149459E1,-1.549352646E0,-1.620539188E0,-9.633204460E0
1.074120746E1,-1.551745534E0,-1.610967875E0,-9.635597229E0
1.075092121E1,-1.542174220E0,-1.613360643E0,-9.654740334E0
1.076063569E1,-1.542174220E0,-1.634896040E0,-9.654740334E0
1.077034928E1,-1.544566989E0,-1.646860242E0,-9.685847282E0
1.078006220E1,-1.561316729E0,-1.651645780E0,-9.702596664E0
1.078977595E1,-1.592423439E0,-1.642074585E0,-9.704989433E0
1.079949042E1,-1.618744493E0,-1.642074585E0,-9.693025589E0
1.080920412E1,-1.625923038E0,-1.618146300E0,-9.693025589E0
1.081891694E1,-1.625923038E0,-1.606182218E0,-9.661918640E0
1.082863069E1,-1.640279889E0,-1.606182218E0,-9.645169258E0
1.083834517E1,-1.664208174E0,-1.606182218E0,-9.633204460E0
1.084805886E1,-1.642672777E0,-1.599003673E0,-9.597312927E0
1.085777168E1,-1.642672777E0,-1.587039590E0,-9.597312927E0
1.086748542E1,-1.623530149E0,-1.594218135E0,-9.590133667E0
1.087719991E1,-1.611566067E0,-1.603789330E0,-9.606884003E0
1.088691360E1,-1.616351724E0,-1.613360643E0,-9.642776489E0
1.089662642E1,-1.606780410E0,-1.622931957E0,-9.659525871E0
1.090634017E1,-1.592423439E0,-1.639681697E0,-9.681061745E0
1.091605464E1,-1.573280931E0,-1.649253011E0,-9.685847282E0
1.092576834E1,-1.573280931E0,-1.646860242E0,-9.707382202E0
1.093548121E1,-1.575673699E0,-1.630110383E0,-9.707382202E0
1.094519491E1,-1.568495274E0,-1.622931957E0,-9.673882484E0
1.095490938E1,-1.578066587E0,-1.606182218E0,-9.642776489E0
1.096462308E1,-1.587637782E0,-1.587039590E0,-9.604491234E0
1.097433595E1,-1.597209096E0,-1.577468276E0,-9.604491234E0
1.098404970E1,-1.609173179E0,-1.596610904E0,-9.599705696E0
1.099376412E1,-1.637887120E0,-1.591825247E0,-9.604491234E0
1.100347782E1,-1.635494232E0,-1.587039590E0,-9.604491234E0
1.101319069E1,-1.647458434E0,-1.591825247E0,-9.609276772E0
1.102290444E1,-1.640279889E0,-1.599003673E0,-9.628418922E0
1.103261892E1,-1.640279889E0,-1.613360643E0,-9.649954796E0
1.104233251E1,-1.633101463E0,-1.615753531E0,-9.676275253E0
1.105204543E1,-1.621137381E0,-1.644467354E0,-9.671489716E0
1.106175918E1,-1.582852125E0,-1.642074585E0,-9.688240051E0
1.107147366E1,-1.556531072E0,-1.642074585E0,-9.676275253E0
1.108118735E1,-1.523031592E0,-1.630110383E0,-9.664311409E0
1.109090016E1,-1.513460279E0,-1.625324726E0,-9.659525871E0
1.110061392E1,-1.499103427E0,-1.630110383E0,-9.649954796E0
1.111032839E1,-1.484746456E0,-1.630110383E0,-9.637990952E0
1.112004209E1,-1.489532113E0,-1.632503271E0,-9.640383720E0
1.112975490E1,-1.501496196E0,-1.637288928E0,-9.652347565E0
1.113946866E1,-1.518245935E0,-1.644467354E0,-9.657133102E0
1.114918313E1,-1.549352646E0,-1.632503271E0,-9.630811691E0
1.115889683E1,-1.558923960E0,-1.618146300E0,-9.635597229E0
1.116860970E1,-1.578066587E0,-1.594218135E0,-9.642776489E0
1.117832339E1,-1.578066587E0,-1.599003673E0,-9.654740334E0
1.118803787E1,-1.585245013E0,-1.589432478E0,-9.666704178E0
1.119775157E1,-1.592423439E0,-1.591825247E0,-9.659525871E0
1.120746444E1,-1.606780410E0,-1.606182218E0,-9.657133102E0
1.121717813E1,-1.611566067E0,-1.613360643E0,-9.654740334E0
1.122689261E1,-1.613958836E0,-1.620539188E0,-9.647562027E0
1.123660631E1,-1.590030670E0,-1.615753531E0,-9.637990952E0
1.124631918E1,-1.570888042E0,-1.620539188E0,-9.657133102E0
1.125603293E1,-1.563709617E0,-1.610967875E0,-9.652347565E0
1.126574740E1,-1.578066587E0,-1.620539188E0,-9.657133102E0
1.127546100E1,-1.561316729E0,-1.630110383E0,-9.652347565E0
1.128517392E1,-1.570888042E0,-1.637288928E0,-9.633204460E0
1.129488767E1,-1.556531072E0,-1.627717614E0,-9.642776489E0
1.130460214E1,-1.563709617E0,-1.610967875E0,-9.630811691E0
1.131431574E1,-1.573280931E0,-1.627717614E0,-9.652347565E0
1.132402866E1,-1.568495274E0,-1.634896040E0,-9.645169258E0
1.133374240E1,-1.587637782E0,-1.620539188E0,-9.645169258E0
1.134345688E1,-1.585245013E0,-1.644467354E0,-9.642776489E0
1.135317058E1,-1.578066587E0,-1.649253011E0,-9.652347565E0
1.136288339E1,-1.575673699E0,-1.644467354E0,-9.659525871E0
1.137259714E1,-1.578066587E0,-1.637288928E0,-9.633204460E0
1.138231162E1,-1.575673699E0,-1.620539188E0,-9.621240616E0
1.139202532E1,-1.592423439E0,-1.606182218E0,-9.616455078E0
1.140173813E1,-1.601994753E0,-1.620539188E0,-9.614062309E0
1.141145188E1,-1.604387641E0,-1.615753531E0,-9.635597229E0
1.142116636E1,-1.611566067E0,-1.620539188E0,-9.659525871E0
1.143088006E1,-1.621137381E0,-1.639681697E0,-9.664311409E0
1.144059292E1,-1.623530149E0,-1.630110383E0,-9.654740334E0
1.145030662E1,-1.645065546E0,-1.610967875E0,-9.623633385E0
1.146002110E1,-1.623530149E0,-1.579861164E0,-9.616455078E0
1.146973480E1,-1.613958836E0,-1.551147223E0,-9.614062309E0
1.147944766E1,-1.599601984E0,-1.558325768E0,-9.602098465E0
1.148916136E1,-1.570888042E0,-1.577468276E0,-9.633204460E0
1.149887584E1,-1.554138303E0,-1.584646821E0,-9.649954796E0
1.150858954E1,-1.523031592E0,-1.613360643E0,-9.697811127E0
1.151830240E1,-1.520638824E0,-1.634896040E0,-9.726525307E0
1.152801616E1,-1.494317770E0,-1.651645780E0,-9.728918076E0
1.153773058E1,-1.520638824E0,-1.651645780E0,-9.697811127E0
1.154744428E1,-1.544566989E0,-1.622931957E0,-9.657133102E0
1.155715714E1,-1.580459356E0,-1.618146300E0,-9.614062309E0
1.156687089E1,-1.575673699E0,-1.606182218E0,-9.585348129E0
1.157658537E1,-1.585245013E0,-1.599003673E0,-9.587740898E0
1.158629897E1,-1.606780410E0,-1.601396561E0,-9.614062309E0
1.159601188E1,-1.625923038E0,-1.608574986E0,-9.606884003E0
1.160572563E1,-1.649851203E0,-1.634896040E0,-9.621240616E0
1.161544011E1,-1.657029629E0,-1.620539188E0,-9.606884003E0
1.162515381E1,-1.654636860E0,-1.630110383E0,-9.630811691E0
1.163486662E1,-1.633101463E0,-1.634896040E0,-9.623633385E0
1.164458037E1,-1.618744493E0,-1.618146300E0,-9.654740334E0
1.165429485E1,-1.580459356E0,-1.630110383E0,-9.659525871E0
1.166400855E1,-1.575673699E0,-1.613360643E0,-9.669096947E0
1.167372136E1,-1.554138303E0,-1.632503271E0,-9.664311409E0
1.168343511E1,-1.539781332E0,-1.642074585E0,-9.671489716E0
1.169314959E1,-1.544566989E0,-1.639681697E0,-9.671489716E0
1.170286329E1,-1.539781332E0,-1.654038668E0,-9.642776489E0
1.171257610E1,-1.534995675E0,-1.644467354E0,-9.645169258E0
1.172228985E1,-1.542174220E0,-1.630110383E0,-9.611669540E0
1.173200433E1,-1.551745534E0,-1.622931957E0,-9.606884003E0
1.174171803E1,-1.566102386E0,-1.625324726E0,-9.616455078E0
1.175143084E1,-1.597209096E0,-1.615753531E0,-9.630811691E0
1.176114459E1,-1.609173179E0,-1.601396561E0,-9.637990952E0
1.177085907E1,-1.625923038E0,-1.599003673E0,-9.642776489E0
1.178057277E1,-1.623530149E0,-1.587039590E0,-9.649954796E0
1.179028558E1,-1.625923038E0,-1.596610904E0,-9.659525871E0
1.179999933E1,-1.621137381E0,-1.599003673E0,-9.659525871E0
1.180971381E1,-1.609173179E0,-1.596610904E0,-9.661918640E0
1.181942751E1,-1.597209096E0,-1.610967875E0,-9.647562027E0
1.182914032E1,-1.599601984E0,-1.606182218E0,-9.645169258E0
1.183885407E1,-1.580459356E0,-1.603789330E0,-9.642776489E0
1.184856855E1,-1.561316729E0,-1.613360643E0,-9.652347565E0
1.185828225E1,-1.561316729E0,-1.620539188E0,-9.649954796E0
1.186799506E1,-1.544566989E0,-1.644467354E0,-9.661918640E0
1.187770881E1,-1.534995675E0,-1.644467354E0,-9.659525871E0
1.188742329E1,-1.525424480E0,-1.663609982E0,-9.661918640E0
1.189713699E1,-1.506281853E0,-1.670788407E0,-9.645169258E0
1.190684980E1,-1.508674622E0,-1.666002750E0,-9.645169258E0
1.191656355E1,-1.508674622E0,-1.646860242E0,-9.635597229E0
1.192627803E1,-1.513460279E0,-1.646860242E0,-9.642776489E0
1.193599173E1,-1.539781332E0,-1.630110383E0,-9.654740334E0
1.194570454E1,-1.578066587E0,-1.608574986E0,-9.640383720E0
1.195541829E1,-1.616351724E0,-1.615753531E0,-9.635597229E0
1.196513277E1,-1.625923038E0,-1.615753531E0,-9.606884003E0
1.197484647E1,-1.625923038E0,-1.608574986E0,-9.602098465E0
1.198455928E1,-1.609173179E0,-1.610967875E0,-9.633204460E0
1.199427303E1,-1.609173179E0,-1.622931957E0,-9.633204460E0
1.200398751E1,-1.594816327E0,-1.632503271E0,-9.640383720E0
1.201370121E1,-1.582852125E0,-1.622931957E0,-9.642776489E0
1.202341402E1,-1.580459356E0,-1.613360643E0,-9.654740334E0
1.203312777E1,-1.573280931E0,-1.596610904E0,-9.652347565E0
1.204284225E1,-1.580459356E0,-1.596610904E0,-9.669096947E0
1.205255595E1,-1.592423439E0,-1.594218135E0,-9.678668022E0
1.206226876E1,-1.590030670E0,-1.589432478E0,-9.664311409E0
1.207198251E1,-1.592423439E0,-1.589432478E0,-9.681061745E0
1.208169699E1,-1.590030670E0,-1.620539188E0,-9.642776489E0
1.209141058E1,-1.611566067E0,-1.637288928E0,-9.623633385E0
1.210112350E1,-1.623530149E0,-1.637288928E0,-9.606884003E0
1.211083725E1,-1.621137381E0,-1.654038668E0,-9.623633385E0
1.212055173E1,-1.623530149E0,-1.646860242E0,-9.630811691E0
1.213026532E1,-1.640279889E0,-1.622931957E0,-9.642776489E0
1.213997824E1,-1.633101463E0,-1.610967875E0,-9.649954796E0
1.214969199E1,-1.616351724E0,-1.606182218E0,-9.657133102E0
1.215940647E1,-1.609173179E0,-1.601396561E0,-9.633204460E0
1.216912006E1,-1.597209096E0,-1.603789330E0,-9.630811691E0
1.217883298E1,-1.580459356E0,-1.615753531E0,-9.618847847E0
1.218854673E1,-1.556531072E0,-1.625324726E0,-9.630811691E0
1.219826116E1,-1.573280931E0,-1.634896040E0,-9.628418922E0
1.220797485E1,-1.566102386E0,-1.632503271E0,-9.640383720E0
1.221768772E1,-1.568495274E0,-1.637288928E0,-9.647562027E0
1.222740142E1,-1.582852125E0,-1.627717614E0,-9.654740334E0
1.223711589E1,-1.599601984E0,-1.622931957E0,-9.654740334E0
1.224682959E1,-1.590030670E0,-1.620539188E0,-9.652347565E0
1.225654246E1,-1.590030670E0,-1.625324726E0,-9.628418922E0
1.226625616E1,-1.578066587E0,-1.625324726E0,-9.635597229E0
1.227597063E1,-1.573280931E0,-1.618146300E0,-9.640383720E0
1.228568433E1,-1.566102386E0,-1.622931957E0,-9.645169258E0
1.229539714E1,-1.570888042E0,-1.627717614E0,-9.637990952E0
1.230511089E1,-1.561316729E0,-1.625324726E0,-9.635597229E0
1.231482537E1,-1.558923960E0,-1.622931957E0,-9.626026154E0
1.232453907E1,-1.556531072E0,-1.625324726E0,-9.633204460E0
1.233425188E1,-1.568495274E0,-1.625324726E0,-9.642776489E0
1.234396563E1,-1.582852125E0,-1.637288928E0,-9.642776489E0
1.235368011E1,-1.561316729E0,-1.642074585E0,-9.633204460E0
1.236339371E1,-1.582852125E0,-1.642074585E0,-9.642776489E0
1.237310662E1,-1.580459356E0,-1.644467354E0,-9.645169258E0
1.238282037E1,-1.563709617E0,-1.642074585E0,-9.657133102E0
1.239253485E1,-1.570888042E0,-1.644467354E0,-9.666704178E0
1.240224845E1,-1.575673699E0,-1.632503271E0,-9.647562027E0
1.241196136E1,-1.597209096E0,-1.610967875E0,-9.633204460E0
1.242167506E1,-1.599601984E0,-1.603789330E0,-9.633204460E0
1.243138954E1,-1.597209096E0,-1.606182218E0,-9.633204460E0
1.244110324E1,-1.604387641E0,-1.608574986E0,-9.649954796E0
1.245081610E1,-1.597209096E0,-1.606182218E0,-9.649954796E0
1.246052980E1,-1.597209096E0,-1.618146300E0,-9.642776489E0
1.247024428E1,-1.597209096E0,-1.615753531E0,-9.626026154E0
1.247995798E1,-1.582852125E0,-1.608574986E0,-9.640383720E0
1.248967079E1,-1.590030670E0,-1.615753531E0,-9.642776489E0
1.249938454E1,-1.590030670E0,-1.632503271E0,-9.645169258E0
1.250909902E1,-1.580459356E0,-1.646860242E0,-9.645169258E0
1.251881272E1,-1.587637782E0,-1.642074585E0,-9.647562027E0
1.252852553E1,-1.570888042E0,-1.651645780E0,-9.652347565E0
1.253823928E1,-1.570888042E0,-1.651645780E0,-9.647562027E0
1.254795376E1,-1.575673699E0,-1.644467354E0,-9.635597229E0
1.255766735E1,-1.563709617E0,-1.639681697E0,-9.633204460E0
1.256738027E1,-1.590030670E0,-1.615753531E0,-9.621240616E0
1.257709402E1,-1.599601984E0,-1.601396561E0,-9.630811691E0
1.258680845E1,-1.628315806E0,-1.608574986E0,-9.630811691E0
1.259652214E1,-1.628315806E0,-1.610967875E0,-9.628418922E0
1.260623501E1,-1.609173179E0,-1.622931957E0,-9.633204460E0
1.261594871E1,-1.592423439E0,-1.630110383E0,-9.637990952E0
1.262566319E1,-1.582852125E0,-1.644467354E0,-9.659525871E0
1.263537688E1,-1.587637782E0,-1.639681697E0,-9.652347565E0
1.264508970E1,-1.606780410E0,-1.615753531E0,-9.640383720E0
1.265480345E1,-1.599601984E0,-1.603789330E0,-9.626026154E0
1.266451792E1,-1.601994753E0,-1.596610904E0,-9.623633385E0
1.267423152E1,-1.597209096E0,-1.603789330E0,-9.633204460E0
1.268394444E1,-1.587637782E0,-1.613360643E0,-9.640383720E0
1.269365819E1,-1.561316729E0,-1.644467354E0,-9.649954796E0
1.270337261E1,-1.556531072E0,-1.670788407E0,-9.664311409E0
1.271308631E1,-1.558923960E0,-1.682752490E0,-9.681061745E0
1.272279918E1,-1.575673699E0,-1.649253011E0,-9.676275253E0
1.273251287E1,-1.585245013E0,-1.627717614E0,-9.654740334E0
1.274222735E1,-1.594816327E0,-1.620539188E0,-9.640383720E0
1.275194105E1,-1.594816327E0,-1.608574986E0,-9.616455078E0
1.276165386E1,-1.580459356E0,-1.589432478E0,-9.626026154E0
1.277136761E1,-1.597209096E0,-1.587039590E0,-9.647562027E0
1.278108209E1,-1.592423439E0,-1.594218135E0,-9.654740334E0
1.279079569E1,-1.609173179E0,-1.615753531E0,-9.642776489E0
1.280050860E1,-1.621137381E0,-1.637288928E0,-9.611669540E0
1.281022235E1,-1.623530149E0,-1.627717614E0,-9.606884003E0
1.281993678E1,-1.623530149E0,-1.627717614E0,-9.614062309E0
1.282965048E1,-1.623530149E0,-1.639681697E0,-9.630811691E0
1.283936334E1,-1.618744493E0,-1.649253011E0,-9.642776489E0
1.284907704E1,-1.611566067E0,-1.663609982E0,-9.649954796E0
1.285879152E1,-1.635494232E0,-1.642074585E0,-9.652347565E0
1.286850522E1,-1.623530149E0,-1.620539188E0,-9.640383720E0
1.287821803E1,-1.637887120E0,-1.608574986E0,-9.637990952E0
1.288793178E1,-1.625923038E0,-1.618146300E0,-9.654740334E0
1.289764626E1,-1.606780410E0,-1.627717614E0,-9.630811691E0
1.290735985E1,-1.592423439E0,-1.610967875E0,-9.618847847E0
1.291707277E1,-1.592423439E0,-1.615753531E0,-9.618847847E0
1.292678652E1,-1.590030670E0,-1.627717614E0,-9.621240616E0
1.293650095E1,-1.570888042E0,-1.639681697E0,-9.623633385E0
1.294621464E1,-1.551745534E0,-1.644467354E0,-9.654740334E0
1.295592751E1,-1.556531072E0,-1.637288928E0,-9.633204460E0
1.296564121E1,-1.554138303E0,-1.627717614E0,-9.642776489E0
1.297535569E1,-1.563709617E0,-1.608574986E0,-9.661918640E0
1.298506938E1,-1.568495274E0,-1.601396561E0,-9.671489716E0
1.299478220E1,-1.561316729E0,-1.599003673E0,-9.661918640E0
1.300449595E1,-1.575673699E0,-1.603789330E0,-9.640383720E0
1.301421043E1,-1.582852125E0,-1.601396561E0,-9.654740334E0
1.302392402E1,-1.590030670E0,-1.608574986E0,-9.647562027E0
1.303363694E1,-1.587637782E0,-1.618146300E0,-9.654740334E0
1.304335063E1,-1.585245013E0,-1.622931957E0,-9.645169258E0
1.305306511E1,-1.582852125E0,-1.625324726E0,-9.637990952E0
1.306277881E1,-1.587637782E0,-1.632503271E0,-9.626026154E0
1.307249162E1,-1.582852125E0,-1.639681697E0,-9.649954796E0
1.308220537E1,-1.568495274E0,-1.632503271E0,-9.649954796E0
1.309191985E1,-1.570888042E0,-1.651645780E0,-9.659525871E0
1.310163345E1,-1.558923960E0,-1.658824325E0,-9.647562027E0
1.311134636E1,-1.561316729E0,-1.646860242E0,-9.647562027E0
1.312106011E1,-1.563709617E0,-1.649253011E0,-9.645169258E0
1.313077454E1,-1.575673699E0,-1.639681697E0,-9.637990952E0
1.314048824E1,-1.578066587E0,-1.634896040E0,-9.649954796E0
1.315020105E1,-1.594816327E0,-1.637288928E0,-9.645169258E0
1.315991480E1,-1.611566067E0,-1.625324726E0,-9.645169258E0
1.316962928E1,-1.613958836E0,-1.632503271E0,-9.637990952E0
1.317934287E1,-1.611566067E0,-1.649253011E0,-9.618847847E0
1.318905579E1,-1.613958836E0,-1.634896040E0,-9.611669540E0
1.319876954E1,-1.599601984E0,-1.656431437E0,-9.616455078E0
1.320848397E1,-1.587637782E0,-1.642074585E0,-9.604491234E0
1.321819767E1,-1.575673699E0,-1.637288928E0,-9.599705696E0
1.322791048E1,-1.578066587E0,-1.613360643E0,-9.614062309E0
1.323762423E1,-1.585245013E0,-1.591825247E0,-9.630811691E0
1.324733871E1,-1.599601984E0,-1.584646821E0,-9.659525871E0
1.325705230E1,-1.640279889E0,-1.589432478E0,-9.690632820E0
1.326676522E1,-1.668993831E0,-1.582253933E0,-9.683454514E0
1.327647897E1,-1.664208174E0,-1.610967875E0,-9.673882484E0
1.328619339E1,-1.657029629E0,-1.620539188E0,-9.659525871E0
1.329590709E1,-1.637887120E0,-1.644467354E0,-9.654740334E0
1.330561990E1,-1.628315806E0,-1.644467354E0,-9.635597229E0
1.331533366E1,-1.635494232E0,-1.630110383E0,-9.618847847E0
1.332504813E1,-1.623530149E0,-1.618146300E0,-9.597312927E0
1.333476173E1,-1.611566067E0,-1.594218135E0,-9.604491234E0
1.334447464E1,-1.587637782E0,-1.579861164E0,-9.611669540E0
1.335418839E1,-1.566102386E0,-1.579861164E0,-9.633204460E0
1.336390282E1,-1.554138303E0,-1.587039590E0,-9.661918640E0
1.337361652E1,-1.554138303E0,-1.599003673E0,-9.681061745E0
1.338332933E1,-1.558923960E0,-1.615753531E0,-9.678668022E0
1.339304308E1,-1.570888042E0,-1.644467354E0,-9.652347565E0
1.340275756E1,-1.580459356E0,-1.651645780E0,-9.626026154E0
1.341247116E1,-1.592423439E0,-1.656431437E0,-9.642776489E0
1.342218407E1,-1.599601984E0,-1.666002750E0,-9.640383720E0
1.343189777E1,-1.611566067E0,-1.654038668E0,-9.642776489E0
1.344161225E1,-1.618744493E0,-1.654038668E0,-9.640383720E0
1.345132595E1,-1.611566067E0,-1.639681697E0,-9.633204460E0
1.346103876E1,-1.621137381E0,-1.627717614E0,-9.649954796E0
1.347075251E1,-1.606780410E0,-1.613360643E0,-9.652347565E0
1.348046699E1,-1.604387641E0,-1.627717614E0,-9.635597229E0
1.349018058E1,-1.592423439E0,-1.632503271E0,-9.616455078E0
1.349989350E1,-1.580459356E0,-1.618146300E0,-9.614062309E0
1.350960720E1,-1.575673699E0,-1.630110383E0,-9.626026154E0
1.351932168E1,-1.590030670E0,-1.637288928E0,-9.654740334E0
1.352903537E1,-1.592423439E0,-1.632503271E0,-9.659525871E0
1.353874819E1,-1.618744493E0,-1.613360643E0,-9.657133102E0
1.354846194E1,-1.637887120E0,-1.608574986E0,-9.637990952E0
1.355817642E1,-1.637887120E0,-1.591825247E0,-9.647562027E0
1.356789001E1,-1.642672777E0,-1.596610904E0,-9.642776489E0
1.357760292E1,-1.628315806E0,-1.591825247E0,-9.659525871E0
1.358731662E1,-1.616351724E0,-1.582253933E0,-9.642776489E0
1.359703110E1,-1.606780410E0,-1.584646821E0,-9.649954796E0
1.360674480E1,-1.606780410E0,-1.589432478E0,-9.652347565E0
1.361645761E1,-1.590030670E0,-1.599003673E0,-9.645169258E0
1.362617136E1,-1.594816327E0,-1.603789330E0,-9.649954796E0
1.363588579E1,-1.604387641E0,-1.625324726E0,-9.664311409E0
1.364559949E1,-1.587637782E0,-1.632503271E0,-9.654740334E0
1.365531230E1,-1.558923960E0,-1.637288928E0,-9.652347565E0
1.366502605E1,-1.563709617E0,-1.632503271E0,-9.657133102E0
1.367474053E1,-1.561316729E0,-1.644467354E0,-9.657133102E0
1.368445423E1,-1.566102386E0,-1.627717614E0,-9.645169258E0
1.369416704E1,-1.568495274E0,-1.630110383E0,-9.647562027E0
1.370388079E1,-1.575673699E0,-1.632503271E0,-9.633204460E0
1.371359522E1,-1.578066587E0,-1.634896040E0,-9.637990952E0
1.372330892E1,-1.580459356E0,-1.642074585E0,-9.659525871E0
1.373302173E1,-1.590030670E0,-1.634896040E0,-9.654740334E0
1.374273548E1,-1.601994753E0,-1.637288928E0,-9.664311409E0
1.375244996E1,-1.594816327E0,-1.632503271E0,-9.649954796E0
1.376216355E1,-1.590030670E0,-1.632503271E0,-9.640383720E0
1.377187647E1,-1.601994753E0,-1.620539188E0,-9.642776489E0
1.378159022E1,-1.609173179E0,-1.603789330E0,-9.645169258E0
1.379130464E1,-1.609173179E0,-1.606182218E0,-9.633204460E0
1.380101834E1,-1.611566067E0,-1.606182218E0,-9.642776489E0
1.381073116E1,-1.623530149E0,-1.596610904E0,-9.645169258E0
1.382044490E1,-1.625923038E0,-1.594218135E0,-9.640383720E0
1.383015938E1,-1.621137381E0,-1.613360643E0,-9.652347565E0
1.383987298E1,-1.621137381E0,-1.620539188E0,-9.659525871E0
1.384958589E1,-1.613958836E0,-1.627717614E0,-9.652347565E0
1.385929959E1,-1.616351724E0,-1.627717614E0,-9.645169258E0
1.386901407E1,-1.601994753E0,-1.651645780E0,-9.649954796E0
1.387872777E1,-1.597209096E0,-1.649253011E0,-9.657133102E0
1.388844058E1,-1.592423439E0,-1.639681697E0,-9.661918640E0
1.389815433E1,-1.597209096E0,-1.620539188E0,-9.645169258E0
1.390786881E1,-1.597209096E0,-1.620539188E0,-9.628418922E0
1.391758241E1,-1.587637782E0,-1.603789330E0,-9.630811691E0
1.392729532E1,-1.597209096E0,-1.594218135E0,-9.649954796E0
1.393700902E1,-1.601994753E0,-1.610967875E0,-9.664311409E0
1.394672350E1,-1.611566067E0,-1.606182218E0,-9.666704178E0
1.395643720E1,-1.599601984E0,-1.615753531E0,-9.637990952E0
1.396615001E1,-1.618744493E0,-1.627717614E0,-9.626026154E0
1.397586376E1,-1.630708575E0,-1.625324726E0,-9.642776489E0
1.398557819E1,-1.618744493E0,-1.625324726E0,-9.633204460E0
1.399529188E1,-1.621137381E0,-1.615753531E0,-9.630811691E0
1.400500470E1,-1.609173179E0,-1.618146300E0,-9.618847847E0
1.401471845E1,-1.611566067E0,-1.615753531E0,-9.633204460E0
1.402443293E1,-1.618744493E0,-1.606182218E0,-9.635597229E0
1.403414662E1,-1.616351724E0,-1.606182218E0,-9.652347565E0
1.404385944E1,-1.618744493E0,-1.608574986E0,-9.654740334E0
1.405357319E1,-1.611566067E0,-1.603789330E0,-9.652347565E0
1.406328761E1,-1.601994753E0,-1.625324726E0,-9.642776489E0
1.407300131E1,-1.590030670E0,-1.630110383E0,-9.623633385E0
1.408271412E1,-1.592423439E0,-1.646860242E0,-9.635597229E0
1.409242787E1,-1.573280931E0,-1.654038668E0,-9.635597229E0
1.410214235E1,-1.594816327E0,-1.646860242E0,-9.649954796E0
1.411185595E1,-1.585245013E0,-1.634896040E0,-9.649954796E0
1.412156886E1,-1.587637782E0,-1.615753531E0,-9.633204460E0
1.413128261E1,-1.590030670E0,-1.606182218E0,-9.637990952E0
1.414099704E1,-1.594816327E0,-1.599003673E0,-9.628418922E0
1.415071074E1,-1.597209096E0,-1.599003673E0,-9.647562027E0
1.416042355E1,-1.582852125E0,-1.610967875E0,-9.654740334E0
1.417013730E1,-1.592423439E0,-1.613360643E0,-9.659525871E0
1.417985178E1,-1.594816327E0,-1.613360643E0,-9.649954796E0
1.418956537E1,-1.594816327E0,-1.610967875E0,-9.657133102E0
1.419927829E1,-1.592423439E0,-1.599003673E0,-9.647562027E0
1.420899199E1,-1.590030670E0,-1.599003673E0,-9.645169258E0
1.421870647E1,-1.594816327E0,-1.587039590E0,-9.635597229E0
1.422842017E1,-1.582852125E0,-1.603789330E0,-9.645169258E0
1.423813298E1,-1.582852125E0,-1.625324726E0,-9.649954796E0
1.424784673E1,-1.573280931E0,-1.620539188E0,-9.657133102E0
1.425756121E1,-1.570888042E0,-1.637288928E0,-9.661918640E0
1.426727480E1,-1.580459356E0,-1.651645780E0,-9.676275253E0
1.427698772E1,-1.573280931E0,-1.651645780E0,-9.673882484E0
1.428670142E1,-1.556531072E0,-1.646860242E0,-9.652347565E0
1.429641589E1,-1.551745534E0,-1.639681697E0,-9.649954796E0
1.430612949E1,-1.570888042E0,-1.639681697E0,-9.633204460E0
1.431584241E1,-1.590030670E0,-1.613360643E0,-9.645169258E0
1.432555616E1,-1.597209096E0,-1.601396561E0,-9.637990952E0
1.433527058E1,-1.640279889E0,-1.594218135E0,-9.616455078E0
1.434498428E1,-1.654636860E0,-1.594218135E0,-9.611669540E0
1.435469709E1,-1.652244091E0,-1.615753531E0,-9.614062309E0
1.436441084E1,-1.661815286E0,-1.637288928E0,-9.652347565E0
1.437412532E1,-1.657029629E0,-1.646860242E0,-9.654740334E0
1.438383892E1,-1.666600943E0,-1.649253011E0,-9.647562027E0
1.439355183E1,-1.659422517E0,-1.632503271E0,-9.637990952E0
1.440326553E1,-1.659422517E0,-1.606182218E0,-9.628418922E0
1.441298001E1,-1.654636860E0,-1.579861164E0,-9.633204460E0
1.442269371E1,-1.647458434E0,-1.587039590E0,-9.623633385E0
1.443240652E1,-1.606780410E0,-1.594218135E0,-9.630811691E0
1.444212027E1,-1.582852125E0,-1.627717614E0,-9.657133102E0
1.445183475E1,-1.570888042E0,-1.642074585E0,-9.673882484E0
1.446154834E1,-1.582852125E0,-1.639681697E0,-9.690632820E0
1.447126126E1,-1.594816327E0,-1.630110383E0,-9.671489716E0
1.448097496E1,-1.625923038E0,-1.627717614E0,-9.659525871E0
1.449068944E1,-1.635494232E0,-1.606182218E0,-9.611669540E0
1.450040303E1,-1.635494232E0,-1.589432478E0,-9.599705696E0
1.451011595E1,-1.621137381E0,-1.594218135E0,-9.618847847E0
1.451982970E1,-1.606780410E0,-1.610967875E0,-9.637990952E0
1.452954412E1,-1.594816327E0,-1.608574986E0,-9.649954796E0
1.453925782E1,-1.597209096E0,-1.615753531E0,-9.647562027E0
1.454897063E1,-1.604387641E0,-1.618146300E0,-9.635597229E0
1.455868438E1,-1.578066587E0,-1.634896040E0,-9.630811691E0
1.456839886E1,-1.566102386E0,-1.615753531E0,-9.642776489E0
1.457811246E1,-1.566102386E0,-1.634896040E0,-9.652347565E0
1.458782537E1,-1.566102386E0,-1.634896040E0,-9.647562027E0
1.459753907E1,-1.580459356E0,-1.634896040E0,-9.659525871E0
1.460725355E1,-1.597209096E0,-1.625324726E0,-9.659525871E0
1.461696725E1,-1.616351724E0,-1.620539188E0,-9.657133102E0
1.462668006E1,-1.618744493E0,-1.620539188E0,-9.654740334E0
1.463639381E1,-1.628315806E0,-1.625324726E0,-9.642776489E0
1.464610824E1,-1.633101463E0,-1.634896040E0,-9.630811691E0
1.465582194E1,-1.635494232E0,-1.639681697E0,-9.614062309E0
1.466553475E1,-1.623530149E0,-1.632503271E0,-9.628418922E0
1.467524850E1,-1.616351724E0,-1.642074585E0,-9.635597229E0
1.468496298E1,-1.609173179E0,-1.634896040E0,-9.633204460E0
1.469467657E1,-1.582852125E0,-1.620539188E0,-9.628418922E0
1.470438949E1,-1.575673699E0,-1.599003673E0,-9.635597229E0
1.471410319E1,-1.580459356E0,-1.601396561E0,-9.649954796E0
1.472381766E1,-1.580459356E0,-1.596610904E0,-9.666704178E0
1.473353136E1,-1.580459356E0,-1.603789330E0,-9.678668022E0
1.474324418E1,-1.601994753E0,-1.610967875E0,-9.671489716E0
1.475295792E1,-1.609173179E0,-1.591825247E0,-9.664311409E0
1.476267241E1,-1.621137381E0,-1.606182218E0,-9.669096947E0
1.477238600E1,-1.604387641E0,-1.613360643E0,-9.657133102E0
1.478209892E1,-1.628315806E0,-1.615753531E0,-9.642776489E0
1.479181261E1,-1.633101463E0,-1.606182218E0,-9.635597229E0
1.480152709E1,-1.642672777E0,-1.610967875E0,-9.630811691E0
1.481124079E1,-1.645065546E0,-1.603789330E0,-9.626026154E0
1.482095360E1,-1.645065546E0,-1.603789330E0,-9.640383720E0
1.483066735E1,-1.630708575E0,-1.606182218E0,-9.640383720E0
1.484038178E1,-1.594816327E0,-1.627717614E0,-9.661918640E0
1.485009548E1,-1.580459356E0,-1.632503271E0,-9.671489716E0
1.485980829E1,-1.580459356E0,-1.642074585E0,-9.654740334E0
1.486952204E1,-1.585245013E0,-1.651645780E0,-9.645169258E0
1.487923652E1,-1.592423439E0,-1.642074585E0,-9.626026154E0
1.488895011E1,-1.587637782E0,-1.615753531E0,-9.609276772E0
1.489866303E1,-1.587637782E0,-1.601396561E0,-9.621240616E0
1.490837673E1,-1.597209096E0,-1.601396561E0,-9.635597229E0
1.491809121E1,-1.597209096E0,-1.603789330E0,-9.652347565E0
1.492780490E1,-1.601994753E0,-1.615753531E0,-9.661918640E0
1.493751772E1,-1.611566067E0,-1.618146300E0,-9.676275253E0
1.494723147E1,-1.606780410E0,-1.622931957E0,-9.669096947E0
1.495694595E1,-1.587637782E0,-1.634896040E0,-9.654740334E0
1.496665954E1,-1.582852125E0,-1.620539188E0,-9.640383720E0
1.497637246E1,-1.575673699E0,-1.630110383E0,-9.645169258E0
1.498608616E1,-1.580459356E0,-1.615753531E0,-9.649954796E0
1.499580063E1,-1.587637782E0,-1.608574986E0,-9.647562027E0
1.500551433E1,-1.587637782E0,-1.599003673E0,-9.640383720E0
1.501522714E1,-1.597209096E0,-1.591825247E0,-9.640383720E0
1.502494089E1,-1.613958836E0,-1.599003673E0,-9.664311409E0
1.503465532E1,-1.613958836E0,-1.608574986E0,-9.661918640E0
1.504436902E1,-1.628315806E0,-1.618146300E0,-9.642776489E0
1.505408183E1,-1.621137381E0,-1.632503271E0,-9.635597229E0
1.506379558E1,-1.628315806E0,-1.632503271E0,-9.661918640E0
