"Time (s)","Gyroscope x (rad/s)","Gyroscope y (rad/s)","Gyroscope z (rad/s)"
6.108896700E-2,-5.192201585E-3,7.177455351E-3,-1.679830020E-3
7.080344600E-2,-5.192201585E-3,5.955760833E-3,7.635590737E-4
8.051704000E-2,-1.527118147E-3,3.512371797E-3,-4.581354442E-4
9.022985300E-2,-1.527118147E-3,1.068982761E-3,-1.679830020E-3
9.994355000E-2,-3.054236295E-4,2.290677279E-3,-4.581354442E-4
1.096579780E-1,-1.527118147E-3,7.177455351E-3,-1.679830020E-3
1.193715710E-1,-1.527118147E-3,8.399149403E-3,-1.679830020E-3
1.290844360E-1,-3.054236295E-4,9.620844387E-3,-1.679830020E-3
1.387981340E-1,9.162708884E-4,7.177455351E-3,7.635590737E-4
1.485125610E-1,9.162708884E-4,3.512371797E-3,1.985253533E-3
1.582261550E-1,-3.054236295E-4,-1.527118147E-4,4.428642802E-3
1.679390190E-1,-2.748812549E-3,-3.817795310E-3,4.428642802E-3
1.776527170E-1,-2.748812549E-3,-5.039489828E-3,4.428642802E-3
1.873671440E-1,-1.527118147E-3,-1.374406274E-3,1.985253533E-3
1.970808420E-1,-1.527118147E-3,2.290677279E-3,1.985253533E-3
2.067936030E-1,9.162708884E-4,4.734066315E-3,7.635590737E-4
2.165073000E-1,2.137965523E-3,5.955760833E-3,-4.581354442E-4
2.262217280E-1,3.359660041E-3,3.512371797E-3,-4.581354442E-4
2.359353210E-1,3.359660041E-3,-1.527118147E-4,-4.581354442E-4
2.456481860E-1,4.581354558E-3,-1.374406274E-3,7.635590737E-4
2.553618840E-1,3.359660041E-3,-2.596100792E-3,3.206948051E-3
2.650763110E-1,3.359660041E-3,-1.374406274E-3,4.428642802E-3
2.747899050E-1,2.137965523E-3,1.068982761E-3,4.428642802E-3
2.845027690E-1,-3.054236295E-4,3.512371797E-3,7.635590737E-4
2.942164670E-1,-3.054236295E-4,4.734066315E-3,-4.581354442E-4
3.039308940E-1,2.137965523E-3,7.177455351E-3,-4.581354442E-4
3.136444880E-1,4.581354558E-3,9.620844387E-3,-4.581354442E-4
3.233573530E-1,7.024743594E-3,7.177455351E-3,-1.679830020E-3
3.330710500E-1,8.246437646E-3,3.512371797E-3,-4.581354442E-4
3.427854780E-1,4.581354558E-3,-1.527118147E-4,3.206948051E-3
3.524990710E-1,2.137965523E-3,-1.374406274E-3,4.428642802E-3
3.622119360E-1,-3.054236295E-4,-1.374406274E-3,5.650337320E-3
3.719256340E-1,-3.054236295E-4,-1.374406274E-3,5.650337320E-3
3.816400610E-1,3.359660041E-3,1.068982761E-3,5.650337320E-3
3.913536550E-1,4.581354558E-3,4.734066315E-3,4.428642802E-3
4.010665190E-1,4.581354558E-3,7.177455351E-3,4.428642802E-3
4.107802170E-1,4.581354558E-3,5.955760833E-3,5.650337320E-3
4.204946440E-1,2.137965523E-3,3.512371797E-3,5.650337320E-3
4.302082380E-1,9.162708884E-4,1.068982761E-3,6.872031838E-3
4.399211030E-1,-3.054236295E-4,-1.527118147E-4,5.650337320E-3
4.496348000E-1,-3.054236295E-4,-1.527118147E-4,5.650337320E-3
4.593492280E-1,9.162708884E-4,-1.527118147E-4,3.206948051E-3
4.690628210E-1,9.162708884E-4,-1.374406274E-3,3.206948051E-3
4.787756860E-1,9.162708884E-4,-5.039489828E-3,1.985253533E-3
4.884893840E-1,9.162708884E-4,-6.261184346E-3,1.985253533E-3
4.982038110E-1,-3.054236295E-4,-5.039489828E-3,7.635590737E-4
5.079174050E-1,-3.054236295E-4,-1.527118147E-4,7.635590737E-4
5.176302690E-1,-3.054236295E-4,1.068982761E-3,-4.581354442E-4
5.273439670E-1,9.162708884E-4,-1.527118147E-4,-4.581354442E-4
5.370583940E-1,2.137965523E-3,-2.596100792E-3,7.635590737E-4
5.467719880E-1,2.137965523E-3,-5.039489828E-3,1.985253533E-3
5.564848530E-1,9.162708884E-4,-6.261184346E-3,-4.581354442E-4
5.661985500E-1,-3.054236295E-4,-5.039489828E-3,-2.901524538E-3
5.759129780E-1,-2.748812549E-3,-1.374406274E-3,-7.788302377E-3
5.856265710E-1,-3.970507067E-3,2.290677279E-3,-1.023169141E-2
5.953394360E-1,-3.970507067E-3,5.955760833E-3,-7.788302377E-3
6.050531340E-1,-2.748812549E-3,4.734066315E-3,-6.566607859E-3
6.147675610E-1,-3.054236295E-4,1.068982761E-3,-5.344913341E-3
6.244811550E-1,9.162708884E-4,-2.596100792E-3,-2.901524538E-3
6.341940190E-1,-3.054236295E-4,-3.817795310E-3,-2.901524538E-3
6.439077170E-1,-2.748812549E-3,-5.039489828E-3,-1.679830020E-3
6.536221440E-1,-3.970507067E-3,-5.039489828E-3,-2.901524538E-3
6.633357380E-1,-3.970507067E-3,-3.817795310E-3,-1.679830020E-3
6.730486030E-1,-1.527118147E-3,-1.527118147E-4,-4.581354442E-4
6.827623000E-1,9.162708884E-4,3.512371797E-3,7.635590737E-4
6.924767280E-1,2.137965523E-3,5.955760833E-3,-4.581354442E-4
7.021903210E-1,3.359660041E-3,5.955760833E-3,-4.581354442E-4
7.119031860E-1,3.359660041E-3,5.955760833E-3,-4.581354442E-4
7.216168840E-1,4.581354558E-3,4.734066315E-3,-4.581354442E-4
7.313313110E-1,3.359660041E-3,4.734066315E-3,1.985253533E-3
7.410449050E-1,2.137965523E-3,2.290677279E-3,3.206948051E-3
7.507577170E-1,9.162708884E-4,1.068982761E-3,4.428642802E-3
7.604714150E-1,9.162708884E-4,-3.817795310E-3,6.872031838E-3
7.701858940E-1,2.137965523E-3,-5.039489828E-3,6.872031838E-3
7.798994880E-1,3.359660041E-3,-7.482878864E-3,5.650337320E-3
7.896123000E-1,5.803049076E-3,-7.482878864E-3,4.428642802E-3
7.993259980E-1,7.024743594E-3,-5.039489828E-3,4.428642802E-3
8.090404780E-1,4.581354558E-3,-1.374406274E-3,5.650337320E-3
8.187540710E-1,2.137965523E-3,1.068982761E-3,6.872031838E-3
8.284668840E-1,-3.054236295E-4,1.068982761E-3,5.650337320E-3
8.381805820E-1,-3.054236295E-4,1.068982761E-3,5.650337320E-3
8.478950090E-1,-3.054236295E-4,1.068982761E-3,5.650337320E-3
8.576086030E-1,9.162708884E-4,-1.374406274E-3,4.428642802E-3
8.673214670E-1,2.137965523E-3,-1.374406274E-3,7.635590737E-4
8.770351650E-1,9.162708884E-4,-1.374406274E-3,1.985253533E-3
8.867495920E-1,9.162708884E-4,1.068982761E-3,7.635590737E-4
8.964631860E-1,9.162708884E-4,3.512371797E-3,7.635590737E-4
9.061760500E-1,-1.527118147E-3,4.734066315E-3,7.635590737E-4
9.158897480E-1,-1.527118147E-3,8.399149403E-3,-4.581354442E-4
9.256041750E-1,-3.970507067E-3,8.399149403E-3,-1.679830020E-3
9.353177690E-1,-5.192201585E-3,9.620844387E-3,-2.901524538E-3
9.450306340E-1,-7.635590620E-3,1.206423342E-2,-4.123218823E-3
9.547443320E-1,-1.130067464E-2,1.206423342E-2,-5.344913341E-3
9.644587590E-1,-1.252236869E-2,1.206423342E-2,-1.023169141E-2
9.741723530E-1,-1.252236869E-2,1.084253844E-2,-1.389677543E-2
9.838852170E-1,-1.130067464E-2,8.399149403E-3,-1.756185852E-2
9.935989150E-1,-7.635590620E-3,4.734066315E-3,-1.756185852E-2
1.003313342E0,-2.748812549E-3,1.068982761E-3,-1.756185852E-2
1.013026936E0,9.162708884E-4,-1.374406274E-3,-1.511846948E-2
1.022739800E0,-1.527118147E-3,-1.374406274E-3,-1.267508045E-2
1.032453498E0,-3.970507067E-3,1.068982761E-3,-1.145338640E-2
1.042167925E0,-6.413896102E-3,3.512371797E-3,-1.145338640E-2
1.051881519E0,-6.413896102E-3,5.955760833E-3,-9.009997360E-3
1.061594384E0,-2.748812549E-3,5.955760833E-3,-6.566607859E-3
1.071308082E0,2.137965523E-3,4.734066315E-3,-4.123218823E-3
1.081022509E0,5.803049076E-3,2.290677279E-3,-4.581354442E-4
1.090736103E0,7.024743594E-3,-5.039489828E-3,1.985253533E-3
1.100448967E0,4.581354558E-3,-8.704573847E-3,4.428642802E-3
1.110162665E0,-3.054236295E-4,-9.926267900E-3,4.428642802E-3
1.119877092E0,-2.748812549E-3,-5.039489828E-3,6.872031838E-3
1.129590686E0,-2.748812549E-3,-1.527118147E-4,6.872031838E-3
1.139303550E0,-3.054236295E-4,3.512371797E-3,6.872031838E-3
1.149017248E0,2.137965523E-3,4.734066315E-3,5.650337320E-3
1.158731675E0,3.359660041E-3,2.290677279E-3,5.650337320E-3
1.168445269E0,4.581354558E-3,2.290677279E-3,6.872031838E-3
1.178158134E0,3.359660041E-3,1.068982761E-3,8.093725890E-3
1.187871832E0,2.137965523E-3,-1.374406274E-3,9.315420873E-3
1.197586259E0,2.137965523E-3,-2.596100792E-3,9.315420873E-3
1.207299853E0,2.137965523E-3,-3.817795310E-3,6.872031838E-3
1.217012717E0,-3.054236295E-4,-2.596100792E-3,5.650337320E-3
1.226726415E0,-3.054236295E-4,-1.374406274E-3,5.650337320E-3
1.236440113E0,9.162708884E-4,-1.374406274E-3,3.206948051E-3
1.246154488E0,3.359660041E-3,-1.374406274E-3,3.206948051E-3
1.255867300E0,4.581354558E-3,-1.374406274E-3,3.206948051E-3
1.265580894E0,5.803049076E-3,-1.374406274E-3,5.650337320E-3
1.275295425E0,3.359660041E-3,-2.596100792E-3,6.872031838E-3
1.285009019E0,9.162708884E-4,-2.596100792E-3,4.428642802E-3
1.294721884E0,-1.527118147E-3,-3.817795310E-3,3.206948051E-3
1.304435478E0,-1.527118147E-3,-3.817795310E-3,-4.581354442E-4
1.314150009E0,-3.054236295E-4,-3.817795310E-3,-4.581354442E-4
1.323863603E0,2.137965523E-3,-5.039489828E-3,7.635590737E-4
1.333576467E0,4.581354558E-3,-8.704573847E-3,3.206948051E-3
1.343290165E0,3.359660041E-3,-1.114796288E-2,8.093725890E-3
1.353004592E0,9.162708884E-4,-1.359135192E-2,1.053711493E-2
1.362718186E0,-1.527118147E-3,-1.603474095E-2,1.175880991E-2
1.372430998E0,-3.970507067E-3,-1.847812906E-2,1.175880991E-2
1.382144748E0,-5.192201585E-3,-1.847812906E-2,6.872031838E-3
1.391859175E0,-6.413896102E-3,-1.603474095E-2,7.635590737E-4
1.401572769E0,-3.970507067E-3,-1.114796288E-2,-4.123218823E-3
1.411285582E0,-3.054236295E-4,-3.817795310E-3,-5.344913341E-3
1.420999280E0,2.137965523E-3,1.068982761E-3,-7.788302377E-3
1.430713759E0,3.359660041E-3,5.955760833E-3,-6.566607859E-3
1.440427353E0,2.137965523E-3,8.399149403E-3,-6.566607859E-3
1.450140165E0,9.162708884E-4,9.620844387E-3,-5.344913341E-3
1.459853863E0,-1.527118147E-3,9.620844387E-3,-2.901524538E-3
1.469568290E0,-2.748812549E-3,7.177455351E-3,7.635590737E-4
1.479281988E0,-1.527118147E-3,4.734066315E-3,1.985253533E-3
1.488994748E0,-3.054236295E-4,2.290677279E-3,3.206948051E-3
1.498708446E0,2.137965523E-3,1.068982761E-3,3.206948051E-3
1.508422925E0,3.359660041E-3,1.068982761E-3,1.985253533E-3
1.518136467E0,3.359660041E-3,1.068982761E-3,1.985253533E-3
1.527849332E0,2.137965523E-3,2.290677279E-3,1.985253533E-3
1.537563030E0,9.162708884E-4,2.290677279E-3,7.635590737E-4
1.547277509E0,-3.054236295E-4,3.512371797E-3,1.985253533E-3
1.556991103E0,9.162708884E-4,3.512371797E-3,4.428642802E-3
1.566703915E0,9.162708884E-4,-1.527118147E-4,6.872031838E-3
1.576417613E0,9.162708884E-4,-3.817795310E-3,9.315420873E-3
1.586132092E0,9.162708884E-4,-7.482878864E-3,8.093725890E-3
1.595845686E0,-3.054236295E-4,-1.236965694E-2,9.315420873E-3
1.605558498E0,9.162708884E-4,-1.481304597E-2,9.315420873E-3
1.615272196E0,9.162708884E-4,-1.603474095E-2,6.872031838E-3
1.624986675E0,2.137965523E-3,-1.725643501E-2,4.428642802E-3
1.634700269E0,2.137965523E-3,-1.359135192E-2,4.428642802E-3
1.644413082E0,9.162708884E-4,-1.359135192E-2,1.985253533E-3
1.654126780E0,-3.054236295E-4,-1.481304597E-2,-4.581354442E-4
1.663841259E0,-1.527118147E-3,-1.359135192E-2,-1.679830020E-3
1.673554800E0,-2.748812549E-3,-8.704573847E-3,-4.123218823E-3
1.683267665E0,-3.970507067E-3,-3.817795310E-3,-2.901524538E-3
1.692981363E0,-3.970507067E-3,-2.596100792E-3,-4.581354442E-4
1.702695842E0,-3.970507067E-3,-3.817795310E-3,7.635590737E-4
1.712409384E0,-3.970507067E-3,-6.261184346E-3,3.206948051E-3
1.722122248E0,-3.970507067E-3,-8.704573847E-3,3.206948051E-3
1.731835946E0,-5.192201585E-3,-8.704573847E-3,7.635590737E-4
1.741550373E0,-5.192201585E-3,-5.039489828E-3,-4.581354442E-4
1.751264071E0,-3.970507067E-3,-2.596100792E-3,-1.679830020E-3
1.760976832E0,-1.527118147E-3,-1.374406274E-3,-4.123218823E-3
1.770690530E0,-3.054236295E-4,-3.817795310E-3,-2.901524538E-3
1.780405009E0,2.137965523E-3,-8.704573847E-3,-1.679830020E-3
1.790118603E0,3.359660041E-3,-1.114796288E-2,7.635590737E-4
1.799831415E0,3.359660041E-3,-9.926267900E-3,3.206948051E-3
1.809545113E0,2.137965523E-3,-7.482878864E-3,3.206948051E-3
1.819259540E0,-3.054236295E-4,-2.596100792E-3,3.206948051E-3
1.828973238E0,-2.748812549E-3,1.068982761E-3,1.985253533E-3
1.838685998E0,-3.970507067E-3,4.734066315E-3,-4.581354442E-4
1.848399696E0,-1.527118147E-3,3.512371797E-3,-4.581354442E-4
1.858114123E0,-3.054236295E-4,-1.527118147E-4,-1.679830020E-3
1.867827821E0,2.137965523E-3,-3.817795310E-3,-1.679830020E-3
1.877540582E0,4.581354558E-3,-8.704573847E-3,-2.901524538E-3
1.887254280E0,4.581354558E-3,-8.704573847E-3,-4.123218823E-3
1.896968759E0,2.137965523E-3,-7.482878864E-3,-2.901524538E-3
1.906682353E0,9.162708884E-4,-2.596100792E-3,-1.679830020E-3
1.916395165E0,-1.527118147E-3,2.290677279E-3,-4.581354442E-4
1.926108863E0,-2.748812549E-3,3.512371797E-3,7.635590737E-4
1.935823290E0,-2.748812549E-3,2.290677279E-3,7.635590737E-4
1.945536988E0,-2.748812549E-3,1.068982761E-3,1.985253533E-3
1.955249748E0,-3.054236295E-4,-1.374406274E-3,-4.581354442E-4
1.964963446E0,9.162708884E-4,-1.374406274E-3,-1.679830020E-3
1.974677925E0,9.162708884E-4,-1.527118147E-4,-1.679830020E-3
1.984391519E0,9.162708884E-4,2.290677279E-3,-2.901524538E-3
1.994104332E0,9.162708884E-4,3.512371797E-3,-4.123218823E-3
2.003818030E0,9.162708884E-4,4.734066315E-3,-2.901524538E-3
2.013532457E0,9.162708884E-4,4.734066315E-3,-4.581354442E-4
2.023246050E0,9.162708884E-4,4.734066315E-3,7.635590737E-4
2.032958915E0,9.162708884E-4,2.290677279E-3,7.635590737E-4
2.042672613E0,9.162708884E-4,1.068982761E-3,1.985253533E-3
2.052387040E0,-3.054236295E-4,1.068982761E-3,7.635590737E-4
2.062100634E0,-1.527118147E-3,2.290677279E-3,-1.679830020E-3
2.071813498E0,-1.527118147E-3,5.955760833E-3,-4.123218823E-3
2.081527196E0,-3.054236295E-4,7.177455351E-3,-4.123218823E-3
2.091241623E0,-3.054236295E-4,5.955760833E-3,-2.901524538E-3
2.100955217E0,-3.054236295E-4,3.512371797E-3,-1.679830020E-3
2.110668082E0,9.162708884E-4,-1.527118147E-4,-1.679830020E-3
2.120381780E0,2.137965523E-3,-1.374406274E-3,-1.679830020E-3
2.130096207E0,9.162708884E-4,1.068982761E-3,-1.679830020E-3
2.139809800E0,-3.054236295E-4,2.290677279E-3,-4.581354442E-4
2.149522665E0,-2.748812549E-3,4.734066315E-3,7.635590737E-4
2.159236363E0,-2.748812549E-3,5.955760833E-3,7.635590737E-4
2.168950790E0,-1.527118147E-3,7.177455351E-3,7.635590737E-4
2.178664384E0,-3.054236295E-4,7.177455351E-3,-4.581354442E-4
2.188377248E0,2.137965523E-3,4.734066315E-3,-1.679830020E-3
2.198090946E0,3.359660041E-3,3.512371797E-3,-4.123218823E-3
2.207805373E0,5.803049076E-3,2.290677279E-3,-5.344913341E-3
2.217518967E0,7.024743594E-3,2.290677279E-3,-4.123218823E-3
2.227231832E0,7.024743594E-3,3.512371797E-3,-4.123218823E-3
2.236945530E0,4.581354558E-3,2.290677279E-3,-4.123218823E-3
2.246659957E0,-3.054236295E-4,2.290677279E-3,-2.901524538E-3
2.256373550E0,-3.970507067E-3,3.512371797E-3,-1.679830020E-3
2.266086415E0,-6.413896102E-3,2.290677279E-3,-2.901524538E-3
2.275800113E0,-3.970507067E-3,1.068982761E-3,-1.679830020E-3
2.285514540E0,-2.748812549E-3,2.290677279E-3,-4.581354442E-4
2.295228134E0,-1.527118147E-3,1.068982761E-3,7.635590737E-4
2.304940998E0,-3.054236295E-4,-1.374406274E-3,3.206948051E-3
2.314654696E0,9.162708884E-4,-3.817795310E-3,4.428642802E-3
2.324369123E0,2.137965523E-3,-3.817795310E-3,6.872031838E-3
2.334082717E0,9.162708884E-4,-1.374406274E-3,6.872031838E-3
2.343795582E0,2.137965523E-3,3.512371797E-3,5.650337320E-3
2.353509280E0,9.162708884E-4,5.955760833E-3,3.206948051E-3
2.363223707E0,9.162708884E-4,7.177455351E-3,7.635590737E-4
2.372937300E0,9.162708884E-4,8.399149403E-3,-4.581354442E-4
2.382650165E0,9.162708884E-4,8.399149403E-3,-1.679830020E-3
2.392363863E0,9.162708884E-4,7.177455351E-3,-2.901524538E-3
2.402078290E0,-1.527118147E-3,3.512371797E-3,-2.901524538E-3
2.411791884E0,-1.527118147E-3,-1.527118147E-4,-4.123218823E-3
2.421504748E0,-3.054236295E-4,-1.374406274E-3,-4.123218823E-3
2.431218446E0,-1.527118147E-3,-1.527118147E-4,-4.123218823E-3
2.440932873E0,-3.054236295E-4,2.290677279E-3,-4.123218823E-3
2.450646467E0,-3.054236295E-4,4.734066315E-3,-2.901524538E-3
2.460359332E0,9.162708884E-4,5.955760833E-3,-1.679830020E-3
2.470073030E0,9.162708884E-4,3.512371797E-3,-4.581354442E-4
2.479787457E0,2.137965523E-3,-1.374406274E-3,7.635590737E-4
2.489501050E0,2.137965523E-3,-5.039489828E-3,1.985253533E-3
2.499213863E0,9.162708884E-4,-7.482878864E-3,4.428642802E-3
2.508927561E0,9.162708884E-4,-7.482878864E-3,4.428642802E-3
2.518642040E0,-1.527118147E-3,-5.039489828E-3,5.650337320E-3
2.528355634E0,-2.748812549E-3,-2.596100792E-3,5.650337320E-3
2.538068446E0,-3.970507067E-3,1.068982761E-3,4.428642802E-3
2.547782144E0,-2.748812549E-3,2.290677279E-3,3.206948051E-3
2.557496571E0,-3.054236295E-4,4.734066315E-3,1.985253533E-3
2.567210165E0,-3.054236295E-4,3.512371797E-3,1.985253533E-3
2.576923030E0,9.162708884E-4,1.068982761E-3,3.206948051E-3
2.586636728E0,2.137965523E-3,-1.527118147E-4,1.985253533E-3
2.596351155E0,2.137965523E-3,-1.527118147E-4,1.985253533E-3
2.606064748E0,9.162708884E-4,-1.527118147E-4,1.985253533E-3
2.615777613E0,9.162708884E-4,1.068982761E-3,1.985253533E-3
2.625491311E0,-3.054236295E-4,2.290677279E-3,1.985253533E-3
2.635205738E0,-3.054236295E-4,1.068982761E-3,7.635590737E-4
2.644919332E0,-3.054236295E-4,-1.374406274E-3,1.985253533E-3
2.654632196E0,9.162708884E-4,-2.596100792E-3,7.635590737E-4
2.664345894E0,9.162708884E-4,-3.817795310E-3,7.635590737E-4
2.674060321E0,-3.054236295E-4,-1.374406274E-3,-1.679830020E-3
2.683773915E0,9.162708884E-4,1.068982761E-3,-1.679830020E-3
2.693486780E0,9.162708884E-4,2.290677279E-3,-2.901524538E-3
2.703200478E0,-3.054236295E-4,3.512371797E-3,-2.901524538E-3
2.712914905E0,-3.054236295E-4,3.512371797E-3,-4.123218823E-3
2.722628498E0,-3.054236295E-4,2.290677279E-3,-4.123218823E-3
2.732341363E0,-1.527118147E-3,2.290677279E-3,-4.123218823E-3
2.742055061E0,-1.527118147E-3,2.290677279E-3,-4.123218823E-3
2.751769488E0,-1.527118147E-3,1.068982761E-3,-4.123218823E-3
2.761483082E0,9.162708884E-4,1.068982761E-3,-4.123218823E-3
2.771195946E0,2.137965523E-3,1.068982761E-3,-4.123218823E-3
2.780909540E0,2.137965523E-3,1.068982761E-3,-5.344913341E-3
2.790624071E0,9.162708884E-4,-1.527118147E-4,-4.123218823E-3
2.800337613E0,-3.054236295E-4,-2.596100792E-3,-2.901524538E-3
2.810050478E0,-1.527118147E-3,-6.261184346E-3,-2.901524538E-3
2.819764175E0,-5.192201585E-3,-9.926267900E-3,-4.581354442E-4
2.829478603E0,-6.413896102E-3,-1.359135192E-2,-4.581354442E-4
2.839192196E0,-8.857285604E-3,-1.481304597E-2,1.985253533E-3
2.848905061E0,-7.635590620E-3,-1.481304597E-2,3.206948051E-3
2.858618759E0,-7.635590620E-3,-1.114796288E-2,7.635590737E-4
2.868333186E0,-3.970507067E-3,-6.261184346E-3,1.985253533E-3
2.878046780E0,-1.527118147E-3,-1.374406274E-3,1.985253533E-3
2.887759644E0,-3.054236295E-4,-1.374406274E-3,3.206948051E-3
2.897473342E0,-3.054236295E-4,-2.596100792E-3,3.206948051E-3
2.907187769E0,-3.054236295E-4,-5.039489828E-3,5.650337320E-3
2.916901363E0,-1.527118147E-3,-5.039489828E-3,4.428642802E-3
2.926614228E0,-1.527118147E-3,-1.374406274E-3,3.206948051E-3
2.936327925E0,-3.054236295E-4,-1.527118147E-4,1.985253533E-3
2.946042353E0,-3.054236295E-4,-3.817795310E-3,-4.581354442E-4
2.955755946E0,-3.054236295E-4,-1.527118147E-4,-1.679830020E-3
2.965468811E0,-3.054236295E-4,4.734066315E-3,-2.901524538E-3
2.975182405E0,-3.054236295E-4,8.399149403E-3,-2.901524538E-3
2.984896936E0,9.162708884E-4,1.206423342E-2,-2.901524538E-3
2.994610530E0,9.162708884E-4,1.084253844E-2,-1.679830020E-3
3.004323342E0,9.162708884E-4,7.177455351E-3,-1.679830020E-3
3.014037040E0,2.137965523E-3,2.290677279E-3,-1.679830020E-3
3.023751467E0,9.162708884E-4,-1.527118147E-4,-1.679830020E-3
3.033465061E0,-3.054236295E-4,-1.374406274E-3,-2.901524538E-3
3.043177925E0,9.162708884E-4,-1.527118147E-4,-2.901524538E-3
3.052891623E0,9.162708884E-4,2.290677279E-3,-2.901524538E-3
3.062606050E0,9.162708884E-4,4.734066315E-3,-1.679830020E-3
3.072319644E0,9.162708884E-4,3.512371797E-3,-4.581354442E-4
3.082032509E0,2.137965523E-3,2.290677279E-3,7.635590737E-4
3.091746207E0,9.162708884E-4,-1.527118147E-4,1.985253533E-3
3.101460634E0,-3.054236295E-4,-1.374406274E-3,7.635590737E-4
3.111174228E0,-3.054236295E-4,-1.374406274E-3,1.985253533E-3
3.120887092E0,-3.054236295E-4,1.068982761E-3,3.206948051E-3
3.130600790E0,-3.054236295E-4,2.290677279E-3,4.428642802E-3
3.140315217E0,9.162708884E-4,2.290677279E-3,4.428642802E-3
3.150028811E0,9.162708884E-4,-1.527118147E-4,5.650337320E-3
3.159741623E0,-3.054236295E-4,-1.374406274E-3,6.872031838E-3
3.169455321E0,-3.054236295E-4,-2.596100792E-3,5.650337320E-3
3.179169748E0,-3.054236295E-4,-2.596100792E-3,3.206948051E-3
3.188883342E0,-3.054236295E-4,2.290677279E-3,1.985253533E-3
3.198596207E0,9.162708884E-4,5.955760833E-3,-4.581354442E-4
3.208309905E0,9.162708884E-4,7.177455351E-3,-4.581354442E-4
3.218024332E0,-3.054236295E-4,7.177455351E-3,-1.679830020E-3
3.227737925E0,-3.054236295E-4,4.734066315E-3,-1.679830020E-3
3.237450790E0,-1.527118147E-3,1.068982761E-3,-2.901524538E-3
3.247164488E0,-1.527118147E-3,-1.374406274E-3,-2.901524538E-3
3.256878915E0,-1.527118147E-3,-1.374406274E-3,-2.901524538E-3
3.266592509E0,-1.527118147E-3,-1.527118147E-4,-2.901524538E-3
3.276305373E0,-3.054236295E-4,2.290677279E-3,-2.901524538E-3
3.286019071E0,-3.054236295E-4,3.512371797E-3,-4.581354442E-4
3.295733498E0,-3.054236295E-4,2.290677279E-3,-4.581354442E-4
3.305447092E0,-3.054236295E-4,1.068982761E-3,7.635590737E-4
3.315159957E0,9.162708884E-4,-1.527118147E-4,7.635590737E-4
3.324873550E0,9.162708884E-4,-1.374406274E-3,7.635590737E-4
3.334588082E0,2.137965523E-3,-2.596100792E-3,7.635590737E-4
3.344301623E0,9.162708884E-4,-2.596100792E-3,1.985253533E-3
3.354014488E0,-1.527118147E-3,-1.374406274E-3,3.206948051E-3
3.363728186E0,-1.527118147E-3,1.068982761E-3,3.206948051E-3
3.373442613E0,-3.054236295E-4,-1.527118147E-4,3.206948051E-3
3.383156207E0,9.162708884E-4,1.068982761E-3,4.428642802E-3
3.392869071E0,2.137965523E-3,-1.527118147E-4,3.206948051E-3
3.402582769E0,3.359660041E-3,-1.527118147E-4,3.206948051E-3
3.412297196E0,4.581354558E-3,1.068982761E-3,3.206948051E-3
3.422010790E0,3.359660041E-3,2.290677279E-3,4.428642802E-3
3.431723655E0,9.162708884E-4,3.512371797E-3,3.206948051E-3
3.441437353E0,-1.527118147E-3,4.734066315E-3,4.428642802E-3
3.451151780E0,-3.970507067E-3,4.734066315E-3,4.428642802E-3
3.460865373E0,-2.748812549E-3,3.512371797E-3,4.428642802E-3
3.470578238E0,-3.054236295E-4,3.512371797E-3,3.206948051E-3
3.480291936E0,-3.054236295E-4,3.512371797E-3,3.206948051E-3
3.490006363E0,9.162708884E-4,4.734066315E-3,3.206948051E-3
3.499719957E0,9.162708884E-4,4.734066315E-3,1.985253533E-3
3.509432769E0,9.162708884E-4,2.290677279E-3,1.985253533E-3
3.519146467E0,9.162708884E-4,-1.527118147E-4,7.635590737E-4
3.528860894E0,9.162708884E-4,-1.527118147E-4,7.635590737E-4
3.538574488E0,-1.527118147E-3,2.290677279E-3,-1.679830020E-3
3.548287353E0,-1.527118147E-3,3.512371797E-3,-1.679830020E-3
3.558001050E0,-3.054236295E-4,4.734066315E-3,-2.901524538E-3
3.567715478E0,9.162708884E-4,3.512371797E-3,-1.679830020E-3
3.577429071E0,9.162708884E-4,2.290677279E-3,-4.581354442E-4
3.587141936E0,9.162708884E-4,1.068982761E-3,-4.581354442E-4
3.596855634E0,-3.054236295E-4,-1.527118147E-4,-1.679830020E-3
3.606570061E0,-3.054236295E-4,1.068982761E-3,-2.901524538E-3
3.616283655E0,-2.748812549E-3,-1.527118147E-4,-4.123218823E-3
3.625996519E0,-1.527118147E-3,-1.527118147E-4,-4.123218823E-3
3.635710217E0,9.162708884E-4,-1.374406274E-3,-2.901524538E-3
3.645424644E0,3.359660041E-3,-1.374406274E-3,-2.901524538E-3
3.655138238E0,3.359660041E-3,-1.527118147E-4,-1.679830020E-3
3.664851103E0,3.359660041E-3,-1.527118147E-4,-1.679830020E-3
3.674564800E0,3.359660041E-3,1.068982761E-3,-4.581354442E-4
3.684279228E0,2.137965523E-3,1.068982761E-3,7.635590737E-4
3.693992821E0,9.162708884E-4,1.068982761E-3,7.635590737E-4
3.703705634E0,-3.054236295E-4,2.290677279E-3,-4.581354442E-4
3.713419332E0,-3.054236295E-4,1.068982761E-3,1.985253533E-3
3.723133811E0,-3.054236295E-4,-1.374406274E-3,1.985253533E-3
3.732847353E0,9.162708884E-4,-3.817795310E-3,1.985253533E-3
3.742560217E0,-3.054236295E-4,-2.596100792E-3,1.985253533E-3
3.752273915E0,9.162708884E-4,-1.374406274E-3,1.985253533E-3
3.761988342E0,-3.054236295E-4,1.068982761E-3,3.206948051E-3
3.771701936E0,-3.054236295E-4,4.734066315E-3,1.985253533E-3
3.781414800E0,-3.054236295E-4,5.955760833E-3,7.635590737E-4
3.791128498E0,9.162708884E-4,4.734066315E-3,7.635590737E-4
3.800842925E0,-3.054236295E-4,4.734066315E-3,-4.581354442E-4
3.810556519E0,9.162708884E-4,2.290677279E-3,-4.581354442E-4
3.820269384E0,9.162708884E-4,2.290677279E-3,7.635590737E-4
3.829983082E0,9.162708884E-4,3.512371797E-3,7.635590737E-4
3.839697509E0,-3.054236295E-4,3.512371797E-3,1.985253533E-3
3.849411103E0,-3.054236295E-4,3.512371797E-3,7.635590737E-4
3.859123967E0,-2.748812549E-3,1.068982761E-3,-4.581354442E-4
3.868837665E0,-2.748812549E-3,-1.374406274E-3,-4.581354442E-4
3.878552092E0,-2.748812549E-3,-2.596100792E-3,-1.679830020E-3
3.888265686E0,-2.748812549E-3,-3.817795310E-3,-2.901524538E-3
3.897978498E0,-1.527118147E-3,-3.817795310E-3,-1.679830020E-3
3.907692196E0,-1.527118147E-3,-2.596100792E-3,-1.679830020E-3
3.917406623E0,-3.054236295E-4,-1.374406274E-3,-1.679830020E-3
3.927120321E0,-3.054236295E-4,-1.527118147E-4,-1.679830020E-3
3.936833082E0,-3.054236295E-4,-1.374406274E-3,-4.581354442E-4
3.946546780E0,-3.054236295E-4,-3.817795310E-3,7.635590737E-4
3.956261207E0,-1.527118147E-3,-6.261184346E-3,7.635590737E-4
3.965974800E0,-1.527118147E-3,-8.704573847E-3,7.635590737E-4
3.975687665E0,-3.054236295E-4,-9.926267900E-3,3.206948051E-3
3.985401363E0,9.162708884E-4,-1.359135192E-2,3.206948051E-3
3.995115790E0,3.359660041E-3,-1.481304597E-2,3.206948051E-3
4.004829384E0,4.581354558E-3,-1.359135192E-2,1.985253533E-3
4.014542248E0,7.024743594E-3,-1.114796288E-2,3.206948051E-3
4.024255946E0,7.024743594E-3,-8.704573847E-3,3.206948051E-3
4.033970373E0,5.803049076E-3,-2.596100792E-3,3.206948051E-3
4.043683967E0,3.359660041E-3,3.512371797E-3,1.985253533E-3
4.053396832E0,-3.054236295E-4,7.177455351E-3,4.428642802E-3
4.063110530E0,-2.748812549E-3,5.955760833E-3,5.650337320E-3
4.072824957E0,-1.527118147E-3,4.734066315E-3,5.650337320E-3
4.082538550E0,-1.527118147E-3,2.290677279E-3,5.650337320E-3
4.092251363E0,-2.748812549E-3,1.068982761E-3,3.206948051E-3
4.101965061E0,-2.748812549E-3,2.290677279E-3,7.635590737E-4
4.111679540E0,-2.748812549E-3,3.512371797E-3,7.635590737E-4
4.121393082E0,-1.527118147E-3,4.734066315E-3,-4.581354442E-4
4.131105946E0,-3.054236295E-4,4.734066315E-3,7.635590737E-4
4.140819644E0,2.137965523E-3,2.290677279E-3,-4.581354442E-4
4.150534071E0,2.137965523E-3,1.068982761E-3,1.985253533E-3
4.160247665E0,9.162708884E-4,-1.527118147E-4,4.428642802E-3
4.169960530E0,9.162708884E-4,-1.374406274E-3,3.206948051E-3
4.179674228E0,-3.054236295E-4,-2.596100792E-3,3.206948051E-3
4.189388655E0,-3.054236295E-4,-1.527118147E-4,3.206948051E-3
4.199102248E0,9.162708884E-4,2.290677279E-3,3.206948051E-3
4.208815113E0,9.162708884E-4,4.734066315E-3,1.985253533E-3
4.218528811E0,2.137965523E-3,4.734066315E-3,7.635590737E-4
4.228243238E0,2.137965523E-3,2.290677279E-3,7.635590737E-4
4.237956832E0,3.359660041E-3,1.068982761E-3,-4.581354442E-4
4.247669696E0,3.359660041E-3,1.068982761E-3,-4.581354442E-4
4.257383394E0,3.359660041E-3,2.290677279E-3,-1.679830020E-3
4.267097821E0,9.162708884E-4,3.512371797E-3,-4.581354442E-4
4.276811415E0,-3.054236295E-4,1.068982761E-3,7.635590737E-4
4.286524228E0,-3.054236295E-4,-1.374406274E-3,1.985253533E-3
4.296237925E0,-1.527118147E-3,-3.817795310E-3,1.985253533E-3
4.305952405E0,-2.748812549E-3,-6.261184346E-3,7.635590737E-4
4.315665946E0,-2.748812549E-3,-3.817795310E-3,-4.581354442E-4
4.325378811E0,-2.748812549E-3,-1.527118147E-4,-1.679830020E-3
4.335092509E0,-2.748812549E-3,4.734066315E-3,-4.123218823E-3
4.344806936E0,-2.748812549E-3,8.399149403E-3,-5.344913341E-3
4.354520530E0,-2.748812549E-3,8.399149403E-3,-5.344913341E-3
4.364233394E0,-2.748812549E-3,7.177455351E-3,-5.344913341E-3
4.373947092E0,-2.748812549E-3,2.290677279E-3,-4.123218823E-3
4.383661519E0,-1.527118147E-3,-1.527118147E-4,-1.679830020E-3
4.393375113E0,-1.527118147E-3,-1.374406274E-3,7.635590737E-4
4.403087978E0,-3.054236295E-4,-1.374406274E-3,7.635590737E-4
4.412801675E0,-2.748812549E-3,1.068982761E-3,-1.679830020E-3
4.422516103E0,-3.970507067E-3,2.290677279E-3,-4.123218823E-3
4.432229696E0,-5.192201585E-3,4.734066315E-3,-6.566607859E-3
4.441942509E0,-3.970507067E-3,7.177455351E-3,-6.566607859E-3
4.451656207E0,-1.527118147E-3,7.177455351E-3,-9.009997360E-3
4.461370634E0,-1.527118147E-3,5.955760833E-3,-7.788302377E-3
4.471084228E0,-3.054236295E-4,3.512371797E-3,-6.566607859E-3
4.480797092E0,-3.054236295E-4,2.290677279E-3,-4.123218823E-3
4.490510790E0,-1.527118147E-3,2.290677279E-3,-1.679830020E-3
4.500225217E0,-1.527118147E-3,3.512371797E-3,-4.581354442E-4
4.509938811E0,-2.748812549E-3,2.290677279E-3,-4.581354442E-4
4.519651675E0,-2.748812549E-3,2.290677279E-3,-1.679830020E-3
4.529365373E0,-3.970507067E-3,1.068982761E-3,-2.901524538E-3
4.539079800E0,-2.748812549E-3,1.068982761E-3,-2.901524538E-3
4.548793394E0,-1.527118147E-3,-1.374406274E-3,-4.123218823E-3
4.558506259E0,-1.527118147E-3,-1.527118147E-4,-4.123218823E-3
4.568219957E0,-2.748812549E-3,1.068982761E-3,-4.123218823E-3
4.577934384E0,-3.970507067E-3,1.068982761E-3,-6.566607859E-3
4.587647978E0,-5.192201585E-3,3.512371797E-3,-6.566607859E-3
4.597360790E0,-3.970507067E-3,4.734066315E-3,-6.566607859E-3
4.607074488E0,-5.192201585E-3,4.734066315E-3,-6.566607859E-3
4.616788915E0,-3.970507067E-3,3.512371797E-3,-5.344913341E-3
4.626502509E0,-3.970507067E-3,1.068982761E-3,-4.123218823E-3
4.636215373E0,-1.527118147E-3,-1.374406274E-3,-2.901524538E-3
4.645929071E0,-3.054236295E-4,-2.596100792E-3,-2.901524538E-3
4.655643498E0,9.162708884E-4,-3.817795310E-3,-1.679830020E-3
4.665357092E0,9.162708884E-4,-1.374406274E-3,-4.581354442E-4
4.675069957E0,-3.054236295E-4,-1.527118147E-4,-1.679830020E-3
4.684783655E0,9.162708884E-4,4.734066315E-3,-1.679830020E-3
4.694498082E0,-1.527118147E-3,5.955760833E-3,-2.901524538E-3
4.704211675E0,-3.970507067E-3,7.177455351E-3,-4.581354442E-4
4.713924540E0,-5.192201585E-3,3.512371797E-3,7.635590737E-4
4.723638134E0,-3.970507067E-3,1.068982761E-3,1.985253533E-3
4.733352613E0,-2.748812549E-3,-1.374406274E-3,3.206948051E-3
4.743066207E0,-1.527118147E-3,-1.374406274E-3,5.650337320E-3
4.752779071E0,-1.527118147E-3,-1.527118147E-4,5.650337320E-3
4.762492769E0,-1.527118147E-3,-1.527118147E-4,5.650337320E-3
4.772207196E0,-1.527118147E-3,-1.374406274E-3,3.206948051E-3
4.781920790E0,-3.054236295E-4,-2.596100792E-3,1.985253533E-3
4.791633655E0,9.162708884E-4,-1.374406274E-3,7.635590737E-4
4.801347353E0,9.162708884E-4,-1.527118147E-4,-4.581354442E-4
4.811061780E0,-3.054236295E-4,1.068982761E-3,-1.679830020E-3
4.820775373E0,-1.527118147E-3,1.068982761E-3,-1.679830020E-3
4.830488186E0,-2.748812549E-3,2.290677279E-3,-1.679830020E-3
4.840201936E0,-2.748812549E-3,2.290677279E-3,-1.679830020E-3
4.849916363E0,-1.527118147E-3,2.290677279E-3,-1.679830020E-3
4.859629905E0,-1.527118147E-3,2.290677279E-3,-2.901524538E-3
4.869342769E0,-3.054236295E-4,2.290677279E-3,-4.123218823E-3
4.879056467E0,-3.054236295E-4,1.068982761E-3,-4.123218823E-3
4.888770894E0,-3.054236295E-4,-1.527118147E-4,-5.344913341E-3
4.898484488E0,-3.054236295E-4,-1.527118147E-4,-4.123218823E-3
4.908197353E0,9.162708884E-4,-1.527118147E-4,-5.344913341E-3
4.917911050E0,9.162708884E-4,1.068982761E-3,-5.344913341E-3
4.927625478E0,-3.054236295E-4,2.290677279E-3,-2.901524538E-3
4.937339071E0,-3.054236295E-4,1.068982761E-3,-1.679830020E-3
4.947051936E0,9.162708884E-4,-1.374406274E-3,7.635590737E-4
4.956765530E0,-3.054236295E-4,-3.817795310E-3,1.985253533E-3
4.966480061E0,-3.054236295E-4,-3.817795310E-3,1.985253533E-3
4.976193603E0,-3.054236295E-4,-2.596100792E-3,1.985253533E-3
4.985906467E0,-3.054236295E-4,-1.374406274E-3,3.206948051E-3
4.995620165E0,-3.054236295E-4,-1.527118147E-4,4.428642802E-3
5.005334592E0,9.162708884E-4,-1.527118147E-4,4.428642802E-3
5.015048186E0,9.162708884E-4,-1.527118147E-4,4.428642802E-3
5.024761050E0,9.162708884E-4,-1.374406274E-3,4.428642802E-3
5.034474748E0,9.162708884E-4,-2.596100792E-3,3.206948051E-3
5.044189175E0,2.137965523E-3,-2.596100792E-3,1.985253533E-3
5.053902769E0,3.359660041E-3,-1.374406274E-3,3.206948051E-3
5.063615634E0,2.137965523E-3,-1.527118147E-4,3.206948051E-3
5.073329228E0,9.162708884E-4,1.068982761E-3,4.428642802E-3
5.083043707E0,9.162708884E-4,3.512371797E-3,1.985253533E-3
5.092757300E0,9.162708884E-4,2.290677279E-3,7.635590737E-4
5.102470165E0,9.162708884E-4,3.512371797E-3,-4.581354442E-4
5.112183863E0,9.162708884E-4,2.290677279E-3,-1.679830020E-3
5.121898290E0,9.162708884E-4,-1.527118147E-4,-2.901524538E-3
5.131611884E0,9.162708884E-4,-1.527118147E-4,-2.901524538E-3
5.141324748E0,-3.054236295E-4,-1.527118147E-4,-2.901524538E-3
5.151038446E0,-3.054236295E-4,-1.527118147E-4,-1.679830020E-3
5.160752873E0,-1.527118147E-3,1.068982761E-3,-4.581354442E-4
5.170466467E0,-1.527118147E-3,1.068982761E-3,-1.679830020E-3
5.180179280E0,-1.527118147E-3,1.068982761E-3,-2.901524538E-3
5.189892978E0,-1.527118147E-3,-1.527118147E-4,-4.123218823E-3
5.199607405E0,-3.054236295E-4,1.068982761E-3,-2.901524538E-3
5.209320998E0,9.162708884E-4,1.068982761E-3,-1.679830020E-3
5.219033863E0,9.162708884E-4,-1.527118147E-4,-1.679830020E-3
5.228747561E0,9.162708884E-4,-1.374406274E-3,7.635590737E-4
5.238461988E0,9.162708884E-4,-2.596100792E-3,7.635590737E-4
5.248175582E0,-3.054236295E-4,-1.374406274E-3,7.635590737E-4
5.257888446E0,-3.054236295E-4,-1.527118147E-4,1.985253533E-3
5.267602040E0,-3.054236295E-4,1.068982761E-3,7.635590737E-4
5.277316571E0,9.162708884E-4,2.290677279E-3,7.635590737E-4
5.287030113E0,9.162708884E-4,2.290677279E-3,7.635590737E-4
5.296742978E0,-3.054236295E-4,2.290677279E-3,7.635590737E-4
5.306456675E0,2.137965523E-3,1.068982761E-3,-4.581354442E-4
5.316171103E0,2.137965523E-3,-2.596100792E-3,-4.581354442E-4
5.325884696E0,3.359660041E-3,-2.596100792E-3,-4.581354442E-4
5.335597561E0,3.359660041E-3,-1.374406274E-3,1.985253533E-3
5.345311259E0,3.359660041E-3,2.290677279E-3,7.635590737E-4
5.355025686E0,3.359660041E-3,1.084253844E-2,-4.581354442E-4
5.364739280E0,9.162708884E-4,2.061609551E-2,7.635590737E-4
5.374452092E0,-3.054236295E-4,2.428117767E-2,-4.581354442E-4
5.384165790E0,-1.527118147E-3,1.939439960E-2,7.635590737E-4
5.393880217E0,-1.527118147E-3,8.399149403E-3,-4.581354442E-4
5.403593811E0,-3.054236295E-4,-1.527118147E-4,7.635590737E-4
5.413306675E0,9.162708884E-4,8.399149403E-3,3.206948051E-3
5.423020373E0,-3.054236295E-4,1.328592747E-2,3.206948051E-3
5.432734800E0,9.162708884E-4,3.512371797E-3,7.635590737E-4
5.442448394E0,2.137965523E-3,-1.527118147E-4,-4.581354442E-4
5.452161259E0,2.137965523E-3,2.290677279E-3,-1.679830020E-3
5.461874957E0,2.137965523E-3,4.734066315E-3,-2.901524538E-3
5.471589384E0,9.162708884E-4,5.955760833E-3,-2.901524538E-3
5.481302978E0,9.162708884E-4,4.734066315E-3,-4.123218823E-3
5.491015790E0,-3.054236295E-4,2.290677279E-3,-4.123218823E-3
5.500729488E0,-3.054236295E-4,-1.527118147E-4,-4.581354442E-4
5.510443915E0,-3.054236295E-4,-2.596100792E-3,-4.581354442E-4
5.520157509E0,-1.527118147E-3,-3.817795310E-3,-4.581354442E-4
5.529870373E0,-1.527118147E-3,-3.817795310E-3,-4.581354442E-4
5.539584071E0,-3.054236295E-4,-1.374406274E-3,-4.581354442E-4
5.549298498E0,9.162708884E-4,1.068982761E-3,-4.581354442E-4
5.559012092E0,3.359660041E-3,-1.527118147E-4,-1.679830020E-3
5.568724957E0,5.803049076E-3,-1.527118147E-4,-4.581354442E-4
5.578438655E0,4.581354558E-3,-1.527118147E-4,7.635590737E-4
5.588153082E0,4.581354558E-3,-1.527118147E-4,7.635590737E-4
5.597866675E0,3.359660041E-3,-1.527118147E-4,1.985253533E-3
5.607579540E0,2.137965523E-3,-1.374406274E-3,1.985253533E-3
5.617293238E0,-3.054236295E-4,-1.374406274E-3,1.985253533E-3
5.627007665E0,-3.054236295E-4,-1.527118147E-4,3.206948051E-3
5.636721259E0,9.162708884E-4,1.068982761E-3,4.428642802E-3
5.646434071E0,2.137965523E-3,-1.527118147E-4,4.428642802E-3
5.656147769E0,3.359660041E-3,-1.527118147E-4,5.650337320E-3
5.665862196E0,3.359660041E-3,-1.374406274E-3,8.093725890E-3
5.675575790E0,2.137965523E-3,-2.596100792E-3,6.872031838E-3
5.685288655E0,2.137965523E-3,-3.817795310E-3,6.872031838E-3
5.695002353E0,9.162708884E-4,-3.817795310E-3,6.872031838E-3
5.704716780E0,9.162708884E-4,-3.817795310E-3,4.428642802E-3
5.714430373E0,-3.054236295E-4,-2.596100792E-3,4.428642802E-3
5.724143238E0,9.162708884E-4,-1.527118147E-4,7.635590737E-4
5.733856936E0,9.162708884E-4,-1.527118147E-4,-1.679830020E-3
5.743571363E0,9.162708884E-4,1.068982761E-3,-2.901524538E-3
5.753284957E0,9.162708884E-4,-1.527118147E-4,-4.123218823E-3
5.762997821E0,-3.054236295E-4,-1.374406274E-3,-6.566607859E-3
5.772711519E0,-3.054236295E-4,-1.374406274E-3,-5.344913341E-3
5.782425946E0,-1.527118147E-3,-1.374406274E-3,-7.788302377E-3
5.792139540E0,-3.054236295E-4,-2.596100792E-3,-9.009997360E-3
5.801852353E0,-3.054236295E-4,-3.817795310E-3,-9.009997360E-3
5.811566050E0,-3.054236295E-4,-3.817795310E-3,-7.788302377E-3
5.821280478E0,-1.527118147E-3,-3.817795310E-3,-9.009997360E-3
5.830994071E0,-2.748812549E-3,-1.374406274E-3,-9.009997360E-3
5.840706936E0,-2.748812549E-3,-1.374406274E-3,-9.009997360E-3
5.850420634E0,-2.748812549E-3,-1.527118147E-4,-7.788302377E-3
5.860135061E0,-1.527118147E-3,-1.374406274E-3,-5.344913341E-3
5.869848655E0,-1.527118147E-3,-1.374406274E-3,-5.344913341E-3
5.879561519E0,-1.527118147E-3,-3.817795310E-3,-2.901524538E-3
5.889275217E0,-1.527118147E-3,-3.817795310E-3,-2.901524538E-3
5.898989644E0,-3.054236295E-4,-1.374406274E-3,-4.123218823E-3
5.908703238E0,-1.527118147E-3,2.290677279E-3,-2.901524538E-3
5.918416103E0,-1.527118147E-3,3.512371797E-3,-2.901524538E-3
5.928129800E0,-1.527118147E-3,5.955760833E-3,-1.679830020E-3
5.937844228E0,-3.054236295E-4,4.734066315E-3,7.635590737E-4
5.947557821E0,9.162708884E-4,3.512371797E-3,1.985253533E-3
5.957270686E0,9.162708884E-4,1.068982761E-3,3.206948051E-3
5.966984384E0,2.137965523E-3,-1.374406274E-3,3.206948051E-3
5.976698811E0,2.137965523E-3,-3.817795310E-3,3.206948051E-3
5.986412405E0,2.137965523E-3,-2.596100792E-3,1.985253533E-3
5.996125217E0,9.162708884E-4,-1.527118147E-4,1.985253533E-3
6.005838915E0,9.162708884E-4,3.512371797E-3,7.635590737E-4
6.015553394E0,-3.054236295E-4,7.177455351E-3,-4.581354442E-4
6.025266988E0,-2.748812549E-3,8.399149403E-3,7.635590737E-4
6.034979800E0,-3.970507067E-3,7.177455351E-3,3.206948051E-3
6.044693498E0,-3.970507067E-3,3.512371797E-3,4.428642802E-3
6.054407925E0,-2.748812549E-3,-1.527118147E-4,4.428642802E-3
6.064121623E0,-1.527118147E-3,-2.596100792E-3,5.650337320E-3
6.073834384E0,-1.527118147E-3,-1.374406274E-3,4.428642802E-3
6.083548082E0,-2.748812549E-3,-1.527118147E-4,1.985253533E-3
6.093262509E0,-3.970507067E-3,-1.527118147E-4,-4.581354442E-4
6.102976103E0,-2.748812549E-3,-1.527118147E-4,-1.679830020E-3
6.112688967E0,-2.748812549E-3,-1.527118147E-4,-2.901524538E-3
6.122402665E0,-1.527118147E-3,-1.527118147E-4,-2.901524538E-3
6.132117092E0,-1.527118147E-3,-1.527118147E-4,-4.123218823E-3
6.141830686E0,-1.527118147E-3,-1.527118147E-4,-1.679830020E-3
6.151543550E0,-1.527118147E-3,1.068982761E-3,-1.679830020E-3
6.161257248E0,-3.054236295E-4,3.512371797E-3,-1.679830020E-3
6.170971675E0,-3.054236295E-4,4.734066315E-3,-4.123218823E-3
6.180685269E0,-3.054236295E-4,5.955760833E-3,-4.123218823E-3
6.190398134E0,-3.054236295E-4,4.734066315E-3,-5.344913341E-3
6.200111832E0,2.137965523E-3,1.068982761E-3,-4.123218823E-3
6.209826259E0,3.359660041E-3,-3.817795310E-3,-2.901524538E-3
6.219539853E0,3.359660041E-3,-8.704573847E-3,-1.679830020E-3
6.229252717E0,3.359660041E-3,-9.926267900E-3,7.635590737E-4
6.238966415E0,3.359660041E-3,-8.704573847E-3,7.635590737E-4
6.248680842E0,3.359660041E-3,-5.039489828E-3,3.206948051E-3
6.258394436E0,2.137965523E-3,-1.527118147E-4,4.428642802E-3
6.268107300E0,9.162708884E-4,2.290677279E-3,3.206948051E-3
6.277820894E0,-1.527118147E-3,4.734066315E-3,1.985253533E-3
6.287535425E0,-1.527118147E-3,7.177455351E-3,7.635590737E-4
6.297249019E0,-3.054236295E-4,5.955760833E-3,-4.581354442E-4
6.306961832E0,9.162708884E-4,3.512371797E-3,-4.581354442E-4
6.316675530E0,9.162708884E-4,-1.374406274E-3,-4.581354442E-4
6.326390009E0,9.162708884E-4,-2.596100792E-3,1.985253533E-3
6.336103603E0,9.162708884E-4,1.068982761E-3,1.985253533E-3
6.345816415E0,9.162708884E-4,5.955760833E-3,3.206948051E-3
6.355530113E0,9.162708884E-4,7.177455351E-3,4.428642802E-3
6.365244592E0,9.162708884E-4,5.955760833E-3,4.428642802E-3
6.374958134E0,9.162708884E-4,4.734066315E-3,3.206948051E-3
6.384670998E0,-1.527118147E-3,3.512371797E-3,7.635590737E-4
6.394384696E0,-2.748812549E-3,1.068982761E-3,-4.581354442E-4
6.404099175E0,-1.527118147E-3,1.068982761E-3,-4.581354442E-4
6.413812769E0,-3.054236295E-4,1.068982761E-3,-1.679830020E-3
6.423525582E0,-3.054236295E-4,-1.527118147E-4,-2.901524538E-3
6.433239280E0,9.162708884E-4,1.068982761E-3,-1.679830020E-3
6.442953707E0,-3.054236295E-4,1.068982761E-3,-4.581354442E-4
6.452667405E0,-3.054236295E-4,-1.527118147E-4,7.635590737E-4
6.462380165E0,-3.054236295E-4,-2.596100792E-3,1.985253533E-3
6.472093863E0,-2.748812549E-3,-5.039489828E-3,1.985253533E-3
6.481808342E0,-1.527118147E-3,-7.482878864E-3,1.985253533E-3
6.491521936E0,-1.527118147E-3,-5.039489828E-3,7.635590737E-4
6.501234748E0,-1.527118147E-3,-2.596100792E-3,7.635590737E-4
6.510948498E0,-3.054236295E-4,-2.596100792E-3,7.635590737E-4
6.520662925E0,-1.527118147E-3,-1.374406274E-3,7.635590737E-4
6.530376519E0,-2.748812549E-3,-1.374406274E-3,1.985253533E-3
6.540089332E0,-3.970507067E-3,-2.596100792E-3,3.206948051E-3
6.549803082E0,-5.192201585E-3,-2.596100792E-3,3.206948051E-3
6.559517509E0,-5.192201585E-3,-1.374406274E-3,3.206948051E-3
6.569231103E0,-2.748812549E-3,1.068982761E-3,1.985253533E-3
6.578943967E0,-2.748812549E-3,1.068982761E-3,-4.581354442E-4
6.588657665E0,-1.527118147E-3,-1.374406274E-3,-1.679830020E-3
6.598372092E0,-3.054236295E-4,-2.596100792E-3,-1.679830020E-3
6.608085686E0,9.162708884E-4,-5.039489828E-3,-1.679830020E-3
6.617798550E0,2.137965523E-3,-2.596100792E-3,-2.901524538E-3
6.627512248E0,9.162708884E-4,2.290677279E-3,-2.901524538E-3
6.637226675E0,9.162708884E-4,5.955760833E-3,-2.901524538E-3
6.646940269E0,-1.527118147E-3,8.399149403E-3,-4.581354442E-4
6.656653134E0,-3.970507067E-3,7.177455351E-3,1.985253533E-3
6.666366832E0,-3.970507067E-3,3.512371797E-3,7.635590737E-4
6.676081259E0,-3.970507067E-3,1.068982761E-3,7.635590737E-4
6.685794853E0,-3.970507067E-3,1.068982761E-3,-1.679830020E-3
6.695507717E0,-2.748812549E-3,4.734066315E-3,-2.901524538E-3
6.705221415E0,-2.748812549E-3,7.177455351E-3,-4.123218823E-3
6.714935894E0,-3.970507067E-3,9.620844387E-3,-4.123218823E-3
6.724649488E0,-3.970507067E-3,9.620844387E-3,-5.344913341E-3
6.734362353E0,-3.970507067E-3,9.620844387E-3,-4.123218823E-3
6.744076050E0,-3.970507067E-3,8.399149403E-3,-4.123218823E-3
6.753790478E0,-3.970507067E-3,8.399149403E-3,-5.344913341E-3
6.763504071E0,-3.970507067E-3,7.177455351E-3,-2.901524538E-3
6.773216936E0,-2.748812549E-3,5.955760833E-3,-1.679830020E-3
6.782930634E0,-1.527118147E-3,3.512371797E-3,-4.581354442E-4
6.792645061E0,-1.527118147E-3,3.512371797E-3,7.635590737E-4
6.802358655E0,-5.192201585E-3,2.290677279E-3,-1.679830020E-3
6.812071519E0,-6.413896102E-3,1.068982761E-3,-1.679830020E-3
6.821785217E0,-5.192201585E-3,1.068982761E-3,-2.901524538E-3
6.831499696E0,-2.748812549E-3,2.290677279E-3,-5.344913341E-3
6.841213290E0,-3.054236295E-4,2.290677279E-3,-6.566607859E-3
6.850926155E0,-3.054236295E-4,3.512371797E-3,-6.566607859E-3
6.860639853E0,9.162708884E-4,3.512371797E-3,-6.566607859E-3
6.870354280E0,9.162708884E-4,3.512371797E-3,-5.344913341E-3
6.880067873E0,9.162708884E-4,2.290677279E-3,-4.123218823E-3
6.889780738E0,9.162708884E-4,1.068982761E-3,-2.901524538E-3
6.899494488E0,-1.527118147E-3,-1.527118147E-4,-2.901524538E-3
6.909208915E0,-2.748812549E-3,-1.374406274E-3,-4.581354442E-4
6.918922509E0,-5.192201585E-3,-2.596100792E-3,-1.679830020E-3
6.928635373E0,-5.192201585E-3,-3.817795310E-3,-1.679830020E-3
6.938349071E0,-2.748812549E-3,-3.817795310E-3,-1.679830020E-3
6.948063550E0,-1.527118147E-3,-2.596100792E-3,-2.901524538E-3
6.957777144E0,2.137965523E-3,-2.596100792E-3,-2.901524538E-3
6.967490009E0,2.137965523E-3,-1.374406274E-3,-1.679830020E-3
6.977203707E0,2.137965523E-3,-1.527118147E-4,7.635590737E-4
6.986918134E0,9.162708884E-4,-1.527118147E-4,7.635590737E-4
6.996631728E0,-3.054236295E-4,2.290677279E-3,3.206948051E-3
7.006344644E0,-3.054236295E-4,3.512371797E-3,1.985253533E-3
7.016058342E0,-3.054236295E-4,2.290677279E-3,1.985253533E-3
7.025772769E0,9.162708884E-4,-1.527118147E-4,1.985253533E-3
7.035486363E0,-3.054236295E-4,-1.374406274E-3,-4.581354442E-4
7.045199228E0,-1.527118147E-3,-3.817795310E-3,-4.581354442E-4
7.054912978E0,-1.527118147E-3,-5.039489828E-3,-1.679830020E-3
7.064627405E0,-2.748812549E-3,-2.596100792E-3,-1.679830020E-3
7.074340998E0,-1.527118147E-3,-1.527118147E-4,-4.581354442E-4
7.084053863E0,-3.054236295E-4,1.068982761E-3,-1.679830020E-3
7.093767561E0,-3.054236295E-4,1.068982761E-3,-4.581354442E-4
7.103482040E0,-3.054236295E-4,1.068982761E-3,-4.581354442E-4
7.113195634E0,-3.054236295E-4,1.068982761E-3,-4.581354442E-4
7.122908498E0,-3.054236295E-4,-1.374406274E-3,7.635590737E-4
7.132622196E0,-3.054236295E-4,-2.596100792E-3,-4.581354442E-4
7.142336675E0,-1.527118147E-3,-2.596100792E-3,-4.581354442E-4
7.152050269E0,-2.748812549E-3,-2.596100792E-3,-1.679830020E-3
7.161763134E0,-2.748812549E-3,-2.596100792E-3,-2.901524538E-3
7.171476832E0,-2.748812549E-3,-1.374406274E-3,-2.901524538E-3
7.181191311E0,-1.527118147E-3,1.068982761E-3,-2.901524538E-3
7.190904905E0,9.162708884E-4,2.290677279E-3,-6.566607859E-3
7.200617769E0,-3.054236295E-4,5.955760833E-3,-7.788302377E-3
7.210331467E0,2.137965523E-3,8.399149403E-3,-9.009997360E-3
7.220045946E0,2.137965523E-3,9.620844387E-3,-1.145338640E-2
7.229759540E0,2.137965523E-3,1.206423342E-2,-1.267508045E-2
7.239472405E0,-3.054236295E-4,1.450762246E-2,-1.145338640E-2
7.249186155E0,-2.748812549E-3,1.328592747E-2,-9.009997360E-3
7.258900582E0,-5.192201585E-3,9.620844387E-3,-6.566607859E-3
7.268614175E0,-5.192201585E-3,3.512371797E-3,-5.344913341E-3
7.278327040E0,-3.970507067E-3,-1.374406274E-3,-5.344913341E-3
7.288040790E0,-3.970507067E-3,-3.817795310E-3,-6.566607859E-3
7.297755217E0,-1.527118147E-3,-1.374406274E-3,-6.566607859E-3
7.307468915E0,-1.527118147E-3,3.512371797E-3,-5.344913341E-3
7.317181728E0,-3.054236295E-4,4.734066315E-3,-4.123218823E-3
7.326895425E0,9.162708884E-4,3.512371797E-3,-1.679830020E-3
7.336609905E0,-3.054236295E-4,-1.527118147E-4,1.985253533E-3
7.346323498E0,-3.054236295E-4,-3.817795310E-3,3.206948051E-3
7.356036363E0,-1.527118147E-3,-5.039489828E-3,5.650337320E-3
7.365750061E0,-3.054236295E-4,-5.039489828E-3,5.650337320E-3
7.375464540E0,-3.054236295E-4,-1.374406274E-3,5.650337320E-3
7.385178134E0,9.162708884E-4,1.068982761E-3,4.428642802E-3
7.394890998E0,-3.054236295E-4,2.290677279E-3,4.428642802E-3
7.404604748E0,-3.054236295E-4,2.290677279E-3,3.206948051E-3
7.414319175E0,9.162708884E-4,1.068982761E-3,1.985253533E-3
7.424032873E0,2.137965523E-3,-2.596100792E-3,3.206948051E-3
7.433745686E0,3.359660041E-3,-3.817795310E-3,3.206948051E-3
7.443459384E0,3.359660041E-3,-5.039489828E-3,3.206948051E-3
7.453173863E0,2.137965523E-3,-3.817795310E-3,1.985253533E-3
7.462887457E0,3.359660041E-3,-1.527118147E-4,1.985253533E-3
7.472600373E0,2.137965523E-3,1.068982761E-3,1.985253533E-3
7.482314071E0,9.162708884E-4,-1.527118147E-4,1.985253533E-3
7.492028498E0,9.162708884E-4,-2.596100792E-3,1.985253533E-3
7.501742196E0,-3.054236295E-4,-2.596100792E-3,7.635590737E-4
7.511455009E0,-1.527118147E-3,-2.596100792E-3,-4.581354442E-4
7.521168759E0,-1.527118147E-3,-1.527118147E-4,-1.679830020E-3
7.530883186E0,-3.054236295E-4,2.290677279E-3,-1.679830020E-3
7.540596884E0,-3.054236295E-4,3.512371797E-3,-1.679830020E-3
7.550309696E0,-3.054236295E-4,3.512371797E-3,-2.901524538E-3
7.560023394E0,-1.527118147E-3,2.290677279E-3,-4.123218823E-3
7.569737873E0,-2.748812549E-3,1.068982761E-3,-5.344913341E-3
7.579451467E0,-3.970507067E-3,2.290677279E-3,-6.566607859E-3
7.589164384E0,-3.970507067E-3,2.290677279E-3,-7.788302377E-3
7.598878082E0,-5.192201585E-3,3.512371797E-3,-9.009997360E-3
7.608592561E0,-6.413896102E-3,3.512371797E-3,-9.009997360E-3
7.618306155E0,-7.635590620E-3,3.512371797E-3,-9.009997360E-3
7.628019071E0,-6.413896102E-3,3.512371797E-3,-6.566607859E-3
7.637732769E0,-5.192201585E-3,3.512371797E-3,-5.344913341E-3
7.647447248E0,-3.970507067E-3,1.068982761E-3,-4.123218823E-3
7.657160842E0,-2.748812549E-3,-3.817795310E-3,-4.123218823E-3
7.666873707E0,-1.527118147E-3,-7.482878864E-3,-4.123218823E-3
7.676587457E0,-3.054236295E-4,-5.039489828E-3,-5.344913341E-3
7.686301936E0,-3.054236295E-4,-1.374406274E-3,-5.344913341E-3
7.696015530E0,2.137965523E-3,2.290677279E-3,-5.344913341E-3
7.705728394E0,2.137965523E-3,4.734066315E-3,-2.901524538E-3
7.715442144E0,3.359660041E-3,3.512371797E-3,-4.581354442E-4
7.725156623E0,3.359660041E-3,2.290677279E-3,7.635590737E-4
7.734870217E0,9.162708884E-4,-1.527118147E-4,3.206948051E-3
7.744583082E0,9.162708884E-4,-1.527118147E-4,4.428642802E-3
7.754296832E0,-3.054236295E-4,-1.374406274E-3,3.206948051E-3
7.764011311E0,9.162708884E-4,-1.527118147E-4,4.428642802E-3
7.773724905E0,2.137965523E-3,1.068982761E-3,4.428642802E-3
7.783437821E0,3.359660041E-3,-1.527118147E-4,3.206948051E-3
7.793151519E0,3.359660041E-3,-1.374406274E-3,4.428642802E-3
7.802865998E0,4.581354558E-3,-1.374406274E-3,4.428642802E-3
7.812579592E0,4.581354558E-3,-1.374406274E-3,5.650337320E-3
7.822292509E0,3.359660041E-3,-1.527118147E-4,4.428642802E-3
7.832006207E0,2.137965523E-3,2.290677279E-3,3.206948051E-3
7.841720686E0,-3.054236295E-4,3.512371797E-3,3.206948051E-3
7.851434280E0,-3.054236295E-4,4.734066315E-3,3.206948051E-3
7.861147196E0,-1.527118147E-3,4.734066315E-3,4.428642802E-3
7.870860894E0,-1.527118147E-3,3.512371797E-3,3.206948051E-3
7.880575373E0,-3.054236295E-4,3.512371797E-3,3.206948051E-3
7.890289071E0,-3.054236295E-4,3.512371797E-3,3.206948051E-3
7.900001884E0,-3.054236295E-4,2.290677279E-3,1.985253533E-3
7.909715634E0,-1.527118147E-3,1.068982761E-3,7.635590737E-4
7.919430061E0,-3.054236295E-4,-1.527118147E-4,7.635590737E-4
7.929143759E0,-3.054236295E-4,-1.374406274E-3,-4.581354442E-4
7.938856571E0,-3.054236295E-4,-1.374406274E-3,-2.901524538E-3
7.948570321E0,-1.527118147E-3,-1.527118147E-4,-2.901524538E-3
7.958284800E0,-1.527118147E-3,1.068982761E-3,-2.901524538E-3
7.967998394E0,-3.054236295E-4,-1.527118147E-4,-5.344913341E-3
7.977711311E0,-3.054236295E-4,1.068982761E-3,-5.344913341E-3
7.987425009E0,-3.054236295E-4,1.068982761E-3,-5.344913341E-3
7.997139488E0,-1.527118147E-3,2.290677279E-3,-4.123218823E-3
8.006853186E0,-2.748812549E-3,3.512371797E-3,-5.344913341E-3
8.016565998E0,-2.748812549E-3,4.734066315E-3,-2.901524538E-3
8.026279748E0,-1.527118147E-3,2.290677279E-3,-2.901524538E-3
8.035994175E0,-3.054236295E-4,2.290677279E-3,-2.901524538E-3
8.045707873E0,-3.054236295E-4,-1.527118147E-4,-4.123218823E-3
8.055420738E0,-3.054236295E-4,-2.596100792E-3,-5.344913341E-3
8.065134436E0,-1.527118147E-3,-2.596100792E-3,-4.123218823E-3
8.074848915E0,-1.527118147E-3,-2.596100792E-3,-5.344913341E-3
8.084562613E0,-1.527118147E-3,-2.596100792E-3,-5.344913341E-3
8.094275425E0,-3.054236295E-4,-2.596100792E-3,-5.344913341E-3
8.103989175E0,9.162708884E-4,-3.817795310E-3,-2.901524538E-3
8.113703655E0,9.162708884E-4,-3.817795310E-3,7.635590737E-4
8.123417248E0,9.162708884E-4,-3.817795310E-3,7.635590737E-4
8.133130165E0,-3.054236295E-4,-3.817795310E-3,1.985253533E-3
8.142843863E0,-1.527118147E-3,-2.596100792E-3,7.635590737E-4
8.152558342E0,-2.748812549E-3,-1.374406274E-3,7.635590737E-4
8.162272040E0,-2.748812549E-3,-1.527118147E-4,-4.581354442E-4
8.171984853E0,-3.054236295E-4,2.290677279E-3,-4.581354442E-4
8.181698603E0,3.359660041E-3,3.512371797E-3,7.635590737E-4
8.191413082E0,3.359660041E-3,2.290677279E-3,1.985253533E-3
8.201126675E0,2.137965523E-3,1.068982761E-3,3.206948051E-3
8.210839592E0,9.162708884E-4,-1.374406274E-3,3.206948051E-3
8.220553290E0,-3.054236295E-4,-1.527118147E-4,3.206948051E-3
8.230267769E0,-3.054236295E-4,-1.527118147E-4,3.206948051E-3
8.239981467E0,-3.054236295E-4,1.068982761E-3,7.635590737E-4
8.249694280E0,-1.527118147E-3,1.068982761E-3,-4.581354442E-4
8.259408030E0,-1.527118147E-3,1.068982761E-3,-1.679830020E-3
8.269122509E0,-1.527118147E-3,-1.527118147E-4,-2.901524538E-3
8.278836103E0,-3.054236295E-4,-1.374406274E-3,-2.901524538E-3
8.288549019E0,9.162708884E-4,-1.374406274E-3,-2.901524538E-3
8.298262769E0,9.162708884E-4,-1.527118147E-4,-2.901524538E-3
8.307977196E0,-3.054236295E-4,-1.527118147E-4,-1.679830020E-3
8.317690894E0,-3.054236295E-4,1.068982761E-3,-4.581354442E-4
8.327403707E0,-3.054236295E-4,1.068982761E-3,7.635590737E-4
8.337117457E0,-3.054236295E-4,-1.527118147E-4,7.635590737E-4
8.346831936E0,-3.054236295E-4,-1.527118147E-4,7.635590737E-4
8.356545634E0,-3.054236295E-4,-1.374406274E-3,-4.581354442E-4
8.366258446E0,-3.054236295E-4,-1.374406274E-3,-1.679830020E-3
8.375972196E0,-1.527118147E-3,-1.527118147E-4,-4.581354442E-4
8.385686675E0,-2.748812549E-3,-1.527118147E-4,-4.581354442E-4
8.395400269E0,-1.527118147E-3,2.290677279E-3,-1.679830020E-3
8.405113186E0,9.162708884E-4,1.068982761E-3,-1.679830020E-3
8.414826936E0,9.162708884E-4,1.068982761E-3,-2.901524538E-3
8.424541363E0,2.137965523E-3,-2.596100792E-3,-2.901524538E-3
8.434255061E0,9.162708884E-4,-3.817795310E-3,-4.123218823E-3
8.443967925E0,-3.054236295E-4,-3.817795310E-3,-5.344913341E-3
8.453681623E0,-2.748812549E-3,-2.596100792E-3,-5.344913341E-3
8.463396103E0,-3.970507067E-3,-1.374406274E-3,-2.901524538E-3
8.473109800E0,-5.192201585E-3,-3.817795310E-3,-1.679830020E-3
8.482822613E0,-3.970507067E-3,-8.704573847E-3,-1.679830020E-3
8.492536363E0,-5.192201585E-3,-1.236965694E-2,-1.679830020E-3
8.502250842E0,-5.192201585E-3,-1.359135192E-2,-2.901524538E-3
8.511964436E0,-7.635590620E-3,-1.236965694E-2,-1.679830020E-3
8.521677353E0,-7.635590620E-3,-1.236965694E-2,-1.679830020E-3
8.531391103E0,-6.413896102E-3,-9.926267900E-3,7.635590737E-4
8.541105582E0,-5.192201585E-3,-8.704573847E-3,1.985253533E-3
8.550819175E0,-1.527118147E-3,-6.261184346E-3,1.985253533E-3
8.560532092E0,9.162708884E-4,-1.374406274E-3,1.985253533E-3
8.570245790E0,9.162708884E-4,3.512371797E-3,7.635590737E-4
8.579960269E0,2.137965523E-3,5.955760833E-3,-1.679830020E-3
8.589673967E0,9.162708884E-4,7.177455351E-3,-2.901524538E-3
8.599386832E0,-3.054236295E-4,7.177455351E-3,-2.901524538E-3
8.609100530E0,-3.054236295E-4,4.734066315E-3,-2.901524538E-3
8.618815009E0,-1.527118147E-3,1.068982761E-3,-1.679830020E-3
8.628528707E0,-1.527118147E-3,-2.596100792E-3,-1.679830020E-3
8.638241519E0,9.162708884E-4,-3.817795310E-3,-1.679830020E-3
8.647955269E0,9.162708884E-4,-6.261184346E-3,-4.581354442E-4
8.657669748E0,2.137965523E-3,-5.039489828E-3,-4.581354442E-4
8.667383446E0,2.137965523E-3,-1.374406274E-3,7.635590737E-4
8.677096259E0,9.162708884E-4,-1.527118147E-4,7.635590737E-4
8.686810009E0,9.162708884E-4,-1.527118147E-4,7.635590737E-4
8.696524488E0,-3.054236295E-4,-2.596100792E-3,-4.581354442E-4
8.706238082E0,-3.054236295E-4,-9.926267900E-3,-1.679830020E-3
8.715950998E0,-3.054236295E-4,-2.092151903E-2,-2.901524538E-3
8.725664748E0,-1.527118147E-3,-3.313846514E-2,-2.901524538E-3
8.735379228E0,-3.970507067E-3,-4.169032723E-2,-1.679830020E-3
8.745092821E0,-7.635590620E-3,-4.291202128E-2,-1.679830020E-3
8.754805738E0,-1.130067464E-2,-3.802524135E-2,-1.679830020E-3
8.764519436E0,-1.252236869E-2,-2.702999115E-2,-2.901524538E-3
8.774233915E0,-1.130067464E-2,-1.359135192E-2,-2.901524538E-3
8.783947613E0,-7.635590620E-3,-2.596100792E-3,-4.123218823E-3
8.793660478E0,-2.748812549E-3,5.955760833E-3,-4.123218823E-3
8.803374175E0,9.162708884E-4,9.620844387E-3,-4.123218823E-3
8.813088655E0,4.581354558E-3,7.177455351E-3,-5.344913341E-3
8.822802353E0,5.803049076E-3,4.734066315E-3,-4.123218823E-3
8.832515217E0,4.581354558E-3,-1.527118147E-4,-2.901524538E-3
8.842228915E0,9.162708884E-4,-3.817795310E-3,-4.581354442E-4
8.851943394E0,-2.748812549E-3,-6.261184346E-3,1.985253533E-3
8.861657092E0,-3.970507067E-3,-6.261184346E-3,3.206948051E-3
8.871369905E0,-3.970507067E-3,-3.817795310E-3,1.985253533E-3
8.881083655E0,-3.970507067E-3,-2.596100792E-3,1.985253533E-3
8.890798134E0,-1.527118147E-3,-2.596100792E-3,7.635590737E-4
8.900511832E0,9.162708884E-4,-1.374406274E-3,-1.679830020E-3
8.910224644E0,9.162708884E-4,-2.596100792E-3,-1.679830020E-3
8.919938394E0,9.162708884E-4,-2.596100792E-3,-4.123218823E-3
8.929652873E0,-3.054236295E-4,-1.374406274E-3,-2.901524538E-3
8.939366571E0,-1.527118147E-3,1.068982761E-3,-1.679830020E-3
8.949079384E0,-2.748812549E-3,1.068982761E-3,-1.679830020E-3
8.958793134E0,-2.748812549E-3,2.290677279E-3,-1.679830020E-3
8.968507613E0,-1.527118147E-3,3.512371797E-3,-2.901524538E-3
8.978221311E0,-3.054236295E-4,4.734066315E-3,-2.901524538E-3
8.987934123E0,9.162708884E-4,4.734066315E-3,-4.123218823E-3
8.997647873E0,9.162708884E-4,4.734066315E-3,-4.123218823E-3
9.007362353E0,2.137965523E-3,7.177455351E-3,-2.901524538E-3
9.017075946E0,3.359660041E-3,8.399149403E-3,-2.901524538E-3
9.026788863E0,3.359660041E-3,9.620844387E-3,-1.679830020E-3
9.036502613E0,4.581354558E-3,7.177455351E-3,-1.679830020E-3
9.046217092E0,3.359660041E-3,4.734066315E-3,7.635590737E-4
9.055930686E0,2.137965523E-3,3.512371797E-3,-4.581354442E-4
9.065643603E0,2.137965523E-3,5.955760833E-3,-1.679830020E-3
9.075357353E0,9.162708884E-4,9.620844387E-3,-4.581354442E-4
9.085071832E0,-3.054236295E-4,1.206423342E-2,-4.581354442E-4
9.094785425E0,-3.054236295E-4,1.206423342E-2,1.985253533E-3
9.104498342E0,-3.054236295E-4,9.620844387E-3,3.206948051E-3
9.114212092E0,9.162708884E-4,4.734066315E-3,3.206948051E-3
9.123926571E0,2.137965523E-3,2.290677279E-3,5.650337320E-3
9.133640165E0,2.137965523E-3,2.290677279E-3,4.428642802E-3
9.143353082E0,-3.054236295E-4,2.290677279E-3,4.428642802E-3
9.153066832E0,9.162708884E-4,5.955760833E-3,3.206948051E-3
9.162781311E0,2.137965523E-3,8.399149403E-3,1.985253533E-3
9.172494905E0,3.359660041E-3,1.084253844E-2,-4.581354442E-4
9.182207821E0,3.359660041E-3,9.620844387E-3,-4.581354442E-4
9.191921571E0,4.581354558E-3,9.620844387E-3,-4.581354442E-4
9.201635998E0,3.359660041E-3,7.177455351E-3,-1.679830020E-3
9.211349696E0,2.137965523E-3,4.734066315E-3,-4.581354442E-4
9.221062561E0,9.162708884E-4,1.068982761E-3,-1.679830020E-3
9.230776311E0,-3.054236295E-4,2.290677279E-3,-1.679830020E-3
9.240490790E0,-1.527118147E-3,2.290677279E-3,-5.344913341E-3
9.250204384E0,-1.527118147E-3,2.290677279E-3,-4.123218823E-3
9.259917300E0,-2.748812549E-3,2.290677279E-3,-5.344913341E-3
9.269631050E0,-1.527118147E-3,2.290677279E-3,-5.344913341E-3
9.279345478E0,-3.054236295E-4,-1.527118147E-4,-5.344913341E-3
9.289059175E0,-3.054236295E-4,-1.374406274E-3,-4.123218823E-3
9.298772040E0,9.162708884E-4,-1.527118147E-4,-4.123218823E-3
9.308485790E0,-3.054236295E-4,2.290677279E-3,-1.679830020E-3
9.318200217E0,-1.527118147E-3,1.068982761E-3,-1.679830020E-3
9.327913915E0,-3.054236295E-4,2.290677279E-3,-1.679830020E-3
9.337626780E0,9.162708884E-4,1.068982761E-3,-4.581354442E-4
9.347340530E0,2.137965523E-3,-1.374406274E-3,-4.581354442E-4
9.357054957E0,2.137965523E-3,-1.527118147E-4,7.635590737E-4
9.366768655E0,2.137965523E-3,1.068982761E-3,7.635590737E-4
9.376481519E0,3.359660041E-3,2.290677279E-3,7.635590737E-4
9.386195217E0,4.581354558E-3,4.734066315E-3,1.985253533E-3
9.395909696E0,3.359660041E-3,7.177455351E-3,3.206948051E-3
9.405623394E0,3.359660041E-3,8.399149403E-3,3.206948051E-3
9.415336259E0,2.137965523E-3,9.620844387E-3,4.428642802E-3
9.425049957E0,2.137965523E-3,8.399149403E-3,5.650337320E-3
9.434764436E0,9.162708884E-4,5.955760833E-3,5.650337320E-3
9.444478134E0,2.137965523E-3,3.512371797E-3,5.650337320E-3
9.454190998E0,9.162708884E-4,1.068982761E-3,4.428642802E-3
9.463904696E0,9.162708884E-4,-1.527118147E-4,3.206948051E-3
9.473619175E0,2.137965523E-3,1.068982761E-3,1.985253533E-3
9.483332873E0,9.162708884E-4,3.512371797E-3,7.635590737E-4
9.493045738E0,-3.054236295E-4,3.512371797E-3,-4.581354442E-4
9.502759436E0,-3.054236295E-4,2.290677279E-3,-1.679830020E-3
9.512473915E0,-3.054236295E-4,1.068982761E-3,-2.901524538E-3
9.522187613E0,-3.054236295E-4,1.068982761E-3,-2.901524538E-3
9.531900478E0,-3.054236295E-4,2.290677279E-3,-2.901524538E-3
9.541614175E0,-3.054236295E-4,2.290677279E-3,-4.123218823E-3
9.551328655E0,-3.054236295E-4,2.290677279E-3,-4.123218823E-3
9.561042353E0,-3.054236295E-4,1.068982761E-3,-5.344913341E-3
9.570755217E0,-1.527118147E-3,1.068982761E-3,-6.566607859E-3
9.580468915E0,-1.527118147E-3,-1.527118147E-4,-6.566607859E-3
9.590183394E0,-1.527118147E-3,1.068982761E-3,-6.566607859E-3
9.599897092E0,-3.054236295E-4,2.290677279E-3,-7.788302377E-3
9.609609957E0,9.162708884E-4,3.512371797E-3,-6.566607859E-3
9.619323655E0,9.162708884E-4,3.512371797E-3,-2.901524538E-3
9.629038134E0,2.137965523E-3,-1.527118147E-4,-1.679830020E-3
9.638751832E0,3.359660041E-3,-6.261184346E-3,7.635590737E-4
9.648464696E0,2.137965523E-3,-9.926267900E-3,3.206948051E-3
9.658178394E0,3.359660041E-3,-9.926267900E-3,4.428642802E-3
9.667892873E0,2.137965523E-3,-8.704573847E-3,5.650337320E-3
9.677606571E0,2.137965523E-3,-6.261184346E-3,5.650337320E-3
9.687319436E0,-3.054236295E-4,-2.596100792E-3,4.428642802E-3
9.697033134E0,-1.527118147E-3,-1.527118147E-4,3.206948051E-3
9.706747613E0,-1.527118147E-3,-1.527118147E-4,4.428642802E-3
9.716461311E0,-3.054236295E-4,-1.374406274E-3,3.206948051E-3
9.726174123E0,-3.054236295E-4,-5.039489828E-3,1.985253533E-3
9.735887873E0,9.162708884E-4,-5.039489828E-3,1.985253533E-3
9.745602353E0,-3.054236295E-4,-1.374406274E-3,1.985253533E-3
9.755316050E0,-3.054236295E-4,2.290677279E-3,7.635590737E-4
9.765028863E0,-3.054236295E-4,5.955760833E-3,7.635590737E-4
9.774742613E0,-1.527118147E-3,5.955760833E-3,-4.581354442E-4
9.784457092E0,-1.527118147E-3,7.177455351E-3,-4.581354442E-4
9.794170790E0,-3.054236295E-4,7.177455351E-3,-1.679830020E-3
9.803883603E0,-1.527118147E-3,5.955760833E-3,-2.901524538E-3
9.813597353E0,-3.054236295E-4,4.734066315E-3,-2.901524538E-3
9.823311832E0,-3.054236295E-4,3.512371797E-3,-1.679830020E-3
9.833025530E0,9.162708884E-4,2.290677279E-3,-1.679830020E-3
9.842738394E0,9.162708884E-4,3.512371797E-3,-4.581354442E-4
9.852452092E0,2.137965523E-3,3.512371797E-3,7.635590737E-4
9.862166571E0,9.162708884E-4,4.734066315E-3,7.635590737E-4
9.871880269E0,9.162708884E-4,3.512371797E-3,1.985253533E-3
9.881593082E0,9.162708884E-4,2.290677279E-3,7.635590737E-4
9.891306832E0,9.162708884E-4,2.290677279E-3,-4.581354442E-4
9.901021311E0,-3.054236295E-4,1.068982761E-3,-1.679830020E-3
9.910735009E0,-3.054236295E-4,-1.527118147E-4,-1.679830020E-3
9.920447821E0,9.162708884E-4,-1.374406274E-3,-1.679830020E-3
9.930161571E0,3.359660041E-3,-1.374406274E-3,-1.679830020E-3
9.939876050E0,3.359660041E-3,-1.527118147E-4,-4.581354442E-4
9.949589748E0,3.359660041E-3,-1.527118147E-4,1.985253533E-3
9.959302561E0,9.162708884E-4,1.068982761E-3,1.985253533E-3
9.969016311E0,-3.054236295E-4,1.068982761E-3,1.985253533E-3
9.978730790E0,-3.054236295E-4,2.290677279E-3,7.635590737E-4
9.988444488E0,-1.527118147E-3,1.068982761E-3,-4.581354442E-4
9.998157300E0,-1.527118147E-3,1.068982761E-3,-1.679830020E-3
1.000787105E1,-2.748812549E-3,-1.527118147E-4,-2.901524538E-3
1.001758553E1,-1.527118147E-3,1.068982761E-3,-1.679830020E-3
1.002729923E1,-1.527118147E-3,-1.374406274E-3,-2.901524538E-3
1.003701204E1,-3.054236295E-4,-1.374406274E-3,-1.679830020E-3
1.004672579E1,9.162708884E-4,-2.596100792E-3,-4.581354442E-4
1.005644027E1,-3.054236295E-4,-1.374406274E-3,-4.581354442E-4
1.006615397E1,-3.054236295E-4,-1.527118147E-4,-4.581354442E-4
1.007586678E1,-1.527118147E-3,1.068982761E-3,-1.679830020E-3
1.008558053E1,-2.748812549E-3,1.068982761E-3,-2.901524538E-3
1.009529501E1,-2.748812549E-3,1.068982761E-3,-2.901524538E-3
1.010500871E1,-1.527118147E-3,-1.527118147E-4,-2.901524538E-3
1.011472152E1,-3.054236295E-4,1.068982761E-3,-1.679830020E-3
1.012443527E1,-3.054236295E-4,-1.374406274E-3,-1.679830020E-3
1.013414975E1,-3.054236295E-4,-3.817795310E-3,-1.679830020E-3
1.014386345E1,-3.054236295E-4,-3.817795310E-3,-4.581354442E-4
1.015357626E1,-1.527118147E-3,-3.817795310E-3,-1.679830020E-3
1.016329001E1,-1.527118147E-3,-1.374406274E-3,-1.679830020E-3
1.017300449E1,-3.054236295E-4,-1.527118147E-4,-1.679830020E-3
1.018271819E1,-3.054236295E-4,1.068982761E-3,-4.581354442E-4
1.019243100E1,-3.054236295E-4,-1.527118147E-4,-4.581354442E-4
1.020214475E1,-3.054236295E-4,-1.527118147E-4,-4.581354442E-4
1.021185923E1,-3.054236295E-4,1.068982761E-3,7.635590737E-4
1.022157292E1,-3.054236295E-4,2.290677279E-3,-4.581354442E-4
1.023128579E1,-1.527118147E-3,3.512371797E-3,-1.679830020E-3
1.024099949E1,-3.054236295E-4,4.734066315E-3,-4.581354442E-4
1.025071397E1,9.162708884E-4,5.955760833E-3,7.635590737E-4
1.026042766E1,9.162708884E-4,3.512371797E-3,1.985253533E-3
1.027014053E1,2.137965523E-3,-1.527118147E-4,1.985253533E-3
1.027985423E1,9.162708884E-4,-2.596100792E-3,3.206948051E-3
1.028956871E1,9.162708884E-4,-2.596100792E-3,3.206948051E-3
1.029928241E1,9.162708884E-4,-1.374406274E-3,1.985253533E-3
1.030899527E1,-3.054236295E-4,-1.527118147E-4,-4.581354442E-4
1.031870897E1,-3.054236295E-4,3.512371797E-3,-1.679830020E-3
1.032842345E1,-2.748812549E-3,5.955760833E-3,-1.679830020E-3
1.033813714E1,-2.748812549E-3,5.955760833E-3,-4.581354442E-4
1.034785001E1,-1.527118147E-3,3.512371797E-3,-4.581354442E-4
1.035756371E1,-3.054236295E-4,1.068982761E-3,-4.581354442E-4
1.036727819E1,-3.054236295E-4,1.068982761E-3,-4.581354442E-4
1.037699188E1,-1.527118147E-3,2.290677279E-3,-4.581354442E-4
1.038670475E1,-1.527118147E-3,3.512371797E-3,-4.581354442E-4
1.039641850E1,-1.527118147E-3,1.068982761E-3,-1.679830020E-3
1.040613293E1,-1.527118147E-3,-1.374406274E-3,-1.679830020E-3
1.041584662E1,-2.748812549E-3,-2.596100792E-3,-1.679830020E-3
1.042555949E1,-1.527118147E-3,-2.596100792E-3,-1.679830020E-3
1.043527324E1,-1.527118147E-3,-1.374406274E-3,-2.901524538E-3
1.044498772E1,-3.054236295E-4,1.068982761E-3,-4.123218823E-3
1.045470131E1,-1.527118147E-3,2.290677279E-3,-2.901524538E-3
1.046441423E1,-3.054236295E-4,4.734066315E-3,-4.123218823E-3
1.047412798E1,-3.054236295E-4,5.955760833E-3,-5.344913341E-3
1.048384246E1,-3.054236295E-4,5.955760833E-3,-5.344913341E-3
1.049355605E1,9.162708884E-4,3.512371797E-3,-4.123218823E-3
1.050326897E1,9.162708884E-4,-1.374406274E-3,-2.901524538E-3
1.051298272E1,9.162708884E-4,-5.039489828E-3,-1.679830020E-3
1.052269720E1,9.162708884E-4,-7.482878864E-3,-1.679830020E-3
1.053241089E1,9.162708884E-4,-5.039489828E-3,-2.901524538E-3
1.054212371E1,-3.054236295E-4,-1.374406274E-3,-2.901524538E-3
1.055183746E1,-3.054236295E-4,3.512371797E-3,-1.679830020E-3
1.056155194E1,-3.054236295E-4,4.734066315E-3,-4.581354442E-4
1.057126563E1,9.162708884E-4,2.290677279E-3,7.635590737E-4
1.058097845E1,9.162708884E-4,-1.374406274E-3,1.985253533E-3
1.059069220E1,2.137965523E-3,-6.261184346E-3,4.428642802E-3
1.060040668E1,3.359660041E-3,-6.261184346E-3,4.428642802E-3
1.061012037E1,3.359660041E-3,-5.039489828E-3,4.428642802E-3
1.061983319E1,2.137965523E-3,-1.374406274E-3,3.206948051E-3
1.062954694E1,9.162708884E-4,3.512371797E-3,4.428642802E-3
1.063926142E1,9.162708884E-4,7.177455351E-3,3.206948051E-3
1.064897511E1,9.162708884E-4,8.399149403E-3,3.206948051E-3
1.065868798E1,2.137965523E-3,5.955760833E-3,1.985253533E-3
1.066840168E1,3.359660041E-3,2.290677279E-3,1.985253533E-3
1.067811616E1,3.359660041E-3,-1.527118147E-4,1.985253533E-3
1.068782985E1,2.137965523E-3,-1.374406274E-3,7.635590737E-4
1.069754272E1,9.162708884E-4,-2.596100792E-3,1.985253533E-3
1.070725647E1,9.162708884E-4,-1.374406274E-3,7.635590737E-4
1.071697089E1,-3.054236295E-4,-1.374406274E-3,-4.581354442E-4
1.072668459E1,-3.054236295E-4,-1.374406274E-3,-4.581354442E-4
1.073639746E1,9.162708884E-4,-2.596100792E-3,-1.679830020E-3
1.074611121E1,2.137965523E-3,-2.596100792E-3,-1.679830020E-3
1.075582569E1,3.359660041E-3,-2.596100792E-3,-2.901524538E-3
1.076553928E1,3.359660041E-3,-2.596100792E-3,-4.123218823E-3
1.077525220E1,9.162708884E-4,-2.596100792E-3,-6.566607859E-3
1.078496595E1,-1.527118147E-3,-5.039489828E-3,-7.788302377E-3
1.079468043E1,-2.748812549E-3,-6.261184346E-3,-9.009997360E-3
1.080439412E1,-2.748812549E-3,-5.039489828E-3,-9.009997360E-3
1.081410694E1,-1.527118147E-3,1.068982761E-3,-9.009997360E-3
1.082382069E1,-1.527118147E-3,7.177455351E-3,-1.023169141E-2
1.083353516E1,-1.527118147E-3,1.084253844E-2,-9.009997360E-3
1.084324886E1,-2.748812549E-3,8.399149403E-3,-6.566607859E-3
1.085296168E1,-2.748812549E-3,4.734066315E-3,-4.123218823E-3
1.086267542E1,-2.748812549E-3,3.512371797E-3,-4.581354442E-4
1.087238990E1,-2.748812549E-3,-1.527118147E-4,7.635590737E-4
1.088210360E1,-3.054236295E-4,-2.596100792E-3,7.635590737E-4
1.089181642E1,-3.054236295E-4,-1.374406274E-3,1.985253533E-3
1.090153016E1,-3.054236295E-4,2.290677279E-3,7.635590737E-4
1.091124464E1,9.162708884E-4,4.734066315E-3,-4.581354442E-4
1.092095834E1,9.162708884E-4,4.734066315E-3,-4.123218823E-3
1.093067121E1,-1.527118147E-3,7.177455351E-3,-2.901524538E-3
1.094038490E1,-3.970507067E-3,1.084253844E-2,-2.901524538E-3
1.095009938E1,-5.192201585E-3,1.084253844E-2,-1.679830020E-3
1.095981308E1,-3.970507067E-3,8.399149403E-3,7.635590737E-4
1.096952595E1,-1.527118147E-3,4.734066315E-3,3.206948051E-3
1.097923970E1,-3.054236295E-4,-1.527118147E-4,6.872031838E-3
1.098895412E1,-1.527118147E-3,-3.817795310E-3,8.093725890E-3
1.099866782E1,-1.527118147E-3,-7.482878864E-3,1.053711493E-2
1.100838069E1,-1.527118147E-3,-8.704573847E-3,1.175880991E-2
1.101809444E1,-3.054236295E-4,-8.704573847E-3,1.175880991E-2
1.102780892E1,9.162708884E-4,-5.039489828E-3,1.298050396E-2
1.103752251E1,2.137965523E-3,-1.374406274E-3,1.298050396E-2
1.104723542E1,3.359660041E-3,2.290677279E-3,1.053711493E-2
1.105694918E1,3.359660041E-3,4.734066315E-3,8.093725890E-3
1.106666366E1,2.137965523E-3,5.955760833E-3,6.872031838E-3
1.107637735E1,4.581354558E-3,7.177455351E-3,5.650337320E-3
1.108609016E1,3.359660041E-3,8.399149403E-3,4.428642802E-3
1.109580392E1,2.137965523E-3,8.399149403E-3,1.985253533E-3
1.110551839E1,9.162708884E-4,8.399149403E-3,7.635590737E-4
1.111523209E1,-1.527118147E-3,4.734066315E-3,-4.581354442E-4
1.112494491E1,-2.748812549E-3,2.290677279E-3,-1.679830020E-3
1.113465866E1,-2.748812549E-3,-1.527118147E-4,-2.901524538E-3
1.114437313E1,-3.054236295E-4,-1.374406274E-3,-4.123218823E-3
1.115408683E1,9.162708884E-4,-1.374406274E-3,-4.123218823E-3
1.116379970E1,2.137965523E-3,-1.374406274E-3,-4.123218823E-3
1.117351339E1,2.137965523E-3,-1.374406274E-3,-4.123218823E-3
1.118322787E1,9.162708884E-4,-2.596100792E-3,-4.123218823E-3
1.119294157E1,9.162708884E-4,-1.527118147E-4,-2.901524538E-3
1.120265444E1,9.162708884E-4,1.068982761E-3,-2.901524538E-3
1.121236813E1,9.162708884E-4,2.290677279E-3,-4.581354442E-4
1.122208261E1,9.162708884E-4,1.068982761E-3,7.635590737E-4
1.123179631E1,-3.054236295E-4,-1.527118147E-4,7.635590737E-4
1.124150918E1,-1.527118147E-3,-1.374406274E-3,7.635590737E-4
1.125122292E1,-2.748812549E-3,-1.527118147E-4,-4.581354442E-4
1.126093740E1,-3.970507067E-3,1.068982761E-3,-4.581354442E-4
1.127065100E1,-6.413896102E-3,1.068982761E-3,-1.679830020E-3
1.128036392E1,-6.413896102E-3,2.290677279E-3,-4.581354442E-4
1.129007766E1,-3.970507067E-3,1.068982761E-3,-4.123218823E-3
1.129979214E1,-1.527118147E-3,1.068982761E-3,-5.344913341E-3
1.130950574E1,-3.054236295E-4,-1.527118147E-4,-5.344913341E-3
1.131921866E1,9.162708884E-4,-1.527118147E-4,-6.566607859E-3
1.132893241E1,2.137965523E-3,-1.527118147E-4,-6.566607859E-3
1.133864688E1,2.137965523E-3,2.290677279E-3,-5.344913341E-3
1.134836058E1,-1.527118147E-3,1.068982761E-3,-5.344913341E-3
1.135807339E1,-3.970507067E-3,1.068982761E-3,-6.566607859E-3
1.136778714E1,-3.970507067E-3,1.068982761E-3,-6.566607859E-3
1.137750162E1,-2.748812549E-3,-1.527118147E-4,-5.344913341E-3
1.138721532E1,-3.054236295E-4,-2.596100792E-3,-6.566607859E-3
1.139692813E1,2.137965523E-3,-2.596100792E-3,-4.123218823E-3
1.140664188E1,2.137965523E-3,-3.817795310E-3,-2.901524538E-3
1.141635636E1,9.162708884E-4,-2.596100792E-3,-1.679830020E-3
1.142607006E1,-1.527118147E-3,-2.596100792E-3,-2.901524538E-3
1.143578293E1,-5.192201585E-3,-1.527118147E-4,-1.679830020E-3
1.144549662E1,-5.192201585E-3,2.290677279E-3,-2.901524538E-3
1.145521110E1,-2.748812549E-3,4.734066315E-3,-4.123218823E-3
1.146492480E1,9.162708884E-4,4.734066315E-3,-4.123218823E-3
1.147463767E1,4.581354558E-3,3.512371797E-3,-2.901524538E-3
1.148435136E1,7.024743594E-3,-1.527118147E-4,-2.901524538E-3
1.149406584E1,9.468132630E-3,-2.596100792E-3,-4.123218823E-3
1.150377954E1,8.246437646E-3,-3.817795310E-3,-5.344913341E-3
1.151349241E1,8.246437646E-3,1.068982761E-3,-5.344913341E-3
1.152320616E1,5.803049076E-3,7.177455351E-3,-6.566607859E-3
1.153292058E1,2.137965523E-3,1.206423342E-2,-5.344913341E-3
1.154263428E1,-1.527118147E-3,1.206423342E-2,-5.344913341E-3
1.155234714E1,-3.970507067E-3,5.955760833E-3,-4.123218823E-3
1.156206089E1,-2.748812549E-3,-1.527118147E-4,-4.123218823E-3
1.157177537E1,-3.054236295E-4,-2.596100792E-3,-5.344913341E-3
1.158148897E1,2.137965523E-3,1.068982761E-3,-5.344913341E-3
1.159120188E1,2.137965523E-3,4.734066315E-3,-4.123218823E-3
1.160091563E1,-3.054236295E-4,4.734066315E-3,-2.901524538E-3
1.161063011E1,-3.054236295E-4,1.068982761E-3,-1.679830020E-3
1.162034381E1,-3.054236295E-4,-1.374406274E-3,1.985253533E-3
1.163005662E1,9.162708884E-4,-2.596100792E-3,3.206948051E-3
1.163977037E1,2.137965523E-3,-3.817795310E-3,3.206948051E-3
1.164948485E1,3.359660041E-3,-1.374406274E-3,3.206948051E-3
1.165919855E1,2.137965523E-3,-1.527118147E-4,1.985253533E-3
1.166891136E1,2.137965523E-3,2.290677279E-3,7.635590737E-4
1.167862511E1,2.137965523E-3,3.512371797E-3,-4.581354442E-4
1.168833959E1,2.137965523E-3,3.512371797E-3,-1.679830020E-3
1.169805329E1,9.162708884E-4,3.512371797E-3,-1.679830020E-3
1.170776610E1,-3.054236295E-4,3.512371797E-3,-4.581354442E-4
1.171747985E1,-3.054236295E-4,1.068982761E-3,-4.581354442E-4
1.172719433E1,-3.054236295E-4,-1.374406274E-3,-4.581354442E-4
1.173690803E1,-3.054236295E-4,-6.261184346E-3,1.985253533E-3
1.174662084E1,9.162708884E-4,-8.704573847E-3,1.985253533E-3
1.175633459E1,9.162708884E-4,-8.704573847E-3,3.206948051E-3
1.176604907E1,9.162708884E-4,-8.704573847E-3,5.650337320E-3
1.177576277E1,2.137965523E-3,-8.704573847E-3,6.872031838E-3
1.178547558E1,-3.054236295E-4,-7.482878864E-3,9.315420873E-3
1.179518933E1,-3.054236295E-4,-6.261184346E-3,9.315420873E-3
1.180490381E1,-3.054236295E-4,-2.596100792E-3,8.093725890E-3
1.181461751E1,9.162708884E-4,-1.527118147E-4,8.093725890E-3
1.182433032E1,9.162708884E-4,2.290677279E-3,6.872031838E-3
1.183404407E1,-3.054236295E-4,3.512371797E-3,5.650337320E-3
1.184375855E1,9.162708884E-4,3.512371797E-3,3.206948051E-3
1.185347225E1,2.137965523E-3,4.734066315E-3,7.635590737E-4
1.186318506E1,2.137965523E-3,3.512371797E-3,-1.679830020E-3
1.187289881E1,-3.054236295E-4,4.734066315E-3,-1.679830020E-3
1.188261329E1,-3.054236295E-4,3.512371797E-3,-2.901524538E-3
1.189232699E1,-1.527118147E-3,4.734066315E-3,-2.901524538E-3
1.190203980E1,-2.748812549E-3,2.290677279E-3,-1.679830020E-3
1.191175355E1,-2.748812549E-3,-1.527118147E-4,-1.679830020E-3
1.192146803E1,-2.748812549E-3,-3.817795310E-3,-1.679830020E-3
1.193118173E1,-2.748812549E-3,-3.817795310E-3,-4.123218823E-3
1.194089454E1,-1.527118147E-3,-3.817795310E-3,-2.901524538E-3
1.195060829E1,-1.527118147E-3,-2.596100792E-3,-2.901524538E-3
1.196032277E1,-3.054236295E-4,-2.596100792E-3,-4.581354442E-4
1.197003647E1,9.162708884E-4,-3.817795310E-3,7.635590737E-4
1.197974928E1,9.162708884E-4,-8.704573847E-3,7.635590737E-4
1.198946303E1,9.162708884E-4,-9.926267900E-3,7.635590737E-4
1.199917751E1,-1.527118147E-3,-9.926267900E-3,1.985253533E-3
1.200889121E1,-1.527118147E-3,-7.482878864E-3,-4.581354442E-4
1.201860402E1,-1.527118147E-3,-6.261184346E-3,-1.679830020E-3
1.202831777E1,-3.054236295E-4,-5.039489828E-3,-4.581354442E-4
1.203803225E1,-3.054236295E-4,-5.039489828E-3,-4.581354442E-4
1.204774595E1,9.162708884E-4,-5.039489828E-3,-4.581354442E-4
1.205745876E1,9.162708884E-4,-3.817795310E-3,-4.581354442E-4
1.206717251E1,9.162708884E-4,-1.374406274E-3,-4.581354442E-4
1.207688699E1,-3.054236295E-4,1.068982761E-3,-1.679830020E-3
1.208660058E1,-3.054236295E-4,3.512371797E-3,-2.901524538E-3
1.209631350E1,9.162708884E-4,4.734066315E-3,-2.901524538E-3
1.210602725E1,2.137965523E-3,3.512371797E-3,-1.679830020E-3
1.211574173E1,3.359660041E-3,1.068982761E-3,-1.679830020E-3
1.212545532E1,2.137965523E-3,-1.527118147E-4,-1.679830020E-3
1.213516824E1,2.137965523E-3,1.068982761E-3,7.635590737E-4
1.214488199E1,9.162708884E-4,3.512371797E-3,7.635590737E-4
1.215459647E1,-1.527118147E-3,4.734066315E-3,3.206948051E-3
1.216431006E1,-2.748812549E-3,4.734066315E-3,3.206948051E-3
1.217402298E1,-1.527118147E-3,4.734066315E-3,3.206948051E-3
1.218373673E1,-3.054236295E-4,4.734066315E-3,4.428642802E-3
1.219345116E1,-3.054236295E-4,3.512371797E-3,4.428642802E-3
1.220316485E1,9.162708884E-4,2.290677279E-3,4.428642802E-3
1.221287772E1,9.162708884E-4,-1.527118147E-4,1.985253533E-3
1.222259142E1,-3.054236295E-4,-1.527118147E-4,1.985253533E-3
1.223230589E1,-1.527118147E-3,-1.527118147E-4,-4.581354442E-4
1.224201959E1,-3.054236295E-4,2.290677279E-3,7.635590737E-4
1.225173246E1,-1.527118147E-3,3.512371797E-3,7.635590737E-4
1.226144616E1,-3.054236295E-4,3.512371797E-3,7.635590737E-4
1.227116063E1,9.162708884E-4,2.290677279E-3,3.206948051E-3
1.228087433E1,9.162708884E-4,1.068982761E-3,3.206948051E-3
1.229058714E1,2.137965523E-3,-1.527118147E-4,4.428642802E-3
1.230030089E1,3.359660041E-3,-2.596100792E-3,5.650337320E-3
1.231001537E1,3.359660041E-3,-3.817795310E-3,5.650337320E-3
1.231972907E1,4.581354558E-3,-3.817795310E-3,4.428642802E-3
1.232944188E1,7.024743594E-3,-5.039489828E-3,3.206948051E-3
1.233915563E1,7.024743594E-3,-5.039489828E-3,3.206948051E-3
1.234887011E1,7.024743594E-3,-3.817795310E-3,3.206948051E-3
1.235858371E1,5.803049076E-3,-2.596100792E-3,3.206948051E-3
1.236829662E1,5.803049076E-3,-2.596100792E-3,3.206948051E-3
1.237801037E1,2.137965523E-3,-3.817795310E-3,1.985253533E-3
1.238772485E1,-3.054236295E-4,-5.039489828E-3,1.985253533E-3
1.239743845E1,-2.748812549E-3,-5.039489828E-3,7.635590737E-4
1.240715136E1,-2.748812549E-3,-2.596100792E-3,7.635590737E-4
1.241686506E1,-1.527118147E-3,-1.374406274E-3,-4.581354442E-4
1.242657954E1,-3.054236295E-4,-1.374406274E-3,-1.679830020E-3
1.243629324E1,9.162708884E-4,-1.527118147E-4,-1.679830020E-3
1.244600610E1,9.162708884E-4,1.068982761E-3,-1.679830020E-3
1.245571980E1,9.162708884E-4,2.290677279E-3,-4.581354442E-4
1.246543428E1,9.162708884E-4,2.290677279E-3,7.635590737E-4
1.247514798E1,-3.054236295E-4,1.068982761E-3,7.635590737E-4
1.248486079E1,9.162708884E-4,-1.527118147E-4,7.635590737E-4
1.249457454E1,9.162708884E-4,-1.527118147E-4,7.635590737E-4
1.250428902E1,9.162708884E-4,-1.374406274E-3,1.985253533E-3
1.251400272E1,9.162708884E-4,-2.596100792E-3,-4.581354442E-4
1.252371553E1,-3.054236295E-4,-2.596100792E-3,7.635590737E-4
1.253342928E1,-1.527118147E-3,-2.596100792E-3,-4.581354442E-4
1.254314376E1,-2.748812549E-3,-1.374406274E-3,-1.679830020E-3
1.255285735E1,-1.527118147E-3,1.068982761E-3,-1.679830020E-3
1.256257027E1,-1.527118147E-3,2.290677279E-3,-1.679830020E-3
1.257228402E1,-3.054236295E-4,1.068982761E-3,-1.679830020E-3
1.258199845E1,-3.054236295E-4,-1.527118147E-4,7.635590737E-4
1.259171214E1,9.162708884E-4,-1.374406274E-3,1.985253533E-3
1.260142501E1,9.162708884E-4,-3.817795310E-3,1.985253533E-3
1.261113871E1,-3.054236295E-4,-5.039489828E-3,3.206948051E-3
1.262085319E1,-1.527118147E-3,-5.039489828E-3,1.985253533E-3
1.263056688E1,-2.748812549E-3,-2.596100792E-3,1.985253533E-3
1.264027970E1,-1.527118147E-3,1.068982761E-3,1.985253533E-3
1.264999345E1,-3.054236295E-4,2.290677279E-3,7.635590737E-4
1.265970793E1,2.137965523E-3,2.290677279E-3,-1.679830020E-3
1.266942152E1,2.137965523E-3,-1.374406274E-3,-4.581354442E-4
1.267913444E1,3.359660041E-3,-2.596100792E-3,-4.581354442E-4
1.268884819E1,2.137965523E-3,-3.817795310E-3,7.635590737E-4
1.269856261E1,9.162708884E-4,-3.817795310E-3,7.635590737E-4
1.270827631E1,9.162708884E-4,-3.817795310E-3,-4.581354442E-4
1.271798918E1,9.162708884E-4,1.068982761E-3,-1.679830020E-3
1.272770287E1,-1.527118147E-3,4.734066315E-3,-1.679830020E-3
1.273741735E1,-2.748812549E-3,5.955760833E-3,-2.901524538E-3
1.274713105E1,-3.970507067E-3,4.734066315E-3,-2.901524538E-3
1.275684386E1,-3.970507067E-3,1.068982761E-3,-2.901524538E-3
1.276655761E1,-3.970507067E-3,-2.596100792E-3,-2.901524538E-3
1.277627209E1,-2.748812549E-3,-1.527118147E-4,-4.581354442E-4
1.278598569E1,-2.748812549E-3,2.290677279E-3,7.635590737E-4
1.279569860E1,-1.527118147E-3,2.290677279E-3,1.985253533E-3
1.280541235E1,-3.054236295E-4,-1.527118147E-4,3.206948051E-3
1.281512678E1,9.162708884E-4,-1.374406274E-3,3.206948051E-3
1.282484048E1,-3.054236295E-4,-1.374406274E-3,3.206948051E-3
1.283455334E1,-3.054236295E-4,-2.596100792E-3,1.985253533E-3
1.284426704E1,-3.054236295E-4,-1.374406274E-3,7.635590737E-4
1.285398152E1,-1.527118147E-3,1.068982761E-3,7.635590737E-4
1.286369522E1,9.162708884E-4,2.290677279E-3,-4.581354442E-4
1.287340803E1,2.137965523E-3,3.512371797E-3,1.985253533E-3
1.288312178E1,2.137965523E-3,2.290677279E-3,1.985253533E-3
1.289283626E1,2.137965523E-3,1.068982761E-3,1.985253533E-3
1.290254985E1,2.137965523E-3,-1.527118147E-4,1.985253533E-3
1.291226277E1,3.359660041E-3,-1.527118147E-4,1.985253533E-3
1.292197652E1,4.581354558E-3,1.068982761E-3,4.428642802E-3
1.293169095E1,4.581354558E-3,1.068982761E-3,4.428642802E-3
1.294140464E1,3.359660041E-3,1.068982761E-3,3.206948051E-3
1.295111751E1,2.137965523E-3,1.068982761E-3,4.428642802E-3
1.296083121E1,2.137965523E-3,-1.374406274E-3,3.206948051E-3
1.297054569E1,2.137965523E-3,-2.596100792E-3,3.206948051E-3
1.298025938E1,2.137965523E-3,-3.817795310E-3,4.428642802E-3
1.298997220E1,9.162708884E-4,-1.374406274E-3,5.650337320E-3
1.299968595E1,-3.054236295E-4,-1.527118147E-4,3.206948051E-3
1.300940042E1,-3.054236295E-4,1.068982761E-3,1.985253533E-3
1.301911402E1,-3.054236295E-4,3.512371797E-3,1.985253533E-3
1.302882694E1,9.162708884E-4,3.512371797E-3,1.985253533E-3
1.303854063E1,2.137965523E-3,3.512371797E-3,-4.581354442E-4
1.304825511E1,2.137965523E-3,2.290677279E-3,-4.581354442E-4
1.305796881E1,2.137965523E-3,1.068982761E-3,-4.581354442E-4
1.306768162E1,9.162708884E-4,-1.527118147E-4,-4.581354442E-4
1.307739537E1,-3.054236295E-4,-1.527118147E-4,-1.679830020E-3
1.308710985E1,-1.527118147E-3,-1.527118147E-4,-1.679830020E-3
1.309682345E1,-2.748812549E-3,1.068982761E-3,-2.901524538E-3
1.310653636E1,-2.748812549E-3,1.068982761E-3,-2.901524538E-3
1.311625011E1,-2.748812549E-3,2.290677279E-3,-2.901524538E-3
1.312596454E1,-3.054236295E-4,2.290677279E-3,-4.123218823E-3
1.313567824E1,-1.527118147E-3,-1.374406274E-3,-4.123218823E-3
1.314539105E1,-1.527118147E-3,-2.596100792E-3,-2.901524538E-3
1.315510480E1,-1.527118147E-3,-2.596100792E-3,-2.901524538E-3
1.316481928E1,-1.527118147E-3,-2.596100792E-3,-2.901524538E-3
1.317453287E1,-2.748812549E-3,-2.596100792E-3,-2.901524538E-3
1.318424579E1,-2.748812549E-3,-1.374406274E-3,-2.901524538E-3
1.319395954E1,-2.748812549E-3,-1.374406274E-3,-2.901524538E-3
1.320367397E1,-3.970507067E-3,-5.039489828E-3,-2.901524538E-3
1.321338766E1,-5.192201585E-3,-1.114796288E-2,-5.344913341E-3
1.322310048E1,-6.413896102E-3,-1.481304597E-2,-5.344913341E-3
1.323281423E1,-7.635590620E-3,-1.969982497E-2,-5.344913341E-3
1.324252871E1,-7.635590620E-3,-1.969982497E-2,-4.123218823E-3
1.325224230E1,-5.192201585E-3,-1.603474095E-2,-2.901524538E-3
1.326195522E1,-2.748812549E-3,-1.114796288E-2,-4.581354442E-4
1.327166897E1,-3.054236295E-4,-5.039489828E-3,3.206948051E-3
1.328138339E1,9.162708884E-4,-1.374406274E-3,3.206948051E-3
1.329109709E1,-3.054236295E-4,-1.527118147E-4,3.206948051E-3
1.330080991E1,-3.054236295E-4,1.068982761E-3,3.206948051E-3
1.331052366E1,-1.527118147E-3,2.290677279E-3,-4.581354442E-4
1.332023813E1,-2.748812549E-3,4.734066315E-3,-4.581354442E-4
1.332995173E1,-3.970507067E-3,4.734066315E-3,-4.581354442E-4
1.333966464E1,-3.970507067E-3,1.068982761E-3,7.635590737E-4
1.334937839E1,-2.748812549E-3,-1.527118147E-4,7.635590737E-4
1.335909282E1,-1.527118147E-3,-1.374406274E-3,7.635590737E-4
1.336880652E1,-1.527118147E-3,1.068982761E-3,7.635590737E-4
1.337851933E1,-3.054236295E-4,3.512371797E-3,7.635590737E-4
1.338823308E1,-1.527118147E-3,4.734066315E-3,7.635590737E-4
1.339794756E1,-1.527118147E-3,3.512371797E-3,7.635590737E-4
1.340766116E1,-2.748812549E-3,2.290677279E-3,-4.581354442E-4
1.341737407E1,-3.970507067E-3,1.068982761E-3,-2.901524538E-3
1.342708777E1,-5.192201585E-3,1.068982761E-3,-4.123218823E-3
1.343680225E1,-3.970507067E-3,1.068982761E-3,-4.123218823E-3
1.344651595E1,-3.970507067E-3,2.290677279E-3,-4.123218823E-3
1.345622876E1,-1.527118147E-3,2.290677279E-3,-6.566607859E-3
1.346594251E1,-2.748812549E-3,3.512371797E-3,-5.344913341E-3
1.347565699E1,-2.748812549E-3,2.290677279E-3,-5.344913341E-3
1.348537058E1,-2.748812549E-3,1.068982761E-3,-4.123218823E-3
1.349508350E1,-2.748812549E-3,-1.527118147E-4,-2.901524538E-3
1.350479720E1,9.162708884E-4,-1.374406274E-3,-2.901524538E-3
1.351451168E1,9.162708884E-4,-2.596100792E-3,-1.679830020E-3
1.352422537E1,9.162708884E-4,-2.596100792E-3,-2.901524538E-3
1.353393819E1,-3.054236295E-4,-2.596100792E-3,-1.679830020E-3
1.354365194E1,-3.054236295E-4,-1.374406274E-3,-1.679830020E-3
1.355336642E1,9.162708884E-4,-1.527118147E-4,7.635590737E-4
1.356308001E1,9.162708884E-4,-1.374406274E-3,7.635590737E-4
1.357279293E1,-3.054236295E-4,-1.374406274E-3,1.985253533E-3
1.358250662E1,-1.527118147E-3,-1.527118147E-4,3.206948051E-3
1.359222110E1,-2.748812549E-3,1.068982761E-3,1.985253533E-3
1.360193480E1,-1.527118147E-3,2.290677279E-3,1.985253533E-3
1.361164761E1,-3.054236295E-4,4.734066315E-3,1.985253533E-3
1.362136136E1,2.137965523E-3,4.734066315E-3,7.635590737E-4
1.363107579E1,2.137965523E-3,3.512371797E-3,7.635590737E-4
1.364078949E1,2.137965523E-3,2.290677279E-3,7.635590737E-4
1.365050230E1,2.137965523E-3,1.068982761E-3,7.635590737E-4
1.366021605E1,9.162708884E-4,1.068982761E-3,1.985253533E-3
1.366993053E1,-3.054236295E-4,-1.527118147E-4,1.985253533E-3
1.367964423E1,-1.527118147E-3,-1.527118147E-4,1.985253533E-3
1.368935704E1,-2.748812549E-3,1.068982761E-3,1.985253533E-3
1.369907079E1,-1.527118147E-3,2.290677279E-3,1.985253533E-3
1.370878522E1,-3.054236295E-4,2.290677279E-3,7.635590737E-4
1.371849892E1,-3.054236295E-4,-1.527118147E-4,-1.679830020E-3
1.372821173E1,9.162708884E-4,-1.527118147E-4,-2.901524538E-3
1.373792548E1,9.162708884E-4,-1.374406274E-3,-4.123218823E-3
1.374763996E1,-3.054236295E-4,-2.596100792E-3,-2.901524538E-3
1.375735355E1,-3.054236295E-4,-1.374406274E-3,-4.123218823E-3
1.376706647E1,-1.527118147E-3,-1.527118147E-4,-4.123218823E-3
1.377678022E1,-2.748812549E-3,-1.374406274E-3,-1.679830020E-3
1.378649464E1,-2.748812549E-3,-1.374406274E-3,-1.679830020E-3
1.379620834E1,-2.748812549E-3,-1.374406274E-3,-4.581354442E-4
1.380592116E1,-2.748812549E-3,-2.596100792E-3,7.635590737E-4
1.381563491E1,-3.054236295E-4,-3.817795310E-3,1.985253533E-3
1.382534938E1,-3.054236295E-4,-3.817795310E-3,3.206948051E-3
1.383506298E1,9.162708884E-4,-3.817795310E-3,1.985253533E-3
1.384477589E1,2.137965523E-3,-3.817795310E-3,1.985253533E-3
1.385448959E1,2.137965523E-3,-1.374406274E-3,1.985253533E-3
1.386420407E1,2.137965523E-3,-1.527118147E-4,1.985253533E-3
1.387391777E1,2.137965523E-3,1.068982761E-3,7.635590737E-4
1.388363058E1,-3.054236295E-4,1.068982761E-3,-4.581354442E-4
1.389334433E1,-2.748812549E-3,-1.527118147E-4,7.635590737E-4
1.390305881E1,-5.192201585E-3,-1.527118147E-4,1.985253533E-3
1.391277240E1,-3.970507067E-3,-1.374406274E-3,1.985253533E-3
1.392248532E1,-3.970507067E-3,-3.817795310E-3,7.635590737E-4
1.393219902E1,-2.748812549E-3,-1.374406274E-3,7.635590737E-4
1.394191350E1,-2.748812549E-3,1.068982761E-3,-4.581354442E-4
1.395162720E1,-1.527118147E-3,4.734066315E-3,-2.901524538E-3
1.396134001E1,-3.054236295E-4,5.955760833E-3,-4.123218823E-3
1.397105376E1,-3.054236295E-4,4.734066315E-3,-2.901524538E-3
1.398076819E1,9.162708884E-4,4.734066315E-3,-4.123218823E-3
1.399048188E1,-3.054236295E-4,2.290677279E-3,-2.901524538E-3
1.400019470E1,-2.748812549E-3,1.068982761E-3,-2.901524538E-3
1.400990845E1,-2.748812549E-3,1.068982761E-3,-1.679830020E-3
1.401962292E1,-2.748812549E-3,-1.527118147E-4,-1.679830020E-3
1.402933662E1,-1.527118147E-3,1.068982761E-3,-4.581354442E-4
1.403904944E1,-1.527118147E-3,1.068982761E-3,7.635590737E-4
1.404876319E1,-3.054236295E-4,2.290677279E-3,-4.581354442E-4
1.405847761E1,-3.054236295E-4,3.512371797E-3,-1.679830020E-3
1.406819131E1,9.162708884E-4,2.290677279E-3,-1.679830020E-3
1.407790412E1,2.137965523E-3,1.068982761E-3,-4.581354442E-4
1.408761787E1,2.137965523E-3,-1.527118147E-4,7.635590737E-4
1.409733235E1,2.137965523E-3,-1.374406274E-3,7.635590737E-4
1.410704595E1,9.162708884E-4,-1.374406274E-3,7.635590737E-4
1.411675886E1,-3.054236295E-4,-1.374406274E-3,7.635590737E-4
1.412647261E1,-3.054236295E-4,-2.596100792E-3,7.635590737E-4
1.413618704E1,-3.054236295E-4,-2.596100792E-3,7.635590737E-4
1.414590074E1,-3.054236295E-4,-3.817795310E-3,7.635590737E-4
1.415561355E1,-3.054236295E-4,-2.596100792E-3,-4.581354442E-4
1.416532730E1,-3.054236295E-4,-1.374406274E-3,-4.581354442E-4
1.417504178E1,-3.054236295E-4,-1.527118147E-4,-4.581354442E-4
1.418475537E1,-3.054236295E-4,1.068982761E-3,-1.679830020E-3
1.419446829E1,-1.527118147E-3,1.068982761E-3,-1.679830020E-3
1.420418199E1,-1.527118147E-3,2.290677279E-3,-1.679830020E-3
1.421389647E1,-1.527118147E-3,2.290677279E-3,-2.901524538E-3
1.422361016E1,-1.527118147E-3,1.068982761E-3,-2.901524538E-3
1.423332298E1,-2.748812549E-3,-1.527118147E-4,-2.901524538E-3
1.424303673E1,-3.054236295E-4,1.068982761E-3,-2.901524538E-3
1.425275121E1,-1.527118147E-3,1.068982761E-3,-2.901524538E-3
1.426246480E1,-3.054236295E-4,2.290677279E-3,-2.901524538E-3
1.427217772E1,-3.054236295E-4,3.512371797E-3,-5.344913341E-3
1.428189142E1,-1.527118147E-3,2.290677279E-3,-6.566607859E-3
1.429160589E1,-1.527118147E-3,1.068982761E-3,-7.788302377E-3
1.430131949E1,-1.527118147E-3,-1.374406274E-3,-7.788302377E-3
1.431103240E1,-1.527118147E-3,-1.374406274E-3,-9.009997360E-3
1.432074616E1,-3.054236295E-4,-5.039489828E-3,-6.566607859E-3
1.433046058E1,9.162708884E-4,-8.704573847E-3,-2.901524538E-3
1.434017428E1,3.359660041E-3,-1.359135192E-2,7.635590737E-4
1.434988709E1,3.359660041E-3,-1.847812906E-2,3.206948051E-3
1.435960084E1,2.137965523E-3,-1.969982497E-2,5.650337320E-3
1.436931532E1,-2.748812549E-3,-1.725643501E-2,5.650337320E-3
1.437902892E1,-5.192201585E-3,-1.359135192E-2,4.428642802E-3
1.438874183E1,-5.192201585E-3,-8.704573847E-3,3.206948051E-3
1.439845553E1,-1.527118147E-3,-3.817795310E-3,1.985253533E-3
1.440817001E1,2.137965523E-3,1.068982761E-3,1.985253533E-3
1.441788371E1,5.803049076E-3,1.068982761E-3,7.635590737E-4
1.442759652E1,5.803049076E-3,-1.374406274E-3,7.635590737E-4
1.443731027E1,4.581354558E-3,-5.039489828E-3,1.985253533E-3
1.444702475E1,2.137965523E-3,-6.261184346E-3,1.985253533E-3
1.445673834E1,-3.054236295E-4,-5.039489828E-3,3.206948051E-3
1.446645126E1,-1.527118147E-3,-1.374406274E-3,3.206948051E-3
1.447616496E1,-2.748812549E-3,3.512371797E-3,4.428642802E-3
1.448587944E1,-1.527118147E-3,3.512371797E-3,5.650337320E-3
1.449559303E1,-1.527118147E-3,1.068982761E-3,4.428642802E-3
1.450530595E1,-3.054236295E-4,-1.374406274E-3,3.206948051E-3
1.451501970E1,-3.054236295E-4,-1.527118147E-4,3.206948051E-3
1.452473412E1,-3.054236295E-4,3.512371797E-3,3.206948051E-3
1.453444782E1,9.162708884E-4,5.955760833E-3,3.206948051E-3
1.454416063E1,-3.054236295E-4,4.734066315E-3,3.206948051E-3
1.455387438E1,-3.054236295E-4,2.290677279E-3,1.985253533E-3
1.456358886E1,-1.527118147E-3,1.068982761E-3,7.635590737E-4
1.457330246E1,-1.527118147E-3,2.290677279E-3,-1.679830020E-3
1.458301537E1,-2.748812549E-3,2.290677279E-3,-2.901524538E-3
1.459272907E1,-1.527118147E-3,3.512371797E-3,-4.123218823E-3
1.460244355E1,-3.054236295E-4,4.734066315E-3,-4.123218823E-3
1.461215725E1,9.162708884E-4,4.734066315E-3,-5.344913341E-3
1.462187006E1,9.162708884E-4,5.955760833E-3,-4.123218823E-3
1.463158381E1,-1.527118147E-3,5.955760833E-3,-2.901524538E-3
1.464129824E1,-2.748812549E-3,4.734066315E-3,-2.901524538E-3
1.465101194E1,-3.970507067E-3,2.290677279E-3,-2.901524538E-3
1.466072475E1,-1.527118147E-3,1.068982761E-3,-4.123218823E-3
1.467043850E1,9.162708884E-4,1.068982761E-3,-4.123218823E-3
1.468015298E1,-3.054236295E-4,2.290677279E-3,-5.344913341E-3
1.468986657E1,-3.054236295E-4,3.512371797E-3,-5.344913341E-3
1.469957949E1,-1.527118147E-3,3.512371797E-3,-6.566607859E-3
1.470929319E1,-1.527118147E-3,3.512371797E-3,-5.344913341E-3
1.471900767E1,-2.748812549E-3,2.290677279E-3,-2.901524538E-3
1.472872136E1,-3.970507067E-3,1.068982761E-3,-2.901524538E-3
1.473843418E1,-3.970507067E-3,-1.527118147E-4,-2.901524538E-3
1.474814793E1,-2.748812549E-3,-1.527118147E-4,-1.679830020E-3
1.475786241E1,-2.748812549E-3,1.068982761E-3,-1.679830020E-3
1.476757600E1,-3.970507067E-3,3.512371797E-3,-2.901524538E-3
1.477728892E1,-3.970507067E-3,7.177455351E-3,-5.344913341E-3
1.478700261E1,-3.970507067E-3,8.399149403E-3,-6.566607859E-3
1.479671709E1,-3.970507067E-3,8.399149403E-3,-6.566607859E-3
1.480643079E1,-2.748812549E-3,4.734066315E-3,-4.123218823E-3
1.481614360E1,-2.748812549E-3,1.068982761E-3,-1.679830020E-3
1.482585735E1,-1.527118147E-3,-1.527118147E-4,-4.581354442E-4
1.483557178E1,9.162708884E-4,1.068982761E-3,7.635590737E-4
1.484528548E1,-3.054236295E-4,1.068982761E-3,7.635590737E-4
1.485499829E1,-3.054236295E-4,2.290677279E-3,7.635590737E-4
1.486471204E1,-3.054236295E-4,5.955760833E-3,7.635590737E-4
1.487442652E1,-2.748812549E-3,3.512371797E-3,7.635590737E-4
1.488414011E1,-2.748812549E-3,2.290677279E-3,7.635590737E-4
1.489385303E1,-2.748812549E-3,-1.374406274E-3,1.985253533E-3
1.490356673E1,-1.527118147E-3,-3.817795310E-3,3.206948051E-3
1.491328121E1,-3.054236295E-4,-5.039489828E-3,1.985253533E-3
1.492299491E1,-3.054236295E-4,-6.261184346E-3,1.985253533E-3
1.493270772E1,-1.527118147E-3,-5.039489828E-3,1.985253533E-3
1.494242147E1,-2.748812549E-3,-2.596100792E-3,7.635590737E-4
1.495213595E1,-2.748812549E-3,-1.527118147E-4,-4.581354442E-4
1.496184954E1,-1.527118147E-3,2.290677279E-3,-4.581354442E-4
1.497156246E1,-3.054236295E-4,1.068982761E-3,-4.581354442E-4
1.498127616E1,9.162708884E-4,-1.527118147E-4,-1.679830020E-3
1.499099063E1,-3.054236295E-4,-1.374406274E-3,-2.901524538E-3
1.500070433E1,9.162708884E-4,-2.596100792E-3,-2.901524538E-3
1.501041714E1,-3.054236295E-4,-2.596100792E-3,-1.679830020E-3
1.502013089E1,-3.054236295E-4,-1.374406274E-3,-2.901524538E-3
1.502984532E1,-1.527118147E-3,-1.527118147E-4,-2.901524538E-3
1.503955902E1,-3.054236295E-4,1.068982761E-3,-2.901524538E-3
1.504927183E1,9.162708884E-4,2.290677279E-3,-1.679830020E-3
1.505898558E1,2.137965523E-3,2.290677279E-3,-1.679830020E-3
