"Time (s)","Gyroscope x (rad/s)","Gyroscope y (rad/s)","Gyroscope z (rad/s)"
1.606620940E-1,-8.551862091E-3,3.054236295E-3,3.206948051E-3
1.703756350E-1,-3.665083554E-3,1.160609815E-2,4.428642802E-3
1.800899060E-1,3.665083554E-3,1.038440317E-2,3.206948051E-3
1.898032920E-1,7.330167107E-3,4.275931045E-3,1.985253533E-3
1.995160000E-1,3.665083554E-3,3.054236295E-3,3.206948051E-3
2.092294380E-1,-2.443389036E-3,9.162709117E-3,4.428642802E-3
2.189437600E-1,-6.108472589E-3,1.038440317E-2,5.650337320E-3
2.286571460E-1,-0.000000000E0,6.108472589E-4,3.206948051E-3
2.383698540E-1,7.330167107E-3,-1.160609815E-2,1.985253533E-3
2.480832920E-1,1.099525020E-2,-1.038440317E-2,-2.901524538E-3
2.577976150E-1,6.108472589E-3,-6.108472589E-4,-7.788302377E-3
2.675110520E-1,-6.108472589E-3,-1.832541777E-3,-6.566607859E-3
2.772237080E-1,-1.221694518E-2,-6.719320081E-3,-2.901524538E-3
2.869371460E-1,-1.099525020E-2,-3.054236295E-3,-1.679830020E-3
2.966514690E-1,-6.108472589E-3,1.832541777E-3,-2.901524538E-3
3.063649060E-1,-3.665083554E-3,-4.275931045E-3,-5.344913341E-3
3.160775630E-1,-3.665083554E-3,-1.038440317E-2,-5.344913341E-3
3.257911040E-1,-2.443389036E-3,-5.497625098E-3,-4.123218823E-3
3.355053230E-1,-2.443389036E-3,-6.719320081E-3,-1.679830020E-3
3.452187600E-1,-4.886778072E-3,-7.941014133E-3,7.635590737E-4
3.549314170E-1,2.443389036E-3,1.832541777E-3,1.985253533E-3
3.646449580E-1,1.221694518E-2,1.282779220E-2,-1.679830020E-3
3.743591770E-1,1.832541823E-2,1.771457121E-2,-9.009997360E-3
3.840726150E-1,7.330167107E-3,9.162709117E-3,-1.023169141E-2
3.937852710E-1,-4.886778072E-3,-1.832541777E-3,-4.123218823E-3
4.034988130E-1,-1.221694518E-2,-4.275931045E-3,-1.679830020E-3
4.132130310E-1,-1.099525020E-2,6.108472589E-4,-2.901524538E-3
4.229264690E-1,-6.108472589E-3,-6.719320081E-3,-4.581354442E-4
4.326391250E-1,3.665083554E-3,-6.108472589E-4,4.428642802E-3
4.423526670E-1,6.108472589E-3,1.038440317E-2,4.428642802E-3
4.520668850E-1,2.443389036E-3,1.649287529E-2,1.985253533E-3
4.617803230E-1,-7.330167107E-3,7.941014133E-3,3.206948051E-3
4.714929790E-1,-1.221694518E-2,-6.108472589E-4,5.650337320E-3
4.812065210E-1,-6.108472589E-3,-6.719320081E-3,4.428642802E-3
4.909207400E-1,1.221694518E-3,-9.162709117E-3,1.985253533E-3
5.006341770E-1,6.108472589E-3,3.054236295E-3,-2.901524538E-3
5.103468330E-1,6.108472589E-3,2.015795931E-2,-5.344913341E-3
5.200603750E-1,1.221694518E-3,2.748812735E-2,-6.566607859E-3
5.297745940E-1,-4.886778072E-3,1.771457121E-2,-5.344913341E-3
5.394880310E-1,-8.551862091E-3,-1.832541777E-3,7.635590737E-4
5.492006880E-1,-1.221694518E-3,-1.282779220E-2,4.428642802E-3
5.589141250E-1,4.886778072E-3,-1.282779220E-2,4.428642802E-3
5.686284480E-1,3.665083554E-3,-6.108472589E-4,7.635590737E-4
5.783418850E-1,-4.886778072E-3,1.649287529E-2,-4.123218823E-3
5.880545420E-1,-1.343864016E-2,1.771457121E-2,-4.123218823E-3
5.977679790E-1,-1.588202827E-2,1.038440317E-2,-1.679830020E-3
6.074823020E-1,-1.221694518E-2,1.832541777E-3,-4.581354442E-4
6.171956880E-1,-6.108472589E-3,-1.038440317E-2,1.985253533E-3
6.269083960E-1,-7.330167107E-3,-2.015795931E-2,4.428642802E-3
6.366218330E-1,-8.551862091E-3,-7.941014133E-3,3.206948051E-3
6.463361560E-1,-8.551862091E-3,3.054236295E-3,-2.901524538E-3
6.560495420E-1,-7.330167107E-3,-6.108472589E-4,-6.566607859E-3
6.657622500E-1,-6.108472589E-3,-1.038440317E-2,-1.679830020E-3
6.754756880E-1,-6.108472589E-3,-1.771457121E-2,5.650337320E-3
6.851900100E-1,-9.773556143E-3,-2.015795931E-2,9.315420873E-3
6.949033960E-1,-8.551862091E-3,-1.404948719E-2,9.315420873E-3
7.046161040E-1,2.443389036E-3,-1.038440317E-2,1.985253533E-3
7.143295420E-1,1.343864016E-2,-2.015795931E-2,-9.009997360E-3
7.240438650E-1,1.588202827E-2,-3.115320951E-2,-1.511846948E-2
7.337572500E-1,8.551862091E-3,-2.870982140E-2,-1.511846948E-2
7.434699580E-1,-0.000000000E0,-6.719320081E-3,-1.267508045E-2
7.531833960E-1,-2.443389036E-3,1.038440317E-2,-1.389677543E-2
7.628977190E-1,-2.443389036E-3,3.054236295E-3,-1.145338640E-2
7.726111040E-1,1.221694518E-3,-7.941014133E-3,-6.566607859E-3
7.823238130E-1,1.221694518E-3,-4.275931045E-3,-4.123218823E-3
7.920372500E-1,-1.221694518E-3,5.497625098E-3,-2.901524538E-3
8.017515730E-1,-6.108472589E-3,5.497625098E-3,-2.901524538E-3
8.114649580E-1,-7.330167107E-3,9.162709117E-3,-4.581354442E-4
8.211776150E-1,-4.886778072E-3,2.015795931E-2,7.635590737E-4
8.308911560E-1,-1.221694518E-3,6.719320081E-3,-4.581354442E-4
8.406054270E-1,1.221694518E-3,-1.527118124E-2,3.206948051E-3
8.503188130E-1,6.108472589E-3,-9.162709117E-3,6.872031838E-3
8.600315210E-1,1.099525020E-2,1.282779220E-2,4.428642802E-3
8.697449580E-1,1.099525020E-2,2.260134928E-2,-1.679830020E-3
8.794592810E-1,6.108472589E-3,2.748812735E-2,-7.788302377E-3
8.891726670E-1,1.221694518E-3,2.748812735E-2,-1.023169141E-2
8.988853750E-1,-6.108472589E-3,1.832541777E-3,-6.566607859E-3
9.085988130E-1,-1.099525020E-2,-2.870982140E-2,3.206948051E-3
9.183131350E-1,-9.773556143E-3,-2.260134928E-2,1.175880991E-2
9.280265210E-1,-6.108472589E-3,6.108472589E-4,1.298050396E-2
9.377392290E-1,-2.443389036E-3,1.771457121E-2,9.315420873E-3
9.474526670E-1,4.886778072E-3,2.626643144E-2,3.206948051E-3
9.571669900E-1,9.773556143E-3,2.015795931E-2,-2.901524538E-3
9.668803750E-1,4.886778072E-3,-1.832541777E-3,-6.566607859E-3
9.765930830E-1,-0.000000000E0,-1.893626526E-2,-1.679830020E-3
9.863065210E-1,-1.221694518E-3,-1.771457121E-2,1.985253533E-3
9.960208440E-1,-3.665083554E-3,-1.832541777E-3,-1.679830020E-3
1.005734281E0,-4.886778072E-3,1.038440317E-2,-4.123218823E-3
1.015446938E0,-1.221694518E-3,1.893626526E-2,-5.344913341E-3
1.025160479E0,2.443389036E-3,2.260134928E-2,-6.566607859E-3
1.034874698E0,1.221694518E-3,9.162709117E-3,-7.788302377E-3
1.044588135E0,-0.000000000E0,-1.160609815E-2,-2.901524538E-3
1.054300792E0,1.221694518E-3,-1.404948719E-2,7.635590737E-4
1.064014333E0,2.443389036E-3,-6.719320081E-3,7.635590737E-4
1.073728552E0,-0.000000000E0,6.108472589E-4,1.985253533E-3
1.083441990E0,-1.221694518E-3,9.162709117E-3,4.428642802E-3
1.093154646E0,-0.000000000E0,6.719320081E-3,5.650337320E-3
1.102868188E0,1.221694518E-3,-1.832541777E-3,4.428642802E-3
1.112582458E0,1.221694518E-3,-6.719320081E-3,3.206948051E-3
1.122295844E0,-2.443389036E-3,-5.497625098E-3,-4.581354442E-4
1.132008552E0,-8.551862091E-3,-7.941014133E-3,-4.581354442E-4
1.141721990E0,-1.099525020E-2,-9.162709117E-3,-1.679830020E-3
1.151436313E0,-6.108472589E-3,-1.832541777E-3,-4.581354442E-4
1.161149750E0,-2.443389036E-3,-6.108472589E-4,1.985253533E-3
1.170862406E0,-1.221694518E-3,-5.497625098E-3,4.428642802E-3
1.180575948E0,-2.443389036E-3,-6.108472589E-4,3.206948051E-3
1.190290219E0,-2.443389036E-3,5.497625098E-3,-1.679830020E-3
1.200003604E0,-6.108472589E-3,6.108472589E-4,-2.901524538E-3
1.209716313E0,-1.221694518E-2,-6.719320081E-3,-2.901524538E-3
1.219429750E0,-1.343864016E-2,1.832541777E-3,-1.679830020E-3
1.229144073E0,-3.665083554E-3,1.404948719E-2,-5.344913341E-3
1.238857510E0,6.108472589E-3,1.038440317E-2,-5.344913341E-3
1.248570167E0,9.773556143E-3,-4.275931045E-3,-4.123218823E-3
1.258283708E0,6.108472589E-3,-1.160609815E-2,-1.679830020E-3
1.267997979E0,-0.000000000E0,-4.275931045E-3,1.985253533E-3
1.277711365E0,-3.665083554E-3,1.832541777E-3,7.635590737E-4
1.287424073E0,-6.108472589E-3,3.054236295E-3,-4.581354442E-4
1.297137510E0,-2.443389036E-3,1.282779220E-2,-4.581354442E-4
1.306851833E0,2.443389036E-3,1.527118124E-2,-4.581354442E-4
1.316565271E0,3.665083554E-3,1.038440317E-2,1.985253533E-3
1.326277927E0,2.443389036E-3,6.719320081E-3,6.872031838E-3
1.335991469E0,1.221694518E-3,4.275931045E-3,9.315420873E-3
1.345705740E0,2.443389036E-3,6.719320081E-3,8.093725890E-3
1.355419125E0,7.330167107E-3,1.038440317E-2,7.635590737E-4
1.365131833E0,9.773556143E-3,7.941014133E-3,-6.566607859E-3
1.374845271E0,4.886778072E-3,-6.719320081E-3,-9.009997360E-3
1.384559594E0,-3.665083554E-3,-1.160609815E-2,-6.566607859E-3
1.394273031E0,-8.551862091E-3,-3.054236295E-3,-1.679830020E-3
1.403985688E0,-8.551862091E-3,5.497625098E-3,-4.581354442E-4
1.413699229E0,-3.665083554E-3,9.162709117E-3,1.985253533E-3
1.423413500E0,3.665083554E-3,-3.054236295E-3,7.635590737E-4
1.433126938E0,9.773556143E-3,-3.054236295E-3,-1.679830020E-3
1.442839594E0,8.551862091E-3,4.275931045E-3,-5.344913341E-3
1.452553135E0,2.443389036E-3,1.832541777E-3,-9.009997360E-3
1.462267406E0,-2.443389036E-3,-9.162709117E-3,-6.566607859E-3
1.471980792E0,-2.443389036E-3,-1.038440317E-2,-2.901524538E-3
1.481693500E0,-0.000000000E0,-4.275931045E-3,-1.679830020E-3
1.491406938E0,2.443389036E-3,-3.054236295E-3,-2.901524538E-3
1.501121260E0,3.665083554E-3,-6.108472589E-4,-1.679830020E-3
1.510834698E0,4.886778072E-3,5.497625098E-3,-1.679830020E-3
1.520547354E0,4.886778072E-3,6.108472589E-4,-1.679830020E-3
1.530260896E0,6.108472589E-3,-3.054236295E-3,-2.901524538E-3
1.539975167E0,2.443389036E-3,-6.108472589E-4,-1.679830020E-3
1.549688552E0,-6.108472589E-3,1.832541777E-3,-4.581354442E-4
1.559401260E0,-1.221694518E-2,5.497625098E-3,3.206948051E-3
1.569114802E0,-1.221694518E-2,1.282779220E-2,3.206948051E-3
1.578829073E0,-4.886778072E-3,9.162709117E-3,1.985253533E-3
1.588542458E0,2.443389036E-3,-9.162709117E-3,3.206948051E-3
1.598255167E0,6.108472589E-3,-1.404948719E-2,4.428642802E-3
1.607968604E0,7.330167107E-3,6.108472589E-4,1.985253533E-3
1.617682927E0,7.330167107E-3,1.160609815E-2,-4.123218823E-3
1.627396365E0,6.108472589E-3,7.941014133E-3,-7.788302377E-3
1.637109021E0,-0.000000000E0,-4.275931045E-3,-5.344913341E-3
1.646822563E0,-3.665083554E-3,-1.038440317E-2,-1.679830020E-3
1.656536833E0,-7.330167107E-3,-6.719320081E-3,7.635590737E-4
1.666250271E0,-1.099525020E-2,-3.054236295E-3,5.650337320E-3
1.675962927E0,-1.221694518E-2,3.054236295E-3,5.650337320E-3
1.685676469E0,-7.330167107E-3,2.015795931E-2,4.428642802E-3
1.695390740E0,1.221694518E-3,2.993151546E-2,-2.901524538E-3
1.705104125E0,1.099525020E-2,1.527118124E-2,-7.788302377E-3
1.714816833E0,1.466033421E-2,-1.527118124E-2,-7.788302377E-3
1.724530375E0,8.551862091E-3,-3.237490356E-2,-1.679830020E-3
1.734244594E0,-1.221694518E-3,-2.504473738E-2,1.985253533E-3
1.743958031E0,-3.665083554E-3,1.832541777E-3,7.635590737E-4
1.753670740E0,8.551862091E-3,2.382304333E-2,-2.901524538E-3
1.763384177E0,2.687728032E-2,2.504473738E-2,-5.344913341E-3
1.773098500E0,3.542914242E-2,7.941014133E-3,-6.566607859E-3
1.782811938E0,2.687728032E-2,-1.893626526E-2,-6.566607859E-3
1.792524594E0,9.773556143E-3,-3.970507160E-2,-2.901524538E-3
1.802238135E0,4.886778072E-3,-4.092676565E-2,-1.679830020E-3
1.811952406E0,1.343864016E-2,-2.015795931E-2,-2.901524538E-3
1.821665844E0,2.321219631E-2,-9.162709117E-3,-4.123218823E-3
1.831378500E0,3.176405653E-2,-2.748812735E-2,-6.566607859E-3
1.841092042E0,3.787253052E-2,-5.436540768E-2,-5.344913341E-3
1.850806313E0,4.520269856E-2,-8.246438205E-2,-1.679830020E-3
1.860519750E0,4.642439261E-2,-9.468132257E-2,4.428642802E-3
1.870232406E0,3.298575059E-2,-8.857285231E-2,9.315420873E-3
1.879945948E0,6.108472589E-3,-7.757759839E-2,6.872031838E-3
1.889660219E0,-2.076880634E-2,-7.146912813E-2,3.206948051E-3
1.899373604E0,-3.176405653E-2,-6.413896382E-2,-4.581354442E-4
1.909086313E0,-2.443389036E-2,-4.459185153E-2,-6.566607859E-3
1.918799750E0,-7.330167107E-3,-4.275931045E-3,-1.145338640E-2
1.928514073E0,8.551862091E-3,2.993151546E-2,-1.389677543E-2
1.938227510E0,1.466033421E-2,4.337015375E-2,-1.267508045E-2
1.947940219E0,1.099525020E-2,3.970507160E-2,-7.788302377E-3
1.957653656E0,-0.000000000E0,2.382304333E-2,-2.901524538E-3
1.967367979E0,-4.886778072E-3,1.160609815E-2,1.985253533E-3
1.977081417E0,2.443389036E-3,1.038440317E-2,1.985253533E-3
1.986794073E0,1.466033421E-2,1.527118124E-2,-1.679830020E-3
1.996507615E0,2.321219631E-2,2.260134928E-2,-2.901524538E-3
2.006221885E0,1.954711229E-2,2.993151546E-2,-5.344913341E-3
2.015935323E0,6.108472589E-3,3.115320951E-2,-7.788302377E-3
2.025647979E0,-7.330167107E-3,2.504473738E-2,-2.901524538E-3
2.035361521E0,-1.099525020E-2,9.162709117E-3,3.206948051E-3
2.045075792E0,-8.551862091E-3,-9.162709117E-3,5.650337320E-3
2.054789177E0,-7.330167107E-3,-1.282779220E-2,6.872031838E-3
2.064501885E0,-9.773556143E-3,5.497625098E-3,4.428642802E-3
2.074215427E0,-1.221694518E-2,2.748812735E-2,-4.581354442E-4
2.083929646E0,-9.773556143E-3,3.359659761E-2,-4.123218823E-3
2.093643083E0,-3.665083554E-3,2.137965336E-2,-4.123218823E-3
2.103355792E0,1.221694518E-3,7.941014133E-3,-2.901524538E-3
2.113069229E0,2.443389036E-3,3.054236295E-3,-1.679830020E-3
2.122783552E0,-1.221694518E-3,6.108472589E-4,-2.901524538E-3
2.132496990E0,-8.551862091E-3,-4.275931045E-3,-1.679830020E-3
2.142209646E0,-1.221694518E-2,-5.497625098E-3,1.985253533E-3
2.151923188E0,-9.773556143E-3,1.832541777E-3,1.985253533E-3
2.161637458E0,-3.665083554E-3,9.162709117E-3,-4.581354442E-4
2.171350896E0,-0.000000000E0,-6.108472589E-4,7.635590737E-4
2.181063552E0,1.221694518E-3,-6.719320081E-3,3.206948051E-3
2.190777094E0,-2.443389036E-3,4.275931045E-3,3.206948051E-3
2.200491365E0,-9.773556143E-3,1.527118124E-2,1.985253533E-3
2.210204750E0,-1.221694518E-2,1.893626526E-2,4.428642802E-3
2.219917458E0,-6.108472589E-3,1.771457121E-2,5.650337320E-3
2.229630896E0,6.108472589E-3,5.497625098E-3,3.206948051E-3
2.239345219E0,1.710372418E-2,-9.162709117E-3,3.206948051E-3
2.249058656E0,1.954711229E-2,-1.771457121E-2,3.206948051E-3
2.258771313E0,1.588202827E-2,-1.404948719E-2,7.635590737E-4
2.268484854E0,1.099525020E-2,-3.054236295E-3,7.635590737E-4
2.278199125E0,6.108472589E-3,-1.832541777E-3,1.985253533E-3
2.287912563E0,3.665083554E-3,-6.719320081E-3,7.635590737E-4
2.297625219E0,2.443389036E-3,-1.038440317E-2,-1.679830020E-3
2.307338760E0,2.443389036E-3,-7.941014133E-3,-5.344913341E-3
2.317053031E0,1.221694518E-3,1.832541777E-3,-7.788302377E-3
2.326766417E0,3.665083554E-3,1.832541777E-3,-9.009997360E-3
2.336479125E0,1.221694518E-3,-1.038440317E-2,-4.123218823E-3
2.346192563E0,-3.665083554E-3,-1.771457121E-2,1.985253533E-3
2.355906885E0,-8.551862091E-3,-5.497625098E-3,6.872031838E-3
2.365620323E0,-6.108472589E-3,1.649287529E-2,5.650337320E-3
2.375332979E0,2.443389036E-3,2.626643144E-2,1.985253533E-3
2.385046521E0,1.099525020E-2,1.160609815E-2,-4.581354442E-4
2.394760792E0,1.221694518E-2,-1.038440317E-2,1.985253533E-3
2.404474177E0,8.551862091E-3,-2.137965336E-2,1.985253533E-3
2.414186885E0,1.221694518E-3,-2.260134928E-2,1.985253533E-3
2.423900427E0,-4.886778072E-3,-9.162709117E-3,1.985253533E-3
2.433614646E0,-8.551862091E-3,1.160609815E-2,7.635590737E-4
2.443328083E0,-3.665083554E-3,2.504473738E-2,-4.581354442E-4
2.453040792E0,3.665083554E-3,1.893626526E-2,7.635590737E-4
2.462754229E0,4.886778072E-3,1.832541777E-3,3.206948051E-3
2.472468552E0,-0.000000000E0,-9.162709117E-3,5.650337320E-3
2.482181990E0,-6.108472589E-3,6.108472589E-4,9.315420873E-3
2.491894646E0,-1.099525020E-2,1.038440317E-2,6.872031838E-3
2.501608188E0,-9.773556143E-3,1.282779220E-2,4.428642802E-3
2.511322458E0,-2.443389036E-3,1.404948719E-2,3.206948051E-3
2.521035844E0,3.665083554E-3,7.941014133E-3,1.985253533E-3
2.530748552E0,-1.221694518E-3,-6.108472589E-4,7.635590737E-4
2.540461990E0,-7.330167107E-3,4.275931045E-3,7.635590737E-4
2.550176313E0,-8.551862091E-3,1.160609815E-2,1.985253533E-3
2.559889750E0,1.221694518E-3,3.054236295E-3,7.635590737E-4
2.569602406E0,1.221694518E-2,-1.771457121E-2,7.635590737E-4
2.579315948E0,1.466033421E-2,-2.870982140E-2,3.206948051E-3
2.589030219E0,9.773556143E-3,-2.260134928E-2,5.650337320E-3
2.598743604E0,-0.000000000E0,-6.108472589E-4,4.428642802E-3
2.608456313E0,-3.665083554E-3,1.649287529E-2,1.985253533E-3
2.618169750E0,-0.000000000E0,2.015795931E-2,7.635590737E-4
2.627884073E0,4.886778072E-3,1.649287529E-2,-4.581354442E-4
2.637597510E0,7.330167107E-3,9.162709117E-3,-4.581354442E-4
2.647310167E0,7.330167107E-3,-1.038440317E-2,7.635590737E-4
2.657023708E0,2.443389036E-3,-3.115320951E-2,1.985253533E-3
2.666737927E0,-4.886778072E-3,-2.870982140E-2,4.428642802E-3
2.676451365E0,-8.551862091E-3,-6.719320081E-3,1.985253533E-3
2.686164021E0,-7.330167107E-3,1.649287529E-2,-4.581354442E-4
2.695877563E0,-2.443389036E-3,2.993151546E-2,-1.679830020E-3
2.705591833E0,2.443389036E-3,2.137965336E-2,7.635590737E-4
2.715305271E0,3.665083554E-3,1.832541777E-3,3.206948051E-3
2.725017927E0,6.108472589E-3,-1.038440317E-2,5.650337320E-3
2.734731365E0,6.108472589E-3,-1.160609815E-2,6.872031838E-3
2.744445688E0,6.108472589E-3,-9.162709117E-3,8.093725890E-3
2.754159125E0,3.665083554E-3,-7.941014133E-3,6.872031838E-3
2.763871781E0,1.221694518E-3,-4.275931045E-3,3.206948051E-3
2.773585323E0,3.665083554E-3,5.497625098E-3,3.206948051E-3
2.783299594E0,4.886778072E-3,9.162709117E-3,4.428642802E-3
2.793012979E0,4.886778072E-3,-1.832541777E-3,1.985253533E-3
2.802725688E0,3.665083554E-3,-4.275931045E-3,3.206948051E-3
2.812439125E0,4.886778072E-3,7.941014133E-3,4.428642802E-3
2.822153448E0,6.108472589E-3,6.719320081E-3,1.985253533E-3
2.831866833E0,4.886778072E-3,-1.404948719E-2,1.985253533E-3
2.841579542E0,7.330167107E-3,-1.893626526E-2,6.872031838E-3
2.851292979E0,8.551862091E-3,-9.162709117E-3,8.093725890E-3
2.861007302E0,4.886778072E-3,4.275931045E-3,6.872031838E-3
2.870720740E0,1.221694518E-3,2.015795931E-2,5.650337320E-3
2.880433396E0,-1.221694518E-3,2.382304333E-2,5.650337320E-3
2.890146938E0,-4.886778072E-3,9.162709117E-3,5.650337320E-3
2.899861156E0,-4.886778072E-3,-1.404948719E-2,8.093725890E-3
2.909574594E0,2.443389036E-3,-1.282779220E-2,1.053711493E-2
2.919287250E0,1.099525020E-2,7.941014133E-3,8.093725890E-3
2.929000792E0,1.221694518E-2,2.137965336E-2,1.985253533E-3
2.938715063E0,4.886778072E-3,2.137965336E-2,-4.581354442E-4
2.948428448E0,-2.443389036E-3,1.771457121E-2,-5.344913341E-3
2.958141156E0,-8.551862091E-3,7.941014133E-3,-6.566607859E-3
2.967854594E0,-1.221694518E-2,-7.941014133E-3,-6.566607859E-3
2.977568917E0,-1.099525020E-2,-1.649287529E-2,1.985253533E-3
2.987282302E0,-2.443389036E-3,-9.162709117E-3,5.650337320E-3
2.996995010E0,7.330167107E-3,7.941014133E-3,4.428642802E-3
3.006708448E0,1.221694518E-2,1.771457121E-2,7.635590737E-4
3.016422771E0,7.330167107E-3,7.941014133E-3,-4.581354442E-4
3.026136156E0,2.443389036E-3,-5.497625098E-3,1.985253533E-3
3.035848865E0,-1.221694518E-3,-1.038440317E-2,1.985253533E-3
3.045562302E0,-1.221694518E-3,-1.404948719E-2,1.985253533E-3
3.055276625E0,-1.221694518E-3,-1.160609815E-2,3.206948051E-3
3.064990010E0,1.221694518E-3,6.108472589E-4,5.650337320E-3
3.074702719E0,2.443389036E-3,9.162709117E-3,3.206948051E-3
3.084416156E0,2.443389036E-3,6.719320081E-3,3.206948051E-3
3.094130479E0,1.221694518E-3,1.832541777E-3,3.206948051E-3
3.103843865E0,-1.221694518E-3,-6.108472589E-4,5.650337320E-3
3.113556573E0,-3.665083554E-3,-6.108472589E-4,5.650337320E-3
3.123270010E0,-3.665083554E-3,9.162709117E-3,4.428642802E-3
3.132984333E0,-2.443389036E-3,1.404948719E-2,1.985253533E-3
3.142697771E0,1.221694518E-3,4.275931045E-3,1.985253533E-3
3.152410427E0,6.108472589E-3,-6.108472589E-4,1.985253533E-3
3.162123865E0,8.551862091E-3,-7.941014133E-3,1.985253533E-3
3.171838188E0,3.665083554E-3,-2.382304333E-2,3.206948051E-3
3.181551573E0,1.221694518E-3,-2.260134928E-2,5.650337320E-3
3.191264281E0,2.443389036E-3,-7.941014133E-3,5.650337320E-3
3.200977719E0,6.108472589E-3,5.497625098E-3,7.635590737E-4
3.210692042E0,6.108472589E-3,9.162709117E-3,-5.344913341E-3
3.220405427E0,-0.000000000E0,1.832541777E-3,-7.788302377E-3
3.230118135E0,-3.665083554E-3,-3.054236295E-3,-7.788302377E-3
3.239831573E0,-3.665083554E-3,6.108472589E-4,-4.123218823E-3
3.249545896E0,-3.665083554E-3,1.832541777E-3,-4.581354442E-4
3.259259281E0,1.221694518E-3,-6.108472589E-4,1.985253533E-3
3.268971990E0,4.886778072E-3,-6.108472589E-4,1.985253533E-3
3.278685427E0,6.108472589E-3,5.497625098E-3,1.985253533E-3
3.288399750E0,1.221694518E-3,6.719320081E-3,7.635590737E-4
3.298113135E0,-2.443389036E-3,7.941014133E-3,1.985253533E-3
3.307825792E0,-2.443389036E-3,1.527118124E-2,5.650337320E-3
3.317539333E0,-1.221694518E-3,1.893626526E-2,6.872031838E-3
3.327253552E0,-0.000000000E0,1.649287529E-2,4.428642802E-3
3.336966990E0,1.221694518E-3,1.160609815E-2,3.206948051E-3
3.346679646E0,-0.000000000E0,-1.832541777E-3,3.206948051E-3
3.356393188E0,-3.665083554E-3,-4.275931045E-3,4.428642802E-3
3.366107406E0,-2.443389036E-3,9.162709117E-3,4.428642802E-3
3.375820844E0,2.443389036E-3,9.162709117E-3,7.635590737E-4
3.385533500E0,6.108472589E-3,-5.497625098E-3,7.635590737E-4
3.395246938E0,7.330167107E-3,-1.404948719E-2,4.428642802E-3
3.404961260E0,6.108472589E-3,-6.719320081E-3,8.093725890E-3
3.414674698E0,1.221694518E-3,-6.108472589E-4,9.315420873E-3
3.424387354E0,-3.665083554E-3,-4.275931045E-3,8.093725890E-3
3.434100792E0,-1.221694518E-3,-3.054236295E-3,6.872031838E-3
3.443815115E0,6.108472589E-3,6.719320081E-3,7.635590737E-4
3.453528500E0,8.551862091E-3,9.162709117E-3,-5.344913341E-3
3.463241156E0,1.221694518E-3,-5.497625098E-3,-6.566607859E-3
3.472954698E0,-1.099525020E-2,-9.162709117E-3,-2.901524538E-3
3.482668917E0,-1.466033421E-2,6.108472589E-4,7.635590737E-4
3.492382354E0,-1.343864016E-2,1.404948719E-2,7.635590737E-4
3.502095010E0,-1.466033421E-2,1.893626526E-2,-1.679830020E-3
3.511808448E0,-1.710372418E-2,1.527118124E-2,-1.679830020E-3
3.521522771E0,-1.343864016E-2,3.054236295E-3,-4.581354442E-4
3.531236156E0,-7.330167107E-3,-1.832541777E-3,7.635590737E-4
3.540948865E0,-3.665083554E-3,-6.108472589E-4,1.985253533E-3
3.550662302E0,1.221694518E-3,5.497625098E-3,1.985253533E-3
3.560376625E0,7.330167107E-3,1.404948719E-2,3.206948051E-3
3.570090010E0,1.099525020E-2,1.893626526E-2,8.093725890E-3
3.579802667E0,1.343864016E-2,1.282779220E-2,9.315420873E-3
3.589516208E0,9.773556143E-3,-4.275931045E-3,1.175880991E-2
3.599230427E0,3.665083554E-3,-1.771457121E-2,1.420219894E-2
3.608943813E0,-3.665083554E-3,-2.260134928E-2,1.542389300E-2
3.618656521E0,-7.330167107E-3,-1.893626526E-2,8.093725890E-3
3.628369958E0,-8.551862091E-3,-4.275931045E-3,1.985253533E-3
3.638084281E0,-1.221694518E-3,1.160609815E-2,-5.344913341E-3
3.647797667E0,9.773556143E-3,1.038440317E-2,-7.788302377E-3
3.657510323E0,1.221694518E-2,6.719320081E-3,-2.901524538E-3
3.667223760E0,2.443389036E-3,-3.054236295E-3,-4.581354442E-4
3.676938083E0,-1.099525020E-2,-7.941014133E-3,1.985253533E-3
3.686651469E0,-1.832541823E-2,-3.054236295E-3,1.985253533E-3
3.696364177E0,-1.343864016E-2,5.497625098E-3,-4.581354442E-4
3.706077615E0,-3.665083554E-3,1.160609815E-2,-5.344913341E-3
3.715791885E0,7.330167107E-3,1.160609815E-2,-1.023169141E-2
3.725505323E0,1.221694518E-2,5.497625098E-3,-1.267508045E-2
3.735217979E0,9.773556143E-3,-3.054236295E-3,-1.145338640E-2
3.744931417E0,2.443389036E-3,-1.771457121E-2,-9.009997360E-3
3.754645740E0,-2.443389036E-3,-2.870982140E-2,-7.788302377E-3
3.764359125E0,-6.108472589E-3,-2.382304333E-2,-5.344913341E-3
3.774071781E0,-9.773556143E-3,-6.108472589E-4,-5.344913341E-3
3.783785323E0,-1.221694518E-2,2.626643144E-2,-1.679830020E-3
3.793499542E0,-8.551862091E-3,3.603998944E-2,3.206948051E-3
3.803212927E0,-4.886778072E-3,2.137965336E-2,6.872031838E-3
3.812925635E0,-1.221694518E-3,1.832541777E-3,1.053711493E-2
3.822639073E0,-0.000000000E0,-1.404948719E-2,1.175880991E-2
3.832353344E0,-1.221694518E-3,-2.993151546E-2,1.298050396E-2
3.842066781E0,-0.000000000E0,-2.748812735E-2,9.315420873E-3
3.851779438E0,2.443389036E-3,-6.108472589E-4,3.206948051E-3
3.861492875E0,1.221694518E-3,1.771457121E-2,-2.901524538E-3
3.871207198E0,-2.443389036E-3,2.015795931E-2,-2.901524538E-3
3.880920583E0,-2.443389036E-3,1.160609815E-2,7.635590737E-4
3.890633240E0,-1.221694518E-3,-7.941014133E-3,3.206948051E-3
3.900346677E0,1.221694518E-3,-2.260134928E-2,5.650337320E-3
3.910061000E0,2.443389036E-3,-2.504473738E-2,4.428642802E-3
3.919774385E0,1.221694518E-3,-1.649287529E-2,-4.581354442E-4
3.929487042E0,-0.000000000E0,-1.404948719E-2,-2.901524538E-3
3.939200479E0,-1.221694518E-3,-2.260134928E-2,-1.679830020E-3
3.948914802E0,-0.000000000E0,-2.870982140E-2,-4.581354442E-4
3.958628188E0,3.665083554E-3,-1.649287529E-2,-4.581354442E-4
3.968340844E0,4.886778072E-3,-1.832541777E-3,-1.679830020E-3
3.978054385E0,-0.000000000E0,7.941014133E-3,-4.581354442E-4
3.987768604E0,-4.886778072E-3,1.649287529E-2,-2.901524538E-3
3.997481990E0,-2.443389036E-3,1.404948719E-2,-7.788302377E-3
4.007194646E0,1.221694518E-3,1.832541777E-3,-6.566607859E-3
4.016908188E0,4.886778072E-3,-1.038440317E-2,-1.679830020E-3
4.026622406E0,7.330167107E-3,-1.282779220E-2,3.206948051E-3
4.036335792E0,4.886778072E-3,-3.054236295E-3,6.872031838E-3
4.046048448E0,-1.221694518E-3,6.719320081E-3,9.315420873E-3
4.055761990E0,-2.443389036E-3,1.771457121E-2,8.093725890E-3
4.065476208E0,-3.665083554E-3,1.893626526E-2,6.872031838E-3
4.075189594E0,-3.665083554E-3,1.832541777E-3,3.206948051E-3
4.084902302E0,-2.443389036E-3,-1.893626526E-2,-1.679830020E-3
4.094615740E0,-1.221694518E-3,-2.015795931E-2,-2.901524538E-3
4.104330010E0,1.221694518E-3,6.108472589E-4,-4.123218823E-3
4.114043396E0,2.443389036E-3,2.504473738E-2,-6.566607859E-3
4.123756104E0,1.221694518E-3,3.115320951E-2,-6.566607859E-3
4.133469542E0,-0.000000000E0,2.015795931E-2,-5.344913341E-3
4.143183813E0,-3.665083554E-3,-3.054236295E-3,7.635590737E-4
4.152897198E0,-7.330167107E-3,-2.748812735E-2,5.650337320E-3
4.162609854E0,-7.330167107E-3,-2.504473738E-2,5.650337320E-3
4.172323396E0,-2.443389036E-3,-6.108472589E-4,4.428642802E-3
4.182037615E0,1.221694518E-3,1.038440317E-2,-1.679830020E-3
4.191751000E0,1.221694518E-3,1.160609815E-2,-5.344913341E-3
4.201463656E0,4.886778072E-3,1.771457121E-2,-5.344913341E-3
4.211177198E0,7.330167107E-3,1.282779220E-2,-6.566607859E-3
4.220891417E0,3.665083554E-3,-9.162709117E-3,-4.123218823E-3
4.230604802E0,-1.221694518E-3,-2.748812735E-2,7.635590737E-4
4.240317458E0,-6.108472589E-3,-2.382304333E-2,7.635590737E-4
4.250030896E0,-7.330167107E-3,-5.497625098E-3,-1.679830020E-3
4.259745219E0,-3.665083554E-3,6.719320081E-3,-4.123218823E-3
4.269458604E0,1.221694518E-3,1.160609815E-2,-5.344913341E-3
4.279171260E0,7.330167107E-3,1.771457121E-2,-5.344913341E-3
4.288884698E0,6.108472589E-3,1.527118124E-2,-1.679830020E-3
4.298598969E0,1.221694518E-3,5.497625098E-3,4.428642802E-3
4.308312406E0,-6.108472589E-3,-6.108472589E-4,9.315420873E-3
4.318025063E0,-8.551862091E-3,-4.275931045E-3,8.093725890E-3
4.327738500E0,-8.551862091E-3,-1.160609815E-2,5.650337320E-3
4.337452771E0,-6.108472589E-3,-1.160609815E-2,3.206948051E-3
4.347166156E0,-3.665083554E-3,-6.108472589E-4,3.206948051E-3
4.356878813E0,2.443389036E-3,1.038440317E-2,7.635590737E-4
4.366592354E0,6.108472589E-3,4.275931045E-3,-4.581354442E-4
4.376306573E0,4.886778072E-3,-6.719320081E-3,7.635590737E-4
4.386019958E0,2.443389036E-3,-3.054236295E-3,1.985253533E-3
4.395732615E0,-1.221694518E-3,6.719320081E-3,3.206948051E-3
4.405446052E0,-6.108472589E-3,3.054236295E-3,3.206948051E-3
4.415160375E0,-7.330167107E-3,-4.275931045E-3,7.635590737E-4
4.424873760E0,-4.886778072E-3,-6.108472589E-4,-4.581354442E-4
4.434586417E0,2.443389036E-3,3.054236295E-3,-4.581354442E-4
4.444299854E0,7.330167107E-3,6.719320081E-3,-1.679830020E-3
4.454014125E0,6.108472589E-3,9.162709117E-3,-2.901524538E-3
4.463727510E0,1.221694518E-3,1.832541777E-3,-2.901524538E-3
4.473440167E0,-0.000000000E0,-3.054236295E-3,-2.901524538E-3
4.483153604E0,-3.665083554E-3,-5.497625098E-3,-4.581354442E-4
4.492867927E0,-9.773556143E-3,-6.719320081E-3,7.635590737E-4
4.502581313E0,-1.221694518E-2,-1.282779220E-2,1.985253533E-3
4.512293969E0,-8.551862091E-3,-1.771457121E-2,3.206948051E-3
4.522007406E0,-3.665083554E-3,-1.160609815E-2,1.985253533E-3
4.531721677E0,-1.221694518E-3,6.719320081E-3,1.985253533E-3
4.541435115E0,-2.443389036E-3,2.137965336E-2,-4.581354442E-4
4.551147771E0,-3.665083554E-3,1.771457121E-2,7.635590737E-4
4.560861208E0,-4.886778072E-3,5.497625098E-3,4.428642802E-3
4.570575479E0,-8.551862091E-3,-4.275931045E-3,4.428642802E-3
4.580288865E0,-1.221694518E-2,-4.275931045E-3,3.206948051E-3
4.590001521E0,-1.343864016E-2,5.497625098E-3,1.985253533E-3
4.599714958E0,-1.099525020E-2,1.649287529E-2,7.635590737E-4
4.609429229E0,-9.773556143E-3,1.771457121E-2,-4.581354442E-4
4.619142667E0,-8.551862091E-3,1.282779220E-2,7.635590737E-4
4.628855271E0,-7.330167107E-3,1.649287529E-2,4.428642802E-3
4.638568813E0,-7.330167107E-3,2.626643144E-2,8.093725890E-3
4.648283031E0,-3.665083554E-3,3.603998944E-2,9.315420873E-3
4.657996417E0,2.443389036E-3,3.726168349E-2,9.315420873E-3
4.667709073E0,4.886778072E-3,2.137965336E-2,1.175880991E-2
4.677422510E0,2.443389036E-3,-9.162709117E-3,1.908897609E-2
4.687136781E0,-4.886778072E-3,-1.893626526E-2,2.764083818E-2
4.696850167E0,-1.099525020E-2,-3.054236295E-3,2.764083818E-2
4.706562823E0,-1.343864016E-2,2.382304333E-2,2.031067200E-2
4.716276260E0,-6.108472589E-3,4.703523964E-2,1.298050396E-2
4.725990583E0,-1.221694518E-3,4.337015375E-2,9.315420873E-3
4.735703969E0,1.221694518E-3,3.237490356E-2,9.315420873E-3
4.745416625E0,-1.221694518E-3,3.115320951E-2,1.053711493E-2
4.755130063E0,-3.665083554E-3,2.626643144E-2,6.872031838E-3
4.764844333E0,-3.665083554E-3,1.282779220E-2,5.650337320E-3
4.774557719E0,-2.443389036E-3,-5.497625098E-3,4.428642802E-3
4.784270375E0,3.665083554E-3,-1.527118124E-2,7.635590737E-4
4.793983813E0,7.330167107E-3,-6.108472589E-4,-2.901524538E-3
4.803698083E0,6.108472589E-3,2.382304333E-2,-6.566607859E-3
4.813411469E0,-1.221694518E-3,3.359659761E-2,-9.009997360E-3
4.823124125E0,-8.551862091E-3,2.504473738E-2,-6.566607859E-3
4.832837563E0,-9.773556143E-3,1.160609815E-2,-1.679830020E-3
4.842551833E0,-6.108472589E-3,1.832541777E-3,7.635590737E-4
4.852265271E0,-3.665083554E-3,-3.054236295E-3,-2.901524538E-3
4.861977927E0,-2.443389036E-3,-1.282779220E-2,-5.344913341E-3
4.871691313E0,1.221694518E-3,-2.626643144E-2,-5.344913341E-3
4.881405635E0,6.108472589E-3,-2.748812735E-2,-5.344913341E-3
4.891119021E0,9.773556143E-3,-1.893626526E-2,-5.344913341E-3
4.900831677E0,4.886778072E-3,-1.527118124E-2,-2.901524538E-3
4.910545115E0,-2.443389036E-3,6.108472589E-4,7.635590737E-4
4.920259385E0,-6.108472589E-3,2.504473738E-2,1.985253533E-3
4.929972771E0,-4.886778072E-3,3.115320951E-2,-4.581354442E-4
4.939685427E0,-6.108472589E-3,1.160609815E-2,7.635590737E-4
4.949398865E0,-6.108472589E-3,-1.893626526E-2,-4.581354442E-4
4.959113135E0,-4.886778072E-3,-2.993151546E-2,7.635590737E-4
4.968826521E0,-1.221694518E-3,-2.382304333E-2,1.985253533E-3
4.978539177E0,6.108472589E-3,-3.054236295E-3,3.206948051E-3
4.988252615E0,8.551862091E-3,1.160609815E-2,3.206948051E-3
4.997966885E0,7.330167107E-3,-6.108472589E-4,7.635590737E-4
5.007680271E0,6.108472589E-3,-1.160609815E-2,3.206948051E-3
5.017392927E0,2.443389036E-3,-6.719320081E-3,3.206948051E-3
5.027106365E0,-3.665083554E-3,-6.719320081E-3,-4.581354442E-4
5.036820635E0,-8.551862091E-3,-1.282779220E-2,-2.901524538E-3
5.046534021E0,-4.886778072E-3,-6.719320081E-3,-1.679830020E-3
5.056246677E0,2.443389036E-3,6.719320081E-3,-2.901524538E-3
5.065960115E0,7.330167107E-3,1.649287529E-2,-6.566607859E-3
5.075674385E0,3.665083554E-3,1.404948719E-2,-6.566607859E-3
5.085387771E0,-1.221694518E-3,1.832541777E-3,-2.901524538E-3
5.095100427E0,-4.886778072E-3,-1.404948719E-2,7.635590737E-4
5.104813865E0,-6.108472589E-3,-2.748812735E-2,3.206948051E-3
5.114528135E0,-6.108472589E-3,-2.382304333E-2,3.206948051E-3
5.124241521E0,-3.665083554E-3,-4.275931045E-3,7.635590737E-4
5.133954177E0,3.665083554E-3,9.162709117E-3,-4.123218823E-3
5.143667615E0,8.551862091E-3,1.038440317E-2,-6.566607859E-3
5.153381885E0,8.551862091E-3,1.160609815E-2,-6.566607859E-3
5.163095271E0,2.443389036E-3,7.941014133E-3,-4.123218823E-3
5.172807927E0,-7.330167107E-3,-1.832541777E-3,-1.679830020E-3
5.182521365E0,-1.466033421E-2,-1.160609815E-2,1.985253533E-3
5.192235635E0,-1.221694518E-2,-1.282779220E-2,3.206948051E-3
5.201949021E0,-1.221694518E-3,-4.275931045E-3,3.206948051E-3
5.211661677E0,1.221694518E-2,1.404948719E-2,7.635590737E-4
5.221375115E0,1.832541823E-2,3.359659761E-2,-4.123218823E-3
5.231089385E0,1.343864016E-2,2.993151546E-2,-4.123218823E-3
5.240802771E0,2.443389036E-3,1.160609815E-2,-4.581354442E-4
5.250515427E0,-6.108472589E-3,9.162709117E-3,3.206948051E-3
5.260228865E0,-1.099525020E-2,1.527118124E-2,5.650337320E-3
5.269943135E0,-1.710372418E-2,1.527118124E-2,6.872031838E-3
5.279656521E0,-1.588202827E-2,1.160609815E-2,8.093725890E-3
5.289369177E0,-9.773556143E-3,1.404948719E-2,8.093725890E-3
5.299082615E0,-4.886778072E-3,2.626643144E-2,4.428642802E-3
5.308796885E0,-0.000000000E0,3.237490356E-2,7.635590737E-4
5.318510271E0,1.221694518E-3,2.870982140E-2,-4.581354442E-4
5.328222927E0,-6.108472589E-3,2.748812735E-2,3.206948051E-3
5.337936365E0,-1.221694518E-2,2.870982140E-2,5.650337320E-3
5.347650635E0,-1.466033421E-2,2.137965336E-2,5.650337320E-3
5.357364021E0,-1.221694518E-2,1.038440317E-2,5.650337320E-3
5.367076677E0,-1.099525020E-2,4.275931045E-3,5.650337320E-3
5.376790115E0,-4.886778072E-3,3.054236295E-3,5.650337320E-3
5.386504385E0,2.443389036E-3,6.108472589E-4,1.985253533E-3
5.396217771E0,7.330167107E-3,-3.054236295E-3,-1.679830020E-3
5.405930427E0,1.221694518E-3,-1.282779220E-2,-5.344913341E-3
5.415643865E0,-9.773556143E-3,-1.038440317E-2,-7.788302377E-3
5.425358135E0,-1.466033421E-2,4.275931045E-3,-9.009997360E-3
5.435071521E0,-1.466033421E-2,1.038440317E-2,-1.389677543E-2
5.444784177E0,-9.773556143E-3,-5.497625098E-3,-1.267508045E-2
5.454497615E0,2.443389036E-3,-2.382304333E-2,-1.023169141E-2
5.464211885E0,1.343864016E-2,-2.382304333E-2,-4.123218823E-3
5.473925271E0,1.710372418E-2,-1.649287529E-2,-1.679830020E-3
5.483637927E0,9.773556143E-3,-1.038440317E-2,3.206948051E-3
5.493351365E0,-4.886778072E-3,7.941014133E-3,4.428642802E-3
5.503065635E0,-2.076880634E-2,1.893626526E-2,1.985253533E-3
5.512779021E0,-2.443389036E-2,1.404948719E-2,7.635590737E-4
5.522491625E0,-1.466033421E-2,1.038440317E-2,-4.581354442E-4
5.532205063E0,-3.665083554E-3,1.527118124E-2,-1.679830020E-3
5.541919333E0,3.665083554E-3,7.941014133E-3,-1.679830020E-3
5.551632771E0,3.665083554E-3,-5.497625098E-3,-2.901524538E-3
5.561345375E0,3.665083554E-3,-1.038440317E-2,-4.581354442E-4
5.571058813E0,4.886778072E-3,-1.282779220E-2,7.635590737E-4
5.580773083E0,2.443389036E-3,-1.404948719E-2,1.985253533E-3
5.590486469E0,-0.000000000E0,3.054236295E-3,1.985253533E-3
5.600199125E0,-0.000000000E0,1.893626526E-2,3.206948051E-3
5.609912563E0,1.221694518E-3,1.893626526E-2,4.428642802E-3
5.619626833E0,6.108472589E-3,1.038440317E-2,5.650337320E-3
5.629340219E0,7.330167107E-3,6.719320081E-3,3.206948051E-3
5.639052875E0,2.443389036E-3,6.108472589E-4,7.635590737E-4
5.648766313E0,-3.665083554E-3,-1.404948719E-2,-4.581354442E-4
5.658480583E0,-0.000000000E0,-1.404948719E-2,-1.679830020E-3
5.668193969E0,7.330167107E-3,-1.832541777E-3,-4.123218823E-3
5.677906625E0,9.773556143E-3,-6.108472589E-4,-5.344913341E-3
5.687620063E0,4.886778072E-3,-9.162709117E-3,-4.123218823E-3
5.697334333E0,-0.000000000E0,-1.282779220E-2,-1.679830020E-3
5.707047719E0,-2.443389036E-3,-9.162709117E-3,-1.679830020E-3
5.716760375E0,-3.665083554E-3,-3.054236295E-3,-1.679830020E-3
5.726473760E0,-3.665083554E-3,3.054236295E-3,-2.901524538E-3
5.736188083E0,-0.000000000E0,1.832541777E-3,-1.679830020E-3
5.745901469E0,2.443389036E-3,-1.038440317E-2,-4.581354442E-4
5.755614073E0,2.443389036E-3,-1.404948719E-2,1.985253533E-3
5.765327510E0,1.221694518E-3,6.108472589E-4,7.635590737E-4
5.775041781E0,3.665083554E-3,6.719320081E-3,-1.679830020E-3
5.784755167E0,6.108472589E-3,4.275931045E-3,-1.679830020E-3
5.794467823E0,3.665083554E-3,-1.160609815E-2,-2.901524538E-3
5.804181260E0,-6.108472589E-3,-2.260134928E-2,7.635590737E-4
5.813895531E0,-1.221694518E-2,-4.275931045E-3,4.428642802E-3
5.823608917E0,-6.108472589E-3,2.626643144E-2,3.206948051E-3
5.833321573E0,3.665083554E-3,3.603998944E-2,7.635590737E-4
5.843035010E0,6.108472589E-3,2.137965336E-2,7.635590737E-4
5.852749281E0,4.886778072E-3,6.719320081E-3,4.428642802E-3
5.862462667E0,2.443389036E-3,5.497625098E-3,5.650337320E-3
5.872175323E0,-4.886778072E-3,5.497625098E-3,6.872031838E-3
5.881888708E0,-1.221694518E-2,6.108472589E-4,5.650337320E-3
5.891603031E0,-1.466033421E-2,-6.108472589E-4,5.650337320E-3
5.901316417E0,-9.773556143E-3,9.162709117E-3,1.985253533E-3
5.911029021E0,-1.221694518E-3,2.748812735E-2,-1.679830020E-3
5.920742458E0,4.886778072E-3,3.237490356E-2,-5.344913341E-3
5.930456729E0,2.443389036E-3,9.162709117E-3,-4.123218823E-3
5.940170115E0,-0.000000000E0,-1.282779220E-2,7.635590737E-4
5.949882771E0,2.443389036E-3,-1.160609815E-2,6.872031838E-3
5.959596208E0,7.330167107E-3,-7.941014133E-3,6.872031838E-3
5.969310479E0,1.099525020E-2,-1.038440317E-2,3.206948051E-3
5.979023865E0,9.773556143E-3,-1.832541777E-3,-1.679830020E-3
5.988736521E0,4.886778072E-3,2.015795931E-2,-7.788302377E-3
5.998449958E0,1.221694518E-3,3.359659761E-2,-1.145338640E-2
6.008164229E0,-3.665083554E-3,1.893626526E-2,-9.009997360E-3
6.017877615E0,-8.551862091E-3,-1.404948719E-2,-4.581354442E-4
6.027590219E0,-1.343864016E-2,-3.603998944E-2,9.315420873E-3
6.037303656E0,-1.221694518E-2,-3.481829539E-2,1.053711493E-2
6.047017927E0,-4.886778072E-3,-1.404948719E-2,6.872031838E-3
6.056731313E0,8.551862091E-3,7.941014133E-3,7.635590737E-4
6.066443969E0,1.954711229E-2,1.893626526E-2,-5.344913341E-3
6.076157406E0,1.588202827E-2,1.160609815E-2,-7.788302377E-3
6.085871677E0,7.330167107E-3,1.038440317E-2,-5.344913341E-3
6.095585063E0,-0.000000000E0,9.162709117E-3,-4.581354442E-4
6.105297719E0,-2.443389036E-3,-5.497625098E-3,3.206948051E-3
6.115011156E0,-2.443389036E-3,-1.893626526E-2,5.650337320E-3
6.124725427E0,-0.000000000E0,-1.771457121E-2,6.872031838E-3
6.134438760E0,1.221694518E-3,-1.160609815E-2,4.428642802E-3
6.144151417E0,3.665083554E-3,3.054236295E-3,4.428642802E-3
6.153864854E0,4.886778072E-3,1.893626526E-2,3.206948051E-3
6.163579125E0,3.665083554E-3,1.282779220E-2,1.985253533E-3
6.173292510E0,1.221694518E-3,6.719320081E-3,7.635590737E-4
6.183005167E0,1.221694518E-3,1.282779220E-2,4.428642802E-3
6.192718604E0,1.221694518E-3,4.275931045E-3,6.872031838E-3
6.202432875E0,1.221694518E-3,-1.527118124E-2,8.093725890E-3
6.212146260E0,2.443389036E-3,-2.137965336E-2,6.872031838E-3
6.221858865E0,3.665083554E-3,-7.941014133E-3,3.206948051E-3
6.231572302E0,2.443389036E-3,7.941014133E-3,-4.581354442E-4
6.241286573E0,-2.443389036E-3,1.649287529E-2,-5.344913341E-3
6.250999958E0,-3.665083554E-3,1.893626526E-2,-6.566607859E-3
6.260712615E0,-1.221694518E-3,1.282779220E-2,-5.344913341E-3
6.270426052E0,-0.000000000E0,-4.275931045E-3,-2.901524538E-3
6.280140323E0,-3.665083554E-3,-1.893626526E-2,4.428642802E-3
6.289853708E0,-1.099525020E-2,-1.771457121E-2,1.175880991E-2
6.299566313E0,-1.710372418E-2,-7.941014133E-3,1.298050396E-2
6.309279750E0,-1.099525020E-2,6.719320081E-3,8.093725890E-3
6.318994021E0,3.665083554E-3,1.038440317E-2,7.635590737E-4
6.328707406E0,1.588202827E-2,-4.275931045E-3,-5.344913341E-3
6.338420063E0,1.832541823E-2,-1.160609815E-2,-6.566607859E-3
6.348133500E0,1.343864016E-2,6.108472589E-4,-5.344913341E-3
6.357847771E0,3.665083554E-3,2.137965336E-2,-1.679830020E-3
6.367561156E0,-1.221694518E-3,2.870982140E-2,3.206948051E-3
6.377273760E0,-0.000000000E0,2.260134928E-2,8.093725890E-3
6.386987198E0,4.886778072E-3,3.054236295E-3,1.175880991E-2
6.396701469E0,3.665083554E-3,-2.260134928E-2,1.298050396E-2
6.406414854E0,-4.886778072E-3,-2.870982140E-2,1.420219894E-2
6.416127510E0,-1.343864016E-2,-1.160609815E-2,9.315420873E-3
6.425840948E0,-1.343864016E-2,1.527118124E-2,3.206948051E-3
6.435555219E0,-3.665083554E-3,3.237490356E-2,-1.679830020E-3
6.445268604E0,4.886778072E-3,2.504473738E-2,-2.901524538E-3
6.454981208E0,6.108472589E-3,1.282779220E-2,-1.679830020E-3
6.464694646E0,3.665083554E-3,1.282779220E-2,7.635590737E-4
6.474408917E0,1.221694518E-3,5.497625098E-3,-4.581354442E-4
6.484122302E0,2.443389036E-3,-1.404948719E-2,7.635590737E-4
6.493834958E0,4.886778072E-3,-2.382304333E-2,1.985253533E-3
6.503548396E0,3.665083554E-3,-1.771457121E-2,1.985253533E-3
6.513262667E0,-2.443389036E-3,-9.162709117E-3,3.206948051E-3
6.522976000E0,-4.886778072E-3,-7.941014133E-3,3.206948051E-3
6.532688656E0,-6.108472589E-3,-1.404948719E-2,5.650337320E-3
6.542402094E0,-4.886778072E-3,-9.162709117E-3,6.872031838E-3
6.552116365E0,-1.221694518E-3,3.054236295E-3,5.650337320E-3
6.561829750E0,7.330167107E-3,9.162709117E-3,3.206948051E-3
6.571542406E0,1.832541823E-2,6.719320081E-3,1.985253533E-3
6.581255792E0,2.076880634E-2,6.108472589E-4,1.985253533E-3
6.590970063E0,1.588202827E-2,-4.275931045E-3,4.428642802E-3
6.600683448E0,1.221694518E-2,-1.832541777E-3,1.053711493E-2
6.610396104E0,8.551862091E-3,7.941014133E-3,1.298050396E-2
6.620109542E0,8.551862091E-3,1.038440317E-2,5.650337320E-3
6.629823813E0,6.108472589E-3,9.162709117E-3,7.635590737E-4
6.639537146E0,4.886778072E-3,1.893626526E-2,-2.901524538E-3
6.649249802E0,-0.000000000E0,2.382304333E-2,-4.123218823E-3
6.658963240E0,-8.551862091E-3,1.038440317E-2,-1.679830020E-3
6.668677510E0,-1.466033421E-2,-4.275931045E-3,7.635590737E-4
6.678390896E0,-1.466033421E-2,-6.108472589E-4,1.985253533E-3
6.688103552E0,-4.886778072E-3,1.832541777E-3,7.635590737E-4
6.697816938E0,3.665083554E-3,-3.054236295E-3,-2.901524538E-3
6.707531208E0,7.330167107E-3,-7.941014133E-3,-2.901524538E-3
6.717244594E0,8.551862091E-3,-6.719320081E-3,-4.581354442E-4
6.726957250E0,7.330167107E-3,7.941014133E-3,7.635590737E-4
6.736670688E0,3.665083554E-3,2.260134928E-2,-4.581354442E-4
6.746384958E0,-0.000000000E0,1.527118124E-2,-2.901524538E-3
6.756098344E0,-0.000000000E0,-3.054236295E-3,-4.123218823E-3
6.765810948E0,3.665083554E-3,-1.893626526E-2,-7.788302377E-3
6.775524385E0,6.108472589E-3,-2.260134928E-2,-1.023169141E-2
6.785238656E0,4.886778072E-3,-2.382304333E-2,-6.566607859E-3
6.794952042E0,-0.000000000E0,-2.382304333E-2,-2.901524538E-3
6.804664698E0,-9.773556143E-3,-1.160609815E-2,7.635590737E-4
6.814378083E0,-1.343864016E-2,1.038440317E-2,7.635590737E-4
6.824092354E0,-7.330167107E-3,2.504473738E-2,-4.581354442E-4
6.833805740E0,3.665083554E-3,1.160609815E-2,-1.679830020E-3
6.843518396E0,1.221694518E-2,-2.015795931E-2,-4.581354442E-4
6.853231833E0,1.343864016E-2,-4.337015375E-2,-4.581354442E-4
6.862946104E0,7.330167107E-3,-4.214845970E-2,-4.581354442E-4
6.872659438E0,-2.443389036E-3,-2.626643144E-2,-4.581354442E-4
6.882372094E0,-7.330167107E-3,-3.054236295E-3,7.635590737E-4
6.892085531E0,-4.886778072E-3,2.015795931E-2,-4.581354442E-4
6.901799802E0,-1.221694518E-3,2.993151546E-2,-2.901524538E-3
6.911513188E0,1.221694518E-3,1.893626526E-2,7.635590737E-4
6.921225844E0,-0.000000000E0,-6.719320081E-3,4.428642802E-3
6.930939229E0,-3.665083554E-3,-2.137965336E-2,5.650337320E-3
6.940653500E0,-6.108472589E-3,-1.527118124E-2,3.206948051E-3
6.950366885E0,-4.886778072E-3,6.108472589E-4,7.635590737E-4
6.960079542E0,-3.665083554E-3,1.038440317E-2,-4.581354442E-4
6.969792979E0,-2.443389036E-3,1.527118124E-2,-4.581354442E-4
6.979507250E0,-1.221694518E-3,1.771457121E-2,1.985253533E-3
6.989220583E0,-2.443389036E-3,9.162709117E-3,3.206948051E-3
6.998933240E0,-2.443389036E-3,-1.038440317E-2,5.650337320E-3
7.008646677E0,-0.000000000E0,-2.137965336E-2,8.093725890E-3
7.018360948E0,6.108472589E-3,-1.649287529E-2,5.650337320E-3
7.028074333E0,1.221694518E-2,-1.160609815E-2,1.985253533E-3
7.037786938E0,1.588202827E-2,-1.160609815E-2,-2.901524538E-3
7.047500375E0,7.330167107E-3,-1.160609815E-2,-1.679830020E-3
7.057214646E0,-3.665083554E-3,-7.941014133E-3,1.985253533E-3
7.066928031E0,-1.099525020E-2,6.108472589E-4,1.985253533E-3
7.076640688E0,-8.551862091E-3,6.719320081E-3,1.985253533E-3
7.086354073E0,-3.665083554E-3,-1.832541777E-3,1.985253533E-3
7.096068344E0,-3.665083554E-3,-1.527118124E-2,1.985253533E-3
7.105781729E0,-1.099525020E-2,-1.160609815E-2,3.206948051E-3
7.115494385E0,-1.221694518E-2,1.160609815E-2,-4.581354442E-4
7.125207823E0,-7.330167107E-3,2.504473738E-2,-5.344913341E-3
7.134922042E0,3.665083554E-3,6.719320081E-3,-9.009997360E-3
7.144635427E0,9.773556143E-3,-2.260134928E-2,-6.566607859E-3
7.154348083E0,7.330167107E-3,-3.115320951E-2,-2.901524538E-3
7.164061521E0,-1.221694518E-3,-9.162709117E-3,-1.679830020E-3
7.173775792E0,-2.443389036E-3,1.649287529E-2,-4.581354442E-4
7.183489177E0,-0.000000000E0,2.015795931E-2,-4.123218823E-3
7.193201781E0,3.665083554E-3,1.038440317E-2,-5.344913341E-3
7.202915219E0,6.108472589E-3,6.719320081E-3,-1.679830020E-3
7.212629490E0,7.330167107E-3,-6.108472589E-4,1.985253533E-3
7.222342875E0,6.108472589E-3,-1.527118124E-2,5.650337320E-3
7.232055479E0,7.330167107E-3,-2.382304333E-2,6.872031838E-3
7.241768917E0,9.773556143E-3,-1.893626526E-2,8.093725890E-3
7.251483188E0,9.773556143E-3,6.108472589E-4,6.872031838E-3
7.261196573E0,8.551862091E-3,2.260134928E-2,7.635590737E-4
7.270909229E0,6.108472589E-3,2.870982140E-2,-5.344913341E-3
7.280622667E0,-1.221694518E-3,9.162709117E-3,-4.123218823E-3
7.290336885E0,-1.099525020E-2,-2.137965336E-2,7.635590737E-4
7.300050271E0,-1.343864016E-2,-2.870982140E-2,5.650337320E-3
7.309762927E0,-9.773556143E-3,-6.719320081E-3,-4.581354442E-4
7.319476365E0,-1.221694518E-3,2.015795931E-2,-5.344913341E-3
7.329190635E0,6.108472589E-3,2.870982140E-2,-7.788302377E-3
7.338903969E0,1.099525020E-2,1.038440317E-2,-9.009997360E-3
7.348616625E0,1.099525020E-2,-1.282779220E-2,-9.009997360E-3
7.358330063E0,6.108472589E-3,-2.382304333E-2,-2.901524538E-3
7.368044333E0,-3.665083554E-3,-2.382304333E-2,3.206948051E-3
7.377757719E0,-1.099525020E-2,-1.160609815E-2,8.093725890E-3
7.387470323E0,-8.551862091E-3,6.108472589E-4,3.206948051E-3
7.397183760E0,2.443389036E-3,1.527118124E-2,-2.901524538E-3
7.406898031E0,1.099525020E-2,1.649287529E-2,-5.344913341E-3
7.416611417E0,8.551862091E-3,-1.832541777E-3,-2.901524538E-3
7.426324021E0,1.221694518E-3,-1.404948719E-2,1.985253533E-3
7.436037458E0,-3.665083554E-3,-9.162709117E-3,1.985253533E-3
7.445751729E0,-7.330167107E-3,-3.054236295E-3,1.985253533E-3
7.455465115E0,-6.108472589E-3,6.108472589E-4,3.206948051E-3
7.465177771E0,-1.221694518E-3,6.719320081E-3,4.428642802E-3
7.474891156E0,7.330167107E-3,6.108472589E-4,3.206948051E-3
7.484605427E0,1.466033421E-2,-6.719320081E-3,7.635590737E-4
7.494318813E0,1.466033421E-2,-9.162709117E-3,3.206948051E-3
7.504031469E0,4.886778072E-3,-7.941014133E-3,1.985253533E-3
7.513744906E0,-8.551862091E-3,6.108472589E-4,-4.581354442E-4
7.523459177E0,-1.466033421E-2,1.527118124E-2,-4.581354442E-4
7.533172510E0,-1.099525020E-2,1.282779220E-2,7.635590737E-4
7.542885167E0,-1.221694518E-3,-9.162709117E-3,3.206948051E-3
7.552598604E0,1.343864016E-2,-1.771457121E-2,7.635590737E-4
7.562312875E0,1.466033421E-2,-1.282779220E-2,7.635590737E-4
7.572026208E0,7.330167107E-3,-3.054236295E-3,1.985253533E-3
7.581738865E0,-0.000000000E0,6.108472589E-4,3.206948051E-3
7.591452302E0,-2.443389036E-3,-1.160609815E-2,3.206948051E-3
7.601166573E0,-2.443389036E-3,-2.748812735E-2,1.985253533E-3
7.610879958E0,-0.000000000E0,-3.848337755E-2,3.206948051E-3
7.620592563E0,4.886778072E-3,-3.848337755E-2,4.428642802E-3
7.630306000E0,7.330167107E-3,-2.015795931E-2,5.650337320E-3
7.640020271E0,4.886778072E-3,6.719320081E-3,6.872031838E-3
7.649733656E0,1.221694518E-3,1.404948719E-2,4.428642802E-3
7.659446260E0,1.221694518E-3,-6.108472589E-4,6.872031838E-3
7.669159698E0,4.886778072E-3,-1.649287529E-2,1.175880991E-2
7.678873969E0,4.886778072E-3,-2.748812735E-2,1.420219894E-2
7.688587354E0,1.221694518E-3,-3.726168349E-2,1.298050396E-2
7.698300010E0,-4.886778072E-3,-2.626643144E-2,1.053711493E-2
7.708013396E0,-6.108472589E-3,1.038440317E-2,8.093725890E-3
7.717727667E0,-3.665083554E-3,3.726168349E-2,4.428642802E-3
7.727441052E0,-1.221694518E-3,2.626643144E-2,3.206948051E-3
7.737153708E0,-3.665083554E-3,-1.404948719E-2,4.428642802E-3
7.746867094E0,-4.886778072E-3,-3.481829539E-2,6.872031838E-3
7.756581365E0,-0.000000000E0,-1.649287529E-2,5.650337320E-3
7.766294750E0,1.221694518E-3,7.941014133E-3,7.635590737E-4
7.776007406E0,-1.221694518E-3,1.160609815E-2,-5.344913341E-3
7.785720792E0,-2.443389036E-3,6.719320081E-3,-9.009997360E-3
7.795435063E0,-3.665083554E-3,1.282779220E-2,-7.788302377E-3
7.805148448E0,-2.443389036E-3,2.137965336E-2,-4.123218823E-3
7.814861104E0,-0.000000000E0,7.941014133E-3,-2.901524538E-3
7.824574490E0,-0.000000000E0,-1.404948719E-2,1.985253533E-3
7.834288760E0,-1.221694518E-3,-2.137965336E-2,8.093725890E-3
7.844002146E0,-3.665083554E-3,-1.404948719E-2,8.093725890E-3
7.853714802E0,-3.665083554E-3,7.941014133E-3,5.650337320E-3
7.863428188E0,-0.000000000E0,2.993151546E-2,-4.581354442E-4
7.873142458E0,3.665083554E-3,2.137965336E-2,-4.123218823E-3
7.882855844E0,6.108472589E-3,6.108472589E-4,-5.344913341E-3
7.892568500E0,6.108472589E-3,-1.282779220E-2,-5.344913341E-3
7.902281885E0,8.551862091E-3,-1.893626526E-2,-5.344913341E-3
7.911996156E0,6.108472589E-3,-2.504473738E-2,-4.581354442E-4
7.921709542E0,-1.221694518E-3,-2.137965336E-2,1.985253533E-3
7.931422198E0,-8.551862091E-3,-3.054236295E-3,3.206948051E-3
7.941135583E0,-1.099525020E-2,2.137965336E-2,7.635590737E-4
7.950849854E0,-4.886778072E-3,2.993151546E-2,-2.901524538E-3
7.960563240E0,4.886778072E-3,6.719320081E-3,-5.344913341E-3
7.970275896E0,1.099525020E-2,-2.993151546E-2,-2.901524538E-3
7.979989281E0,8.551862091E-3,-4.214845970E-2,1.985253533E-3
7.989703552E0,-0.000000000E0,-3.603998944E-2,4.428642802E-3
7.999416938E0,-7.330167107E-3,-1.649287529E-2,3.206948051E-3
8.009129594E0,-7.330167107E-3,1.404948719E-2,-1.679830020E-3
8.018842979E0,-2.443389036E-3,2.748812735E-2,-7.788302377E-3
8.028557250E0,4.886778072E-3,9.162709117E-3,-6.566607859E-3
8.038270635E0,7.330167107E-3,-2.015795931E-2,-2.901524538E-3
8.047983292E0,-0.000000000E0,-2.993151546E-2,-4.581354442E-4
8.057696677E0,-9.773556143E-3,-1.771457121E-2,7.635590737E-4
8.067410948E0,-1.343864016E-2,3.054236295E-3,3.206948051E-3
8.077124333E0,-8.551862091E-3,1.893626526E-2,1.985253533E-3
8.086836938E0,-1.221694518E-3,1.527118124E-2,-1.679830020E-3
8.096550375E0,-1.221694518E-3,6.108472589E-4,-4.123218823E-3
8.106264646E0,-6.108472589E-3,-5.497625098E-3,-1.679830020E-3
8.115978031E0,-7.330167107E-3,-1.038440317E-2,1.985253533E-3
8.125690635E0,-6.108472589E-3,-5.497625098E-3,4.428642802E-3
8.135404073E0,-7.330167107E-3,-6.108472589E-4,5.650337320E-3
8.145118344E0,-1.343864016E-2,-3.054236295E-3,5.650337320E-3
8.154831729E0,-1.343864016E-2,7.941014133E-3,4.428642802E-3
8.164544333E0,-3.665083554E-3,1.771457121E-2,-1.679830020E-3
8.174257771E0,7.330167107E-3,3.054236295E-3,-7.788302377E-3
8.183972042E0,1.343864016E-2,-1.527118124E-2,-7.788302377E-3
8.193685427E0,9.773556143E-3,-1.649287529E-2,-7.788302377E-3
8.203398031E0,-1.221694518E-3,6.108472589E-4,-6.566607859E-3
8.213111469E0,-8.551862091E-3,2.260134928E-2,7.635590737E-4
8.222825740E0,-9.773556143E-3,2.382304333E-2,5.650337320E-3
8.232539073E0,-8.551862091E-3,1.038440317E-2,8.093725890E-3
8.242251729E0,-7.330167107E-3,-4.275931045E-3,9.315420873E-3
8.251965167E0,-8.551862091E-3,-2.015795931E-2,9.315420873E-3
8.261679438E0,-6.108472589E-3,-2.382304333E-2,6.872031838E-3
8.271392771E0,-3.665083554E-3,-1.404948719E-2,1.985253533E-3
8.281105427E0,-0.000000000E0,-3.054236295E-3,-2.901524538E-3
8.290818865E0,4.886778072E-3,4.275931045E-3,-4.123218823E-3
8.300533083E0,6.108472589E-3,-6.108472589E-4,-6.566607859E-3
8.310246469E0,-0.000000000E0,-1.282779220E-2,-6.566607859E-3
8.319959125E0,-6.108472589E-3,-2.015795931E-2,-1.679830020E-3
8.329672510E0,-6.108472589E-3,-1.893626526E-2,3.206948051E-3
8.339386781E0,-4.886778072E-3,-1.771457121E-2,4.428642802E-3
8.349100167E0,-2.443389036E-3,-1.893626526E-2,5.650337320E-3
8.358812771E0,-0.000000000E0,-1.649287529E-2,4.428642802E-3
8.368526208E0,-0.000000000E0,3.054236295E-3,3.206948051E-3
8.378240479E0,-3.665083554E-3,1.893626526E-2,-1.679830020E-3
8.387953865E0,-6.108472589E-3,2.382304333E-2,-5.344913341E-3
8.397666469E0,-7.330167107E-3,1.771457121E-2,-5.344913341E-3
8.407379906E0,-3.665083554E-3,-6.108472589E-4,-5.344913341E-3
8.417094177E0,2.443389036E-3,-1.893626526E-2,-2.901524538E-3
8.426807510E0,4.886778072E-3,-2.504473738E-2,-1.679830020E-3
8.436520167E0,1.221694518E-3,-2.504473738E-2,7.635590737E-4
8.446233604E0,-4.886778072E-3,-1.893626526E-2,5.650337320E-3
8.455947823E0,-2.443389036E-3,-6.108472589E-4,1.053711493E-2
8.465661208E0,6.108472589E-3,2.626643144E-2,6.872031838E-3
8.475373865E0,1.466033421E-2,3.481829539E-2,5.650337320E-3
8.485087250E0,1.343864016E-2,1.527118124E-2,4.428642802E-3
8.494801521E0,3.665083554E-3,-1.832541777E-3,6.872031838E-3
8.504514906E0,-6.108472589E-3,-6.719320081E-3,5.650337320E-3
8.514227510E0,-9.773556143E-3,-1.404948719E-2,3.206948051E-3
8.523940948E0,-9.773556143E-3,-2.260134928E-2,1.985253533E-3
8.533655219E0,-7.330167107E-3,-9.162709117E-3,7.635590737E-4
8.543368552E0,-4.886778072E-3,1.649287529E-2,-1.679830020E-3
8.553081208E0,-2.443389036E-3,2.382304333E-2,-1.679830020E-3
8.562794646E0,3.665083554E-3,2.137965336E-2,-4.581354442E-4
8.572508865E0,8.551862091E-3,1.282779220E-2,1.985253533E-3
8.582222250E0,7.330167107E-3,-7.941014133E-3,3.206948051E-3
8.591934854E0,-0.000000000E0,-3.237490356E-2,6.872031838E-3
8.601648292E0,-7.330167107E-3,-3.848337755E-2,1.175880991E-2
8.611362563E0,-7.330167107E-3,-1.771457121E-2,9.315420873E-3
8.621075948E0,-1.221694518E-3,1.404948719E-2,1.985253533E-3
8.630788552E0,1.221694518E-3,2.993151546E-2,-6.566607859E-3
8.640501990E0,1.221694518E-3,2.748812735E-2,-7.788302377E-3
8.650216260E0,-0.000000000E0,1.893626526E-2,-6.566607859E-3
8.659929594E0,-0.000000000E0,7.941014133E-3,-4.123218823E-3
8.669642250E0,-3.665083554E-3,-1.404948719E-2,1.985253533E-3
8.679355635E0,-7.330167107E-3,-3.481829539E-2,6.872031838E-3
8.689069906E0,-4.886778072E-3,-3.481829539E-2,9.315420873E-3
8.698783292E0,2.443389036E-3,-1.282779220E-2,5.650337320E-3
8.708495896E0,8.551862091E-3,1.282779220E-2,3.206948051E-3
8.718209333E0,7.330167107E-3,2.626643144E-2,7.635590737E-4
8.727923604E0,3.665083554E-3,2.748812735E-2,7.635590737E-4
8.737636938E0,4.886778072E-3,1.771457121E-2,7.635590737E-4
8.747349594E0,3.665083554E-3,1.832541777E-3,3.206948051E-3
8.757062979E0,-1.221694518E-3,-1.893626526E-2,6.872031838E-3
8.766777250E0,-7.330167107E-3,-2.504473738E-2,9.315420873E-3
8.776490635E0,-8.551862091E-3,-9.162709117E-3,6.872031838E-3
8.786203240E0,-3.665083554E-3,3.054236295E-3,1.985253533E-3
8.795916677E0,3.665083554E-3,6.108472589E-4,-4.581354442E-4
8.805630948E0,7.330167107E-3,1.832541777E-3,-1.679830020E-3
8.815344281E0,4.886778072E-3,6.108472589E-4,-4.581354442E-4
8.825056938E0,-3.665083554E-3,-7.941014133E-3,3.206948051E-3
8.834770375E0,-7.330167107E-3,-5.497625098E-3,6.872031838E-3
8.844484594E0,-7.330167107E-3,7.941014133E-3,6.872031838E-3
8.854197979E0,-6.108472589E-3,1.649287529E-2,5.650337320E-3
8.863910583E0,-4.886778072E-3,1.649287529E-2,7.635590737E-4
8.873624021E0,-4.886778072E-3,1.038440317E-2,-1.679830020E-3
8.883338292E0,-1.221694518E-3,-6.108472589E-4,-4.123218823E-3
8.893051625E0,3.665083554E-3,-1.771457121E-2,-5.344913341E-3
8.902764281E0,8.551862091E-3,-2.626643144E-2,-1.679830020E-3
8.912477667E0,6.108472589E-3,-2.260134928E-2,3.206948051E-3
8.922191938E0,-0.000000000E0,-6.719320081E-3,5.650337320E-3
8.931905323E0,-4.886778072E-3,1.649287529E-2,8.093725890E-3
8.941617927E0,-3.665083554E-3,2.015795931E-2,8.093725890E-3
8.951331365E0,-2.443389036E-3,-1.832541777E-3,5.650337320E-3
8.961045635E0,-2.443389036E-3,-1.649287529E-2,4.428642802E-3
8.970758969E0,-3.665083554E-3,-1.282779220E-2,-1.679830020E-3
8.980471625E0,-1.221694518E-3,-3.054236295E-3,-5.344913341E-3
8.990185010E0,7.330167107E-3,-4.275931045E-3,-6.566607859E-3
8.999899281E0,1.221694518E-2,-9.162709117E-3,-4.123218823E-3
9.009612667E0,9.773556143E-3,-4.275931045E-3,-4.123218823E-3
9.019325271E0,1.221694518E-3,9.162709117E-3,-4.123218823E-3
9.029038708E0,-4.886778072E-3,1.649287529E-2,-2.901524538E-3
9.038752927E0,-1.221694518E-3,1.282779220E-2,1.985253533E-3
9.048466313E0,7.330167107E-3,-1.832541777E-3,5.650337320E-3
9.058178917E0,1.221694518E-2,-1.038440317E-2,6.872031838E-3
9.067892354E0,1.221694518E-2,-5.497625098E-3,9.315420873E-3
9.077606625E0,8.551862091E-3,-6.108472589E-4,9.315420873E-3
9.087319958E0,8.551862091E-3,1.160609815E-2,5.650337320E-3
9.097032615E0,8.551862091E-3,2.626643144E-2,-4.123218823E-3
9.106746000E0,-1.221694518E-3,1.527118124E-2,-7.788302377E-3
9.116460271E0,-1.343864016E-2,-9.162709117E-3,-6.566607859E-3
9.126173656E0,-1.832541823E-2,-2.137965336E-2,-4.123218823E-3
9.135886260E0,-9.773556143E-3,-1.771457121E-2,-4.581354442E-4
9.145599698E0,6.108472589E-3,-1.282779220E-2,1.985253533E-3
9.155313917E0,1.221694518E-2,-6.719320081E-3,1.985253533E-3
9.165027302E0,1.099525020E-2,1.038440317E-2,7.635590737E-4
9.174739906E0,8.551862091E-3,2.260134928E-2,7.635590737E-4
9.184453344E0,6.108472589E-3,1.038440317E-2,7.635590737E-4
9.194167615E0,1.221694518E-3,-1.160609815E-2,3.206948051E-3
9.203880948E0,-0.000000000E0,-1.527118124E-2,3.206948051E-3
9.213593604E0,2.443389036E-3,-6.719320081E-3,3.206948051E-3
9.223306990E0,9.773556143E-3,-9.162709117E-3,7.635590737E-4
9.233021260E0,1.588202827E-2,-1.649287529E-2,1.985253533E-3
9.242734594E0,1.832541823E-2,-1.771457121E-2,1.985253533E-3
9.252447250E0,1.343864016E-2,-1.649287529E-2,-2.901524538E-3
9.262160635E0,8.551862091E-3,-1.527118124E-2,-2.901524538E-3
9.271874906E0,9.773556143E-3,-1.832541777E-3,-2.901524538E-3
9.281588292E0,1.588202827E-2,7.941014133E-3,-1.679830020E-3
9.291300896E0,2.199050039E-2,-1.038440317E-2,-1.679830020E-3
9.301014333E0,1.954711229E-2,-4.337015375E-2,-4.581354442E-4
9.310728552E0,1.221694518E-2,-6.291726977E-2,3.206948051E-3
9.320441938E0,7.330167107E-3,-4.337015375E-2,5.650337320E-3
9.330154542E0,6.108472589E-3,1.832541777E-3,3.206948051E-3
9.339867979E0,3.665083554E-3,3.237490356E-2,-6.566607859E-3
9.349582198E0,-0.000000000E0,3.115320951E-2,-1.145338640E-2
9.359295583E0,-2.443389036E-3,4.275931045E-3,-1.145338640E-2
9.369008188E0,-7.330167107E-3,-2.870982140E-2,-1.145338640E-2
9.378721625E0,-1.343864016E-2,-5.070032179E-2,-7.788302377E-3
9.388435896E0,-1.099525020E-2,-5.192201585E-2,-2.901524538E-3
9.398149229E0,1.221694518E-3,-2.870982140E-2,-4.581354442E-4
9.407861885E0,1.466033421E-2,1.160609815E-2,-5.344913341E-3
9.417575271E0,1.710372418E-2,4.581354558E-2,-1.145338640E-2
9.427289542E0,8.551862091E-3,4.947862774E-2,-1.267508045E-2
9.437002875E0,-3.665083554E-3,1.527118124E-2,-6.566607859E-3
9.446715531E0,-1.343864016E-2,-3.970507160E-2,4.428642802E-3
9.456428917E0,-6.108472589E-3,-7.024743408E-2,1.298050396E-2
9.466143188E0,9.773556143E-3,-6.047387794E-2,1.175880991E-2
9.475856521E0,1.954711229E-2,-2.870982140E-2,4.428642802E-3
9.485569177E0,2.199050039E-2,5.497625098E-3,-5.344913341E-3
9.495282563E0,1.466033421E-2,1.404948719E-2,-6.566607859E-3
9.504996833E0,3.665083554E-3,-1.404948719E-2,-4.581354442E-4
9.514710167E0,-8.551862091E-3,-5.436540768E-2,3.206948051E-3
9.524422823E0,-1.710372418E-2,-6.047387794E-2,5.650337320E-3
9.534136208E0,-1.466033421E-2,-2.993151546E-2,3.206948051E-3
9.543850479E0,-6.108472589E-3,5.497625098E-3,-2.901524538E-3
9.553563865E0,-0.000000000E0,2.993151546E-2,-1.023169141E-2
9.563276469E0,-1.221694518E-3,3.848337755E-2,-1.023169141E-2
9.572989854E0,-4.886778072E-3,3.359659761E-2,-7.788302377E-3
9.582704125E0,-7.330167107E-3,2.015795931E-2,-4.581354442E-4
9.592417510E0,-6.108472589E-3,-1.832541777E-3,4.428642802E-3
9.602130115E0,-6.108472589E-3,-2.504473738E-2,6.872031838E-3
9.611843500E0,-8.551862091E-3,-1.893626526E-2,6.872031838E-3
9.621557771E0,-6.108472589E-3,2.015795931E-2,-4.581354442E-4
9.631271156E0,-0.000000000E0,4.825693369E-2,-5.344913341E-3
9.640983760E0,4.886778072E-3,3.848337755E-2,-9.009997360E-3
9.650697146E0,7.330167107E-3,1.649287529E-2,-7.788302377E-3
9.660411417E0,2.443389036E-3,6.108472589E-4,-4.123218823E-3
9.670124802E0,-6.108472589E-3,-1.038440317E-2,-2.901524538E-3
9.679837406E0,-1.221694518E-2,-1.282779220E-2,1.985253533E-3
9.689550844E0,-1.221694518E-2,-3.054236295E-3,8.093725890E-3
9.699265063E0,-9.773556143E-3,7.941014133E-3,5.650337320E-3
9.708978448E0,-6.108472589E-3,1.404948719E-2,1.985253533E-3
9.718691052E0,1.221694518E-3,1.649287529E-2,-4.581354442E-4
9.728404490E0,3.665083554E-3,7.941014133E-3,3.206948051E-3
9.738118708E0,3.665083554E-3,-1.832541777E-3,4.428642802E-3
9.747832042E0,-0.000000000E0,-6.108472589E-4,-4.581354442E-4
9.757544698E0,1.221694518E-3,7.941014133E-3,-4.123218823E-3
9.767258083E0,2.443389036E-3,3.054236295E-3,-4.123218823E-3
9.776972354E0,4.886778072E-3,-1.038440317E-2,-5.344913341E-3
9.786685688E0,1.221694518E-3,-1.527118124E-2,-4.581354442E-4
9.796398344E0,-4.886778072E-3,-6.108472589E-4,7.635590737E-4
9.806111729E0,-8.551862091E-3,2.260134928E-2,1.985253533E-3
9.815826000E0,-6.108472589E-3,3.237490356E-2,-2.901524538E-3
9.825539333E0,-1.221694518E-3,2.137965336E-2,-5.344913341E-3
9.835251990E0,-2.443389036E-3,-1.832541777E-3,-5.344913341E-3
9.844965375E0,-7.330167107E-3,-9.162709117E-3,-1.679830020E-3
9.854679646E0,-1.099525020E-2,-6.719320081E-3,7.635590737E-4
9.864392979E0,-9.773556143E-3,-7.941014133E-3,7.635590737E-4
9.874105635E0,-4.886778072E-3,-6.719320081E-3,-4.581354442E-4
9.883819021E0,-2.443389036E-3,-7.941014133E-3,-4.581354442E-4
9.893533292E0,2.443389036E-3,-3.054236295E-3,7.635590737E-4
9.903246625E0,9.773556143E-3,1.771457121E-2,7.635590737E-4
9.912959229E0,1.221694518E-2,2.504473738E-2,-2.901524538E-3
9.922672667E0,6.108472589E-3,1.038440317E-2,-2.901524538E-3
9.932386938E0,-2.443389036E-3,-4.275931045E-3,7.635590737E-4
9.942100271E0,-6.108472589E-3,-1.160609815E-2,3.206948051E-3
9.951812875E0,-3.665083554E-3,-1.649287529E-2,7.635590737E-4
9.961526313E0,-0.000000000E0,-9.162709117E-3,7.635590737E-4
9.971240531E0,2.443389036E-3,5.497625098E-3,7.635590737E-4
9.980953917E0,3.665083554E-3,7.941014133E-3,7.635590737E-4
9.990666521E0,4.886778072E-3,3.054236295E-3,-4.581354442E-4
1.000037991E1,3.665083554E-3,-5.497625098E-3,-4.581354442E-4
1.001009418E1,3.665083554E-3,-1.527118124E-2,-1.679830020E-3
1.001980756E1,4.886778072E-3,-2.015795931E-2,-5.344913341E-3
1.002952017E1,1.099525020E-2,-1.282779220E-2,-7.788302377E-3
1.003923355E1,1.343864016E-2,6.108472589E-4,-1.511846948E-2
1.004894782E1,8.551862091E-3,9.162709117E-3,-1.634016447E-2
1.005866116E1,-0.000000000E0,5.497625098E-3,-1.023169141E-2
1.006837381E1,-6.108472589E-3,-3.054236295E-3,-7.788302377E-3
1.007808720E1,-6.108472589E-3,-6.108472589E-4,-7.788302377E-3
1.008780147E1,-2.443389036E-3,-6.108472589E-4,-9.009997360E-3
1.009751480E1,4.886778072E-3,-7.941014133E-3,-1.023169141E-2
1.010722741E1,8.551862091E-3,-1.282779220E-2,-7.788302377E-3
1.011694084E1,8.551862091E-3,-1.771457121E-2,-7.788302377E-3
1.012665506E1,4.886778072E-3,-1.282779220E-2,-5.344913341E-3
1.013636845E1,-1.221694518E-3,6.108472589E-4,-2.901524538E-3
1.014608105E1,-7.330167107E-3,1.038440317E-2,-4.581354442E-4
1.015579449E1,-1.343864016E-2,1.282779220E-2,4.428642802E-3
1.016550871E1,-1.221694518E-2,1.404948719E-2,5.650337320E-3
1.017522209E1,-8.551862091E-3,9.162709117E-3,5.650337320E-3
1.018493470E1,-2.443389036E-3,-3.054236295E-3,1.985253533E-3
1.019464808E1,1.221694518E-3,-1.527118124E-2,7.635590737E-4
1.020436235E1,3.665083554E-3,-1.527118124E-2,1.985253533E-3
1.021407569E1,3.665083554E-3,-5.497625098E-3,3.206948051E-3
1.022378834E1,-0.000000000E0,3.054236295E-3,4.428642802E-3
1.023350173E1,-4.886778072E-3,1.404948719E-2,6.872031838E-3
1.024321600E1,-3.665083554E-3,3.237490356E-2,6.872031838E-3
1.025292933E1,-0.000000000E0,3.970507160E-2,8.093725890E-3
1.026264194E1,2.443389036E-3,2.382304333E-2,9.315420873E-3
1.027235538E1,3.665083554E-3,3.054236295E-3,5.650337320E-3
1.028206959E1,1.221694518E-3,-3.054236295E-3,3.206948051E-3
1.029178298E1,-2.443389036E-3,-6.108472589E-4,-4.581354442E-4
1.030149558E1,-4.886778072E-3,-3.054236295E-3,-2.901524538E-3
1.031120902E1,1.221694518E-3,6.108472589E-4,-2.901524538E-3
1.032092324E1,7.330167107E-3,1.282779220E-2,-1.679830020E-3
1.033063662E1,4.886778072E-3,2.137965336E-2,-1.679830020E-3
1.034034923E1,-2.443389036E-3,1.404948719E-2,7.635590737E-4
1.035006267E1,-7.330167107E-3,-3.054236295E-3,1.985253533E-3
1.035977688E1,-8.551862091E-3,-7.941014133E-3,4.428642802E-3
1.036949022E1,-9.773556143E-3,-9.162709117E-3,5.650337320E-3
1.037920288E1,-9.773556143E-3,-1.160609815E-2,4.428642802E-3
1.038891626E1,-3.665083554E-3,-4.275931045E-3,1.985253533E-3
1.039863053E1,7.330167107E-3,1.038440317E-2,-2.901524538E-3
1.040834386E1,1.710372418E-2,1.160609815E-2,-6.566607859E-3
1.041805652E1,1.466033421E-2,-6.108472589E-4,-4.123218823E-3
1.042776991E1,4.886778072E-3,-2.260134928E-2,7.635590737E-4
1.043748418E1,-1.221694518E-3,-2.382304333E-2,5.650337320E-3
1.044719751E1,-4.886778072E-3,-3.054236295E-3,6.872031838E-3
1.045691012E1,-6.108472589E-3,1.038440317E-2,1.985253533E-3
1.046662355E1,-6.108472589E-3,5.497625098E-3,-4.581354442E-4
1.047633782E1,-2.443389036E-3,-1.832541777E-3,-4.581354442E-4
1.048605116E1,1.221694518E-3,-4.275931045E-3,-1.679830020E-3
1.049576376E1,-0.000000000E0,6.108472589E-4,-2.901524538E-3
1.050547720E1,-2.443389036E-3,6.108472589E-4,-2.901524538E-3
1.051519142E1,-2.443389036E-3,1.832541777E-3,-1.679830020E-3
1.052490480E1,-0.000000000E0,5.497625098E-3,-1.679830020E-3
1.053461741E1,3.665083554E-3,1.038440317E-2,-1.679830020E-3
1.054433084E1,2.443389036E-3,7.941014133E-3,-4.581354442E-4
1.055404506E1,-3.665083554E-3,-9.162709117E-3,1.985253533E-3
1.056375845E1,-6.108472589E-3,-1.893626526E-2,4.428642802E-3
1.057347105E1,-3.665083554E-3,-6.108472589E-4,4.428642802E-3
1.058318444E1,1.221694518E-3,1.404948719E-2,7.635590737E-4
1.059289871E1,6.108472589E-3,6.108472589E-4,-4.123218823E-3
1.060261209E1,8.551862091E-3,-1.771457121E-2,-2.901524538E-3
1.061232470E1,9.773556143E-3,-2.260134928E-2,-1.679830020E-3
1.062203808E1,1.099525020E-2,-1.160609815E-2,-5.344913341E-3
1.063175235E1,4.886778072E-3,-3.054236295E-3,-7.788302377E-3
1.064146569E1,-4.886778072E-3,-5.497625098E-3,-9.009997360E-3
1.065117834E1,-1.099525020E-2,-3.054236295E-3,-7.788302377E-3
1.066089173E1,-1.099525020E-2,-6.108472589E-4,-6.566607859E-3
1.067060600E1,-6.108472589E-3,5.497625098E-3,-5.344913341E-3
1.068031933E1,-2.443389036E-3,6.108472589E-4,-7.788302377E-3
1.069003199E1,-1.221694518E-3,-1.160609815E-2,-7.788302377E-3
1.069974538E1,-0.000000000E0,-9.162709117E-3,-1.023169141E-2
1.070945965E1,4.886778072E-3,-1.832541777E-3,-1.145338640E-2
1.071917298E1,6.108472589E-3,-4.275931045E-3,-1.267508045E-2
1.072888558E1,-1.221694518E-3,-1.527118124E-2,-1.267508045E-2
1.073859902E1,-1.343864016E-2,-2.015795931E-2,-7.788302377E-3
1.074831329E1,-2.076880634E-2,-1.038440317E-2,-6.566607859E-3
1.075802663E1,-1.588202827E-2,9.162709117E-3,-6.566607859E-3
1.076773923E1,-2.443389036E-3,2.015795931E-2,-6.566607859E-3
1.077745267E1,9.773556143E-3,5.497625098E-3,-2.901524538E-3
1.078716694E1,1.466033421E-2,-2.137965336E-2,-4.581354442E-4
1.079688027E1,1.099525020E-2,-3.481829539E-2,5.650337320E-3
1.080659288E1,3.665083554E-3,-1.893626526E-2,9.315420873E-3
1.081630631E1,-0.000000000E0,3.054236295E-3,1.298050396E-2
1.082602058E1,-6.108472589E-3,1.038440317E-2,1.542389300E-2
1.083573392E1,-1.221694518E-2,7.941014133E-3,1.786728203E-2
1.084544652E1,-9.773556143E-3,1.282779220E-2,2.031067200E-2
1.085515996E1,-6.108472589E-3,2.015795931E-2,1.786728203E-2
1.086487418E1,-1.221694518E-3,2.748812735E-2,1.053711493E-2
1.087458756E1,3.665083554E-3,3.237490356E-2,1.985253533E-3
1.088430017E1,8.551862091E-3,1.771457121E-2,-2.901524538E-3
1.089401360E1,1.221694518E-2,-1.038440317E-2,-1.679830020E-3
1.090372782E1,1.221694518E-2,-1.649287529E-2,7.635590737E-4
1.091344121E1,4.886778072E-3,6.719320081E-3,3.206948051E-3
1.092315381E1,-7.330167107E-3,1.527118124E-2,1.985253533E-3
1.093286725E1,-9.773556143E-3,1.649287529E-2,4.428642802E-3
1.094258147E1,-7.330167107E-3,1.893626526E-2,6.872031838E-3
1.095229485E1,-3.665083554E-3,9.162709117E-3,4.428642802E-3
1.096200746E1,-1.221694518E-3,-1.404948719E-2,5.650337320E-3
1.097172084E1,-0.000000000E0,-2.748812735E-2,3.206948051E-3
1.098143512E1,-0.000000000E0,-2.137965336E-2,-4.581354442E-4
1.099114850E1,4.886778072E-3,6.108472589E-4,-5.344913341E-3
1.100086110E1,9.773556143E-3,2.015795931E-2,-9.009997360E-3
1.101057449E1,4.886778072E-3,1.649287529E-2,-1.023169141E-2
1.102028876E1,-2.443389036E-3,-6.108472589E-4,-6.566607859E-3
1.103000215E1,-8.551862091E-3,-1.282779220E-2,-1.679830020E-3
1.103971475E1,-1.099525020E-2,-2.382304333E-2,1.985253533E-3
1.104942819E1,-9.773556143E-3,-3.237490356E-2,4.428642802E-3
1.105914241E1,-6.108472589E-3,-3.115320951E-2,8.093725890E-3
1.106885579E1,-0.000000000E0,-4.275931045E-3,8.093725890E-3
1.107856840E1,8.551862091E-3,2.993151546E-2,1.985253533E-3
1.108828178E1,8.551862091E-3,3.359659761E-2,-2.901524538E-3
1.109799605E1,-1.221694518E-3,4.275931045E-3,7.635590737E-4
1.110770944E1,-1.099525020E-2,-2.260134928E-2,5.650337320E-3
1.111742204E1,-1.710372418E-2,-2.626643144E-2,9.315420873E-3
1.112713543E1,-1.466033421E-2,-2.015795931E-2,9.315420873E-3
1.113684970E1,-3.665083554E-3,-1.527118124E-2,6.872031838E-3
1.114656303E1,6.108472589E-3,-1.160609815E-2,5.650337320E-3
1.115627569E1,1.221694518E-2,-9.162709117E-3,6.872031838E-3
1.116598907E1,1.099525020E-2,-9.162709117E-3,5.650337320E-3
1.117570334E1,3.665083554E-3,-5.497625098E-3,5.650337320E-3
1.118541668E1,-1.099525020E-2,-5.497625098E-3,3.206948051E-3
1.119512933E1,-2.076880634E-2,-1.771457121E-2,7.635590737E-4
1.120484272E1,-2.199050039E-2,-2.504473738E-2,3.206948051E-3
1.121455699E1,-1.710372418E-2,-1.404948719E-2,7.635590737E-4
1.122427032E1,-1.099525020E-2,7.941014133E-3,-4.123218823E-3
1.123398298E1,-0.000000000E0,1.649287529E-2,-9.009997360E-3
1.124369636E1,1.221694518E-2,1.832541777E-3,-9.009997360E-3
1.125341064E1,1.954711229E-2,-1.160609815E-2,-4.123218823E-3
1.126312397E1,1.588202827E-2,-1.527118124E-2,-4.581354442E-4
1.127283662E1,4.886778072E-3,-1.282779220E-2,-4.581354442E-4
1.128255001E1,-8.551862091E-3,6.108472589E-4,1.985253533E-3
1.129226428E1,-1.466033421E-2,1.160609815E-2,4.428642802E-3
1.130197762E1,-9.773556143E-3,1.282779220E-2,4.428642802E-3
1.131169027E1,-3.665083554E-3,6.719320081E-3,3.206948051E-3
1.132140366E1,-1.221694518E-3,4.275931045E-3,3.206948051E-3
1.133111793E1,-1.221694518E-3,-6.719320081E-3,4.428642802E-3
1.134083126E1,-0.000000000E0,-1.282779220E-2,8.093725890E-3
1.135054386E1,2.443389036E-3,-4.275931045E-3,8.093725890E-3
1.136025730E1,4.886778072E-3,4.275931045E-3,8.093725890E-3
1.136997152E1,7.330167107E-3,7.941014133E-3,6.872031838E-3
1.137968491E1,8.551862091E-3,1.160609815E-2,3.206948051E-3
1.138939751E1,7.330167107E-3,7.941014133E-3,3.206948051E-3
1.139911095E1,4.886778072E-3,-6.719320081E-3,5.650337320E-3
1.140882522E1,1.221694518E-3,-1.527118124E-2,1.298050396E-2
1.141853855E1,-0.000000000E0,-1.038440317E-2,1.053711493E-2
1.142825116E1,1.221694518E-3,3.054236295E-3,5.650337320E-3
1.143796459E1,7.330167107E-3,1.649287529E-2,7.635590737E-4
1.144767881E1,1.099525020E-2,1.649287529E-2,-2.901524538E-3
1.145739220E1,8.551862091E-3,9.162709117E-3,-4.123218823E-3
1.146710480E1,4.886778072E-3,6.108472589E-4,-4.123218823E-3
1.147681824E1,-0.000000000E0,-6.108472589E-4,-4.581354442E-4
1.148653246E1,-2.443389036E-3,1.832541777E-3,7.635590737E-4
1.149624584E1,-3.665083554E-3,6.719320081E-3,7.635590737E-4
1.150595845E1,-6.108472589E-3,9.162709117E-3,7.635590737E-4
1.151567183E1,-4.886778072E-3,-1.832541777E-3,1.985253533E-3
1.152538610E1,3.665083554E-3,-1.038440317E-2,4.428642802E-3
1.153509949E1,1.343864016E-2,-7.941014133E-3,5.650337320E-3
1.154481209E1,1.343864016E-2,-6.719320081E-3,3.206948051E-3
1.155452548E1,7.330167107E-3,-1.038440317E-2,7.635590737E-4
1.156423975E1,1.221694518E-3,-7.941014133E-3,7.635590737E-4
1.157395308E1,-0.000000000E0,1.038440317E-2,-1.679830020E-3
1.158366574E1,-0.000000000E0,1.649287529E-2,-4.581354442E-4
1.159337912E1,-2.443389036E-3,1.832541777E-3,7.635590737E-4
1.160309340E1,-3.665083554E-3,-1.160609815E-2,4.428642802E-3
1.161280673E1,-0.000000000E0,-6.108472589E-4,4.428642802E-3
1.162251938E1,6.108472589E-3,1.771457121E-2,3.206948051E-3
1.163223277E1,6.108472589E-3,1.282779220E-2,-4.581354442E-4
1.164194704E1,2.443389036E-3,-6.719320081E-3,1.985253533E-3
1.165166038E1,-2.443389036E-3,-2.260134928E-2,6.872031838E-3
1.166137298E1,-3.665083554E-3,-2.137965336E-2,8.093725890E-3
1.167108642E1,-3.665083554E-3,-3.054236295E-3,8.093725890E-3
1.168080064E1,-3.665083554E-3,1.160609815E-2,5.650337320E-3
1.169051402E1,-1.221694518E-3,7.941014133E-3,3.206948051E-3
1.170022662E1,3.665083554E-3,3.054236295E-3,1.985253533E-3
1.170994006E1,1.343864016E-2,1.649287529E-2,-4.581354442E-4
1.171965428E1,1.832541823E-2,2.382304333E-2,-2.901524538E-3
1.172936767E1,1.466033421E-2,1.282779220E-2,-1.679830020E-3
1.173908027E1,-0.000000000E0,-6.719320081E-3,6.872031838E-3
1.174879366E1,-1.588202827E-2,-2.015795931E-2,1.420219894E-2
1.175850793E1,-2.199050039E-2,-1.649287529E-2,1.908897609E-2
1.176822126E1,-1.832541823E-2,-1.832541777E-3,1.664558798E-2
1.177793392E1,-6.108472589E-3,1.038440317E-2,1.053711493E-2
1.178764730E1,4.886778072E-3,1.832541777E-3,4.428642802E-3
1.179736157E1,1.099525020E-2,-1.038440317E-2,-4.581354442E-4
1.180707491E1,1.466033421E-2,-1.832541777E-3,-2.901524538E-3
1.181678756E1,1.710372418E-2,1.771457121E-2,-5.344913341E-3
1.182650095E1,1.588202827E-2,2.382304333E-2,-5.344913341E-3
1.183621522E1,7.330167107E-3,5.497625098E-3,-2.901524538E-3
1.184592855E1,-3.665083554E-3,-2.260134928E-2,1.985253533E-3
1.185564116E1,-1.099525020E-2,-3.603998944E-2,6.872031838E-3
1.186535459E1,-1.466033421E-2,-2.626643144E-2,8.093725890E-3
1.187506881E1,-1.099525020E-2,3.054236295E-3,6.872031838E-3
1.188478220E1,-3.665083554E-3,2.015795931E-2,1.985253533E-3
1.189449480E1,6.108472589E-3,2.382304333E-2,-1.679830020E-3
1.190420819E1,1.343864016E-2,2.870982140E-2,-2.901524538E-3
1.191392246E1,1.466033421E-2,2.382304333E-2,-2.901524538E-3
1.192363579E1,4.886778072E-3,-3.054236295E-3,-4.581354442E-4
1.193334845E1,-8.551862091E-3,-2.870982140E-2,5.650337320E-3
1.194306183E1,-1.221694518E-2,-3.237490356E-2,8.093725890E-3
1.195277610E1,-8.551862091E-3,-2.137965336E-2,6.872031838E-3
1.196248944E1,-0.000000000E0,-7.941014133E-3,5.650337320E-3
1.197220204E1,9.773556143E-3,7.941014133E-3,4.428642802E-3
1.198191548E1,1.710372418E-2,1.404948719E-2,-1.679830020E-3
1.199162975E1,1.710372418E-2,1.282779220E-2,-4.123218823E-3
1.200134308E1,1.343864016E-2,1.527118124E-2,-2.901524538E-3
1.201105569E1,4.886778072E-3,3.054236295E-3,-4.581354442E-4
1.202076913E1,2.443389036E-3,-1.771457121E-2,3.206948051E-3
1.203048334E1,-1.221694518E-3,-2.870982140E-2,3.206948051E-3
1.204019673E1,-9.773556143E-3,-2.993151546E-2,1.985253533E-3
1.204990933E1,-1.588202827E-2,-1.038440317E-2,7.635590737E-4
1.205962272E1,-1.466033421E-2,2.137965336E-2,-1.679830020E-3
1.206933699E1,-4.886778072E-3,3.237490356E-2,-4.123218823E-3
1.207905032E1,1.221694518E-3,2.137965336E-2,-6.566607859E-3
1.208876298E1,2.443389036E-3,1.282779220E-2,-5.344913341E-3
1.209847637E1,3.665083554E-3,3.054236295E-3,1.985253533E-3
1.210819064E1,6.108472589E-3,-1.282779220E-2,4.428642802E-3
1.211790397E1,3.665083554E-3,-1.282779220E-2,5.650337320E-3
1.212761657E1,-2.443389036E-3,-4.275931045E-3,4.428642802E-3
1.213733001E1,-9.773556143E-3,1.160609815E-2,3.206948051E-3
1.214704423E1,-9.773556143E-3,1.649287529E-2,1.985253533E-3
1.215675762E1,-6.108472589E-3,4.275931045E-3,3.206948051E-3
1.216647022E1,-2.443389036E-3,-7.941014133E-3,1.985253533E-3
1.217618360E1,-4.886778072E-3,-9.162709117E-3,3.206948051E-3
1.218589788E1,-4.886778072E-3,-1.527118124E-2,6.872031838E-3
1.219561121E1,1.221694518E-3,-1.893626526E-2,1.053711493E-2
1.220532381E1,8.551862091E-3,-7.941014133E-3,6.872031838E-3
1.221503725E1,9.773556143E-3,3.054236295E-3,1.985253533E-3
1.222475147E1,4.886778072E-3,-1.832541777E-3,-1.679830020E-3
1.223446485E1,-2.443389036E-3,-7.941014133E-3,-1.679830020E-3
1.224417746E1,-6.108472589E-3,-5.497625098E-3,-4.581354442E-4
1.225389084E1,-9.773556143E-3,-6.108472589E-4,-1.679830020E-3
1.226360512E1,-1.099525020E-2,6.108472589E-4,-2.901524538E-3
1.227331845E1,-1.343864016E-2,3.054236295E-3,-4.123218823E-3
1.228303110E1,-1.343864016E-2,1.038440317E-2,-5.344913341E-3
1.229274449E1,-9.773556143E-3,1.038440317E-2,-7.788302377E-3
1.230245876E1,-6.108472589E-3,-6.108472589E-4,-7.788302377E-3
1.231217209E1,-2.443389036E-3,6.108472589E-4,-6.566607859E-3
1.232188470E1,-1.221694518E-3,7.941014133E-3,-4.123218823E-3
1.233159814E1,-4.886778072E-3,1.038440317E-2,-4.581354442E-4
1.234131235E1,-4.886778072E-3,1.832541777E-3,4.428642802E-3
1.235102569E1,-1.221694518E-3,-1.038440317E-2,9.315420873E-3
1.236073834E1,7.330167107E-3,-1.527118124E-2,9.315420873E-3
1.237045173E1,1.221694518E-2,-1.282779220E-2,6.872031838E-3
1.238016600E1,1.343864016E-2,-1.832541777E-3,4.428642802E-3
1.238987933E1,9.773556143E-3,7.941014133E-3,3.206948051E-3
1.239959194E1,-2.443389036E-3,-3.054236295E-3,7.635590737E-4
1.240930538E1,-9.773556143E-3,-7.941014133E-3,1.985253533E-3
1.241901959E1,-8.551862091E-3,7.941014133E-3,3.206948051E-3
1.242873293E1,-3.665083554E-3,1.404948719E-2,-2.901524538E-3
1.243844558E1,-0.000000000E0,5.497625098E-3,-4.123218823E-3
1.244815897E1,2.443389036E-3,-1.832541777E-3,-1.679830020E-3
1.245787324E1,4.886778072E-3,-3.054236295E-3,-1.679830020E-3
1.246758657E1,2.443389036E-3,6.108472589E-4,-1.679830020E-3
1.247729918E1,-1.221694518E-3,-5.497625098E-3,7.635590737E-4
1.248701262E1,-4.886778072E-3,-2.260134928E-2,3.206948051E-3
1.249672683E1,-7.330167107E-3,-2.993151546E-2,3.206948051E-3
1.250644017E1,-6.108472589E-3,-1.038440317E-2,1.985253533E-3
1.251615282E1,-1.221694518E-3,2.504473738E-2,-2.901524538E-3
1.252586621E1,2.443389036E-3,4.092676565E-2,-9.009997360E-3
1.253558048E1,2.443389036E-3,2.626643144E-2,-9.009997360E-3
1.254529381E1,-1.221694518E-3,1.832541777E-3,-4.123218823E-3
1.255500642E1,-1.221694518E-3,-1.282779220E-2,7.635590737E-4
1.256471980E1,3.665083554E-3,-1.404948719E-2,3.206948051E-3
1.257443407E1,9.773556143E-3,-1.404948719E-2,7.635590737E-4
1.258414741E1,9.773556143E-3,-1.282779220E-2,-1.679830020E-3
1.259386006E1,6.108472589E-3,3.054236295E-3,-4.581354442E-4
1.260357345E1,1.221694518E-3,2.015795931E-2,-4.581354442E-4
1.261328767E1,-3.665083554E-3,2.626643144E-2,-4.581354442E-4
1.262300105E1,-7.330167107E-3,2.137965336E-2,1.985253533E-3
1.263271366E1,-8.551862091E-3,1.832541777E-3,6.872031838E-3
1.264242704E1,-4.886778072E-3,-1.893626526E-2,8.093725890E-3
1.265214131E1,-0.000000000E0,-2.015795931E-2,4.428642802E-3
1.266185465E1,-0.000000000E0,-1.832541777E-3,7.635590737E-4
1.267156725E1,-3.665083554E-3,1.893626526E-2,-2.901524538E-3
1.268128069E1,-1.221694518E-3,2.137965336E-2,-5.344913341E-3
1.269099491E1,3.665083554E-3,3.054236295E-3,-4.123218823E-3
1.270070829E1,3.665083554E-3,-1.527118124E-2,-1.679830020E-3
1.271042090E1,-1.221694518E-3,-1.771457121E-2,7.635590737E-4
1.272013428E1,-4.886778072E-3,-1.832541777E-3,7.635590737E-4
1.272984855E1,1.221694518E-3,1.649287529E-2,-4.581354442E-4
1.273956188E1,8.551862091E-3,1.771457121E-2,-5.344913341E-3
1.274927449E1,9.773556143E-3,3.054236295E-3,-7.788302377E-3
1.275898793E1,2.443389036E-3,-3.054236295E-3,-4.123218823E-3
1.276870215E1,-7.330167107E-3,3.054236295E-3,-4.581354442E-4
1.277841548E1,-1.343864016E-2,1.832541777E-3,1.985253533E-3
1.278812814E1,-1.099525020E-2,-6.719320081E-3,3.206948051E-3
1.279784152E1,-6.108472589E-3,-6.719320081E-3,4.428642802E-3
1.280755574E1,1.221694518E-3,6.108472589E-4,3.206948051E-3
1.281726913E1,3.665083554E-3,1.832541777E-3,-4.581354442E-4
1.282698173E1,1.221694518E-3,-4.275931045E-3,-4.581354442E-4
1.283669512E1,-0.000000000E0,-1.038440317E-2,1.985253533E-3
1.284640939E1,6.108472589E-3,-7.941014133E-3,7.635590737E-4
1.285612272E1,7.330167107E-3,4.275931045E-3,-4.581354442E-4
1.286583532E1,3.665083554E-3,6.719320081E-3,-2.901524538E-3
1.287554876E1,-3.665083554E-3,4.275931045E-3,-1.679830020E-3
1.288526298E1,-9.773556143E-3,6.719320081E-3,7.635590737E-4
1.289497631E1,-9.773556143E-3,6.719320081E-3,1.985253533E-3
1.290468892E1,-4.886778072E-3,4.275931045E-3,4.428642802E-3
1.291440235E1,1.221694518E-3,-4.275931045E-3,4.428642802E-3
1.292411657E1,2.443389036E-3,-7.941014133E-3,-4.581354442E-4
1.293382996E1,2.443389036E-3,-1.832541777E-3,-2.901524538E-3
1.294354256E1,2.443389036E-3,6.108472589E-4,-4.123218823E-3
1.295325595E1,3.665083554E-3,-6.108472589E-4,-1.679830020E-3
1.296297022E1,2.443389036E-3,6.108472589E-4,7.635590737E-4
1.297268355E1,-0.000000000E0,-4.275931045E-3,-2.901524538E-3
1.298239616E1,-4.886778072E-3,-9.162709117E-3,-2.901524538E-3
1.299210954E1,-7.330167107E-3,-6.719320081E-3,-4.123218823E-3
1.300182381E1,-7.330167107E-3,-6.108472589E-4,-2.901524538E-3
1.301153715E1,-4.886778072E-3,6.719320081E-3,-2.901524538E-3
1.302124975E1,-0.000000000E0,6.719320081E-3,-5.344913341E-3
1.303096314E1,3.665083554E-3,6.719320081E-3,-4.123218823E-3
1.304067741E1,1.221694518E-3,5.497625098E-3,-4.581354442E-4
1.305039074E1,-1.221694518E-3,6.108472589E-4,7.635590737E-4
1.306010334E1,-3.665083554E-3,-1.832541777E-3,1.985253533E-3
1.306981678E1,-3.665083554E-3,-5.497625098E-3,7.635590737E-4
1.307953100E1,-1.221694518E-3,-5.497625098E-3,-1.679830020E-3
1.308924438E1,-0.000000000E0,-9.162709117E-3,-1.679830020E-3
1.309895699E1,1.221694518E-3,-1.282779220E-2,-1.679830020E-3
1.310867038E1,-0.000000000E0,-5.497625098E-3,-4.581354442E-4
1.311838459E1,-0.000000000E0,6.719320081E-3,-1.679830020E-3
1.312809798E1,1.221694518E-3,1.527118124E-2,7.635590737E-4
1.313781058E1,4.886778072E-3,1.649287529E-2,1.985253533E-3
1.314752397E1,7.330167107E-3,1.649287529E-2,1.985253533E-3
1.315723824E1,2.443389036E-3,7.941014133E-3,1.985253533E-3
1.316695157E1,-4.886778072E-3,-3.054236295E-3,3.206948051E-3
1.317666418E1,-7.330167107E-3,-4.275931045E-3,-4.581354442E-4
1.318637756E1,-3.665083554E-3,-6.108472589E-4,-4.123218823E-3
1.319609183E1,2.443389036E-3,6.108472589E-4,-5.344913341E-3
1.320580517E1,4.886778072E-3,4.275931045E-3,-2.901524538E-3
1.321551777E1,1.221694518E-3,3.054236295E-3,1.985253533E-3
1.322523116E1,-3.665083554E-3,3.054236295E-3,4.428642802E-3
1.323494543E1,-6.108472589E-3,7.941014133E-3,4.428642802E-3
1.324465876E1,-2.443389036E-3,1.282779220E-2,4.428642802E-3
1.325437136E1,2.443389036E-3,1.038440317E-2,4.428642802E-3
1.326408475E1,2.443389036E-3,-1.832541777E-3,3.206948051E-3
1.327379902E1,1.221694518E-3,-1.160609815E-2,3.206948051E-3
1.328351235E1,1.221694518E-3,-1.038440317E-2,1.985253533E-3
1.329322496E1,-0.000000000E0,-4.275931045E-3,7.635590737E-4
1.330293840E1,-4.886778072E-3,-6.108472589E-4,7.635590737E-4
1.331265262E1,-8.551862091E-3,9.162709117E-3,-1.679830020E-3
1.332236595E1,-8.551862091E-3,1.649287529E-2,-4.123218823E-3
1.333207855E1,-6.108472589E-3,1.527118124E-2,-4.123218823E-3
1.334179199E1,-6.108472589E-3,9.162709117E-3,-1.679830020E-3
1.335150621E1,-7.330167107E-3,-4.275931045E-3,-4.581354442E-4
1.336121954E1,-7.330167107E-3,-1.038440317E-2,7.635590737E-4
1.337093215E1,-2.443389036E-3,-1.282779220E-2,1.985253533E-3
1.338064558E1,3.665083554E-3,-1.038440317E-2,7.635590737E-4
1.339035980E1,1.099525020E-2,-1.832541777E-3,-1.679830020E-3
1.340007314E1,7.330167107E-3,6.108472589E-4,-4.123218823E-3
1.340978579E1,-4.886778072E-3,-1.832541777E-3,-2.901524538E-3
1.341949918E1,-1.466033421E-2,-6.108472589E-4,-2.901524538E-3
1.342921340E1,-1.343864016E-2,9.162709117E-3,-2.901524538E-3
1.343892673E1,-3.665083554E-3,2.137965336E-2,-2.901524538E-3
1.344863939E1,6.108472589E-3,2.260134928E-2,-4.123218823E-3
1.345835277E1,8.551862091E-3,5.497625098E-3,-1.679830020E-3
1.346806699E1,3.665083554E-3,-1.893626526E-2,3.206948051E-3
1.347778038E1,-2.443389036E-3,-3.359659761E-2,8.093725890E-3
1.348749298E1,-4.886778072E-3,-2.748812735E-2,8.093725890E-3
1.349720636E1,-1.221694518E-3,-3.054236295E-3,8.093725890E-3
1.350692058E1,-0.000000000E0,9.162709117E-3,6.872031838E-3
1.351663392E1,-0.000000000E0,3.054236295E-3,4.428642802E-3
1.352634657E1,-0.000000000E0,3.054236295E-3,4.428642802E-3
1.353605996E1,-0.000000000E0,1.282779220E-2,3.206948051E-3
1.354577418E1,-1.221694518E-3,1.038440317E-2,7.635590737E-4
1.355548756E1,-4.886778072E-3,-7.941014133E-3,-1.679830020E-3
1.356520017E1,-7.330167107E-3,-1.893626526E-2,-1.679830020E-3
1.357491355E1,-3.665083554E-3,-1.404948719E-2,-4.581354442E-4
1.358462777E1,2.443389036E-3,-1.832541777E-3,-4.123218823E-3
1.359434110E1,4.886778072E-3,1.038440317E-2,-5.344913341E-3
1.360405376E1,-2.443389036E-3,1.038440317E-2,-5.344913341E-3
1.361376715E1,-1.099525020E-2,4.275931045E-3,-2.901524538E-3
1.362348137E1,-1.221694518E-2,1.038440317E-2,7.635590737E-4
1.363319470E1,-8.551862091E-3,1.282779220E-2,3.206948051E-3
1.364290730E1,-4.886778072E-3,-4.275931045E-3,3.206948051E-3
1.365262074E1,-9.773556143E-3,-2.504473738E-2,3.206948051E-3
1.366233496E1,-1.588202827E-2,-1.771457121E-2,5.650337320E-3
1.367204829E1,-1.343864016E-2,3.054236295E-3,4.428642802E-3
1.368176095E1,-2.443389036E-3,1.527118124E-2,1.985253533E-3
1.369147433E1,4.886778072E-3,2.015795931E-2,1.985253533E-3
1.370118855E1,2.443389036E-3,2.260134928E-2,3.206948051E-3
1.371090188E1,-7.330167107E-3,1.038440317E-2,4.428642802E-3
1.372061449E1,-1.588202827E-2,-1.282779220E-2,8.093725890E-3
1.373032793E1,-1.710372418E-2,-2.626643144E-2,1.053711493E-2
1.374004215E1,-9.773556143E-3,-2.260134928E-2,9.315420873E-3
1.374975548E1,1.221694518E-3,-7.941014133E-3,4.428642802E-3
1.375946808E1,7.330167107E-3,-1.832541777E-3,-1.679830020E-3
1.376918147E1,6.108472589E-3,-7.941014133E-3,-4.581354442E-4
1.377889574E1,3.665083554E-3,-3.054236295E-3,3.206948051E-3
1.378860907E1,2.443389036E-3,1.282779220E-2,4.428642802E-3
1.379832168E1,-1.221694518E-3,2.137965336E-2,7.635590737E-4
1.380803506E1,-6.108472589E-3,1.404948719E-2,-4.581354442E-4
1.381774933E1,-8.551862091E-3,1.832541777E-3,7.635590737E-4
1.382746267E1,-3.665083554E-3,-5.497625098E-3,1.985253533E-3
1.383717527E1,-2.443389036E-3,-1.038440317E-2,3.206948051E-3
1.384688866E1,-3.665083554E-3,-1.160609815E-2,3.206948051E-3
1.385660293E1,-4.886778072E-3,-7.941014133E-3,3.206948051E-3
1.386631626E1,-0.000000000E0,3.054236295E-3,1.985253533E-3
1.387602886E1,3.665083554E-3,1.649287529E-2,-4.581354442E-4
1.388574225E1,3.665083554E-3,1.771457121E-2,-4.581354442E-4
1.389545647E1,-1.221694518E-3,1.160609815E-2,1.985253533E-3
1.390516985E1,-0.000000000E0,4.275931045E-3,3.206948051E-3
1.391488246E1,7.330167107E-3,-1.832541777E-3,4.428642802E-3
1.392459584E1,1.221694518E-2,-4.275931045E-3,4.428642802E-3
1.393431006E1,7.330167107E-3,-3.054236295E-3,3.206948051E-3
1.394402340E1,-3.665083554E-3,6.719320081E-3,1.985253533E-3
1.395373605E1,-8.551862091E-3,2.137965336E-2,3.206948051E-3
1.396344944E1,-7.330167107E-3,2.015795931E-2,3.206948051E-3
1.397316366E1,-3.665083554E-3,4.275931045E-3,4.428642802E-3
1.398287699E1,-6.108472589E-3,-1.160609815E-2,6.872031838E-3
1.399258959E1,-7.330167107E-3,-1.282779220E-2,6.872031838E-3
1.400230303E1,-3.665083554E-3,-1.404948719E-2,3.206948051E-3
1.401201725E1,9.773556143E-3,-1.160609815E-2,1.985253533E-3
1.402173058E1,2.076880634E-2,-5.497625098E-3,7.635590737E-4
1.403144319E1,1.954711229E-2,-4.275931045E-3,-4.581354442E-4
1.404115657E1,7.330167107E-3,-7.941014133E-3,1.985253533E-3
1.405087084E1,-3.665083554E-3,-9.162709117E-3,3.206948051E-3
1.406058418E1,-8.551862091E-3,-4.275931045E-3,4.428642802E-3
1.407029678E1,-3.665083554E-3,-3.054236295E-3,4.428642802E-3
1.408001017E1,2.443389036E-3,1.832541777E-3,1.985253533E-3
1.408972444E1,2.443389036E-3,1.527118124E-2,-2.901524538E-3
1.409943777E1,-0.000000000E0,2.260134928E-2,-6.566607859E-3
1.410915038E1,-2.443389036E-3,6.719320081E-3,-6.566607859E-3
1.411886376E1,-1.221694518E-3,-7.941014133E-3,-4.123218823E-3
1.412857798E1,3.665083554E-3,-7.941014133E-3,-4.581354442E-4
1.413829131E1,8.551862091E-3,-1.832541777E-3,-4.581354442E-4
1.414800392E1,9.773556143E-3,-1.832541777E-3,-1.679830020E-3
1.415771735E1,6.108472589E-3,-6.719320081E-3,-1.679830020E-3
1.416743157E1,6.108472589E-3,-7.941014133E-3,-1.679830020E-3
1.417714491E1,6.108472589E-3,-6.719320081E-3,7.635590737E-4
1.418685751E1,1.221694518E-3,-3.054236295E-3,4.428642802E-3
1.419657090E1,-6.108472589E-3,4.275931045E-3,5.650337320E-3
1.420628517E1,-4.886778072E-3,1.527118124E-2,4.428642802E-3
1.421599850E1,2.443389036E-3,1.893626526E-2,3.206948051E-3
1.422571110E1,7.330167107E-3,1.038440317E-2,3.206948051E-3
1.423542449E1,1.099525020E-2,-4.275931045E-3,5.650337320E-3
1.424513871E1,7.330167107E-3,-9.162709117E-3,4.428642802E-3
1.425485209E1,-0.000000000E0,-3.054236295E-3,6.872031838E-3
1.426456470E1,-6.108472589E-3,-3.054236295E-3,6.872031838E-3
1.427427808E1,-4.886778072E-3,-4.275931045E-3,6.872031838E-3
1.428399230E1,2.443389036E-3,-1.832541777E-3,5.650337320E-3
1.429370564E1,8.551862091E-3,-6.108472589E-4,7.635590737E-4
1.430341824E1,1.343864016E-2,6.719320081E-3,-2.901524538E-3
1.431313162E1,1.466033421E-2,1.282779220E-2,-6.566607859E-3
1.432284590E1,9.773556143E-3,1.038440317E-2,-7.788302377E-3
1.433255923E1,3.665083554E-3,6.719320081E-3,-7.788302377E-3
1.434227183E1,-1.221694518E-3,-6.108472589E-4,-1.679830020E-3
1.435198522E1,-7.330167107E-3,-1.038440317E-2,3.206948051E-3
1.436169944E1,-4.886778072E-3,-4.275931045E-3,6.872031838E-3
1.437141282E1,3.665083554E-3,4.275931045E-3,4.428642802E-3
1.438112543E1,9.773556143E-3,-6.108472589E-4,7.635590737E-4
1.439083881E1,6.108472589E-3,-1.282779220E-2,-4.581354442E-4
1.440055303E1,-3.665083554E-3,-1.649287529E-2,1.985253533E-3
1.441026636E1,-8.551862091E-3,-6.108472589E-4,7.635590737E-4
1.441997897E1,-6.108472589E-3,1.771457121E-2,-2.901524538E-3
1.442969235E1,2.443389036E-3,1.404948719E-2,-4.123218823E-3
1.443940662E1,1.588202827E-2,-5.497625098E-3,-4.123218823E-3
1.444911996E1,2.443389036E-2,-2.382304333E-2,7.635590737E-4
1.445883256E1,1.832541823E-2,-3.359659761E-2,1.985253533E-3
1.446854595E1,-0.000000000E0,-2.993151546E-2,5.650337320E-3
1.447826017E1,-1.710372418E-2,-1.038440317E-2,1.053711493E-2
1.448797350E1,-1.954711229E-2,1.893626526E-2,1.175880991E-2
1.449768616E1,-1.221694518E-2,3.970507160E-2,6.872031838E-3
1.450739954E1,-1.221694518E-3,3.848337755E-2,3.206948051E-3
1.451711376E1,1.221694518E-2,1.527118124E-2,3.206948051E-3
1.452682709E1,2.199050039E-2,-1.282779220E-2,3.206948051E-3
1.453653970E1,2.199050039E-2,-2.626643144E-2,5.650337320E-3
1.454625308E1,1.343864016E-2,-2.626643144E-2,8.093725890E-3
1.455596730E1,1.221694518E-3,-2.260134928E-2,8.093725890E-3
1.456568069E1,-7.330167107E-3,-1.038440317E-2,6.872031838E-3
1.457539329E1,-1.466033421E-2,3.054236295E-3,4.428642802E-3
1.458510668E1,-1.343864016E-2,2.504473738E-2,3.206948051E-3
1.459482090E1,-7.330167107E-3,4.337015375E-2,-4.581354442E-4
1.460453423E1,-1.221694518E-3,3.237490356E-2,-2.901524538E-3
1.461424683E1,1.221694518E-3,6.719320081E-3,-2.901524538E-3
1.462396022E1,3.665083554E-3,-5.497625098E-3,7.635590737E-4
1.463367449E1,7.330167107E-3,-1.160609815E-2,3.206948051E-3
1.464338782E1,6.108472589E-3,-1.771457121E-2,3.206948051E-3
1.465310043E1,-0.000000000E0,-1.160609815E-2,3.206948051E-3
1.466281381E1,-4.886778072E-3,1.832541777E-3,-4.581354442E-4
1.467252803E1,-3.665083554E-3,1.527118124E-2,-2.901524538E-3
1.468224137E1,1.221694518E-3,2.137965336E-2,-4.123218823E-3
1.469195397E1,4.886778072E-3,1.527118124E-2,-4.123218823E-3
1.470166735E1,2.443389036E-3,-3.054236295E-3,-1.679830020E-3
1.471138163E1,-3.665083554E-3,-1.771457121E-2,1.985253533E-3
1.472109496E1,-1.221694518E-3,-9.162709117E-3,1.985253533E-3
1.473080756E1,3.665083554E-3,1.160609815E-2,-1.679830020E-3
1.474052095E1,7.330167107E-3,1.404948719E-2,-4.123218823E-3
1.475023517E1,3.665083554E-3,-7.941014133E-3,-2.901524538E-3
1.475994855E1,-3.665083554E-3,-2.870982140E-2,1.985253533E-3
1.476966116E1,-6.108472589E-3,-2.626643144E-2,4.428642802E-3
1.477937454E1,-3.665083554E-3,-1.038440317E-2,4.428642802E-3
1.478908876E1,2.443389036E-3,-4.275931045E-3,-1.679830020E-3
1.479880209E1,7.330167107E-3,-6.719320081E-3,-6.566607859E-3
1.480851470E1,7.330167107E-3,-1.832541777E-3,-5.344913341E-3
1.481822808E1,7.330167107E-3,1.832541777E-3,-5.344913341E-3
1.482794230E1,3.665083554E-3,3.054236295E-3,-5.344913341E-3
1.483765569E1,-3.665083554E-3,-6.108472589E-4,-5.344913341E-3
1.484736829E1,-4.886778072E-3,-5.497625098E-3,-1.679830020E-3
1.485708168E1,-0.000000000E0,-9.162709117E-3,3.206948051E-3
1.486679590E1,6.108472589E-3,-9.162709117E-3,5.650337320E-3
1.487650923E1,1.221694518E-3,-1.038440317E-2,4.428642802E-3
1.488622183E1,-7.330167107E-3,-6.108472589E-4,3.206948051E-3
1.489593522E1,-1.343864016E-2,1.893626526E-2,1.985253533E-3
1.490564949E1,-1.588202827E-2,2.382304333E-2,-2.901524538E-3
1.491536282E1,-1.466033421E-2,7.941014133E-3,-1.679830020E-3
1.492507543E1,-1.466033421E-2,-1.832541777E-3,6.872031838E-3
1.493478881E1,-1.466033421E-2,4.275931045E-3,1.420219894E-2
1.494450303E1,-1.466033421E-2,1.893626526E-2,1.664558798E-2
1.495421636E1,-1.588202827E-2,3.237490356E-2,1.786728203E-2
1.496392897E1,-1.588202827E-2,3.237490356E-2,1.298050396E-2
1.497364241E1,-1.466033421E-2,2.015795931E-2,6.872031838E-3
1.498335662E1,-6.108472589E-3,1.832541777E-3,3.206948051E-3
1.499306996E1,8.551862091E-3,-1.038440317E-2,3.206948051E-3
1.500278256E1,1.832541823E-2,-1.282779220E-2,1.985253533E-3
1.501249595E1,1.832541823E-2,-1.160609815E-2,-1.679830020E-3
1.502221017E1,1.221694518E-2,-1.832541777E-3,-5.344913341E-3
1.503192355E1,6.108472589E-3,5.497625098E-3,-7.788302377E-3
1.504163616E1,6.108472589E-3,-1.832541777E-3,-9.009997360E-3
