"Time (s)","Acceleration x (m/s^2)","Acceleration y (m/s^2)","Acceleration z (m/s^2)"
5.687677200E-2,-1.434497118E0,-1.010279655E1,-6.649056077E-1
6.659020900E-2,-9.939187169E-1,-1.017697334E1,-1.433300734E0
7.630442800E-2,-8.910273314E-1,-1.016740227E1,-2.156531334E0
8.601781300E-2,-8.503493667E-1,-1.011715317E1,-2.621038198E0
9.573047000E-2,-8.479565382E-1,-1.002861881E1,-2.719143867E0
1.054439590E-1,-9.795617461E-1,-9.849157333E0,-2.560918331E0
1.151582300E-1,-1.113559842E0,-9.657731056E0,-2.221137524E0
1.248716160E-1,-1.156630635E0,-9.509077072E0,-1.830808401E0
1.345842720E-1,-1.003489971E0,-9.300901413E0,-1.395015597E0
1.442977090E-1,-8.670991063E-1,-9.126225471E0,-9.137591720E-1
1.540119800E-1,-7.905287743E-1,-9.078369141E0,-5.309075117E-1
1.637253660E-1,-9.149555564E-1,-9.056534767E0,-2.961117923E-1
1.734380220E-1,-1.065703392E0,-9.116654396E0,-2.362912297E-1
1.831514590E-1,-1.154237866E0,-9.276973724E0,-3.032902777E-1
1.928657820E-1,-1.137488008E0,-9.487542152E0,-3.511467278E-1
2.025791680E-1,-1.099202871E0,-9.703194618E0,-3.607180119E-1
2.122918240E-1,-1.092024446E0,-9.846764565E0,-2.985046208E-1
2.220052610E-1,-1.127916813E0,-9.992726326E0,1.016949583E-2
2.317195320E-1,-1.063310504E0,-1.008365345E1,8.673982322E-2
2.414329180E-1,-8.910273314E-1,-1.017218781E1,1.971087605E-1
2.511455740E-1,-7.283154130E-1,-1.024187946E1,6.278168559E-1
2.608590110E-1,-6.658028960E-1,-1.037827015E1,9.104689956E-1
2.705733340E-1,-5.892325640E-1,-1.056251717E1,8.889335990E-1
2.802867200E-1,-4.145565331E-1,-1.070847988E1,8.578268886E-1
2.899993760E-1,-4.600201547E-1,-1.106770229E1,4.986044168E-1
2.997128130E-1,-5.844469070E-1,-1.193210888E1,-3.945166469E-1
3.094270840E-1,-6.346961856E-1,-1.310997581E1,-1.299302697E0
3.191404700E-1,-6.586244106E-1,-1.423998642E1,-2.007877350E0
3.288531260E-1,-7.689933777E-1,-1.503709602E1,-3.075674295E0
3.385665630E-1,-1.013061285E0,-1.525274849E1,-4.311268330E0
3.482808860E-1,-1.501496196E0,-1.479781342E1,-4.948058128E0
3.579942720E-1,-2.416152716E0,-1.384965706E1,-5.019842625E0
3.677069280E-1,-3.543770313E0,-1.277228928E1,-4.909772873E0
3.774203660E-1,-4.304986954E0,-1.199671555E1,-4.639084816E0
3.871346360E-1,-4.608875751E0,-1.138624668E1,-4.222434521E0
3.968480220E-1,-4.551447868E0,-1.092891788E1,-3.880260944E0
4.065606780E-1,-4.237987995E0,-1.065344429E1,-3.437289715E0
4.162742200E-1,-3.893122435E0,-1.049791145E1,-2.419741869E0
4.259884380E-1,-3.510270834E0,-1.036391354E1,-1.148554921E0
4.357018240E-1,-3.299403429E0,-1.028255749E1,-1.716850251E-1
4.454144800E-1,-3.230011463E0,-1.030648518E1,6.804589629E-1
4.551279180E-1,-3.246761322E0,-1.045484066E1,1.552044630E0
4.648422410E-1,-3.337688446E0,-1.067498016E1,1.937588096E0
4.745556260E-1,-3.613162279E0,-1.089541912E1,1.808076620E0
4.842682820E-1,-3.732803345E0,-1.101984596E1,1.949552298E0
4.939817200E-1,-3.546163082E0,-1.099831009E1,1.954337835E0
5.036959910E-1,-3.421437263E0,-1.091695404E1,1.566401482E0
5.134094280E-1,-3.105584621E0,-1.094806099E1,1.183250785E0
5.231220840E-1,-2.899502754E0,-1.099831009E1,1.281356573E0
5.328355220E-1,-2.708076954E0,-1.117777157E1,2.978765011E0
5.425497930E-1,-2.820539713E0,-1.105573750E1,2.440380096E0
5.522631780E-1,-1.942074656E0,-1.067258739E1,-3.583251834E-1
5.619758340E-1,-1.168594718E0,-1.010518932E1,-2.529811859E0
5.716893760E-1,-4.504488707E-1,-9.375079155E0,-3.559323788E0
5.814035950E-1,4.402793646E-1,-8.676075935E0,-3.765405416E0
5.911169800E-1,8.255237937E-1,-7.953144073E0,-3.559323788E0
6.008296360E-1,4.666004181E-1,-7.098308563E0,-2.999104023E0
6.105430740E-1,-3.332005441E-1,-6.250949860E0,-2.079961061E0
6.202573970E-1,-9.652048349E-1,-5.791228771E0,-7.893323898E-1
6.299707820E-1,-1.503889084E0,-5.592325687E0,3.861417472E-1
6.396834380E-1,-1.690529227E0,-5.484648705E0,1.137787223E0
6.493968760E-1,-1.645065546E0,-5.477469921E0,1.310369492E0
6.591111990E-1,-1.647458434E0,-5.556433201E0,1.013360381E0
6.688245840E-1,-1.872682810E0,-5.661717415E0,2.114657015E-1
6.785372410E-1,-1.805384636E0,-5.903691769E0,-6.768696904E-1
6.882506780E-1,-1.671386600E0,-6.066403389E0,-6.720840335E-1
6.979650010E-1,-1.719243050E0,-6.018547058E0,-3.050848842E-2
7.076783860E-1,-1.985145450E0,-5.791228771E0,5.153541565E-1
7.173910430E-1,-2.195713997E0,-5.494219780E0,1.056431174E0
7.271044800E-1,-2.097608089E0,-5.362614632E0,1.247856975E0
7.368188030E-1,-1.853540182E0,-5.484648705E0,1.130608678E0
7.465321880E-1,-1.503889084E0,-5.824728489E0,6.565307379E-1
7.562448450E-1,-1.005882859E0,-6.411269188E0,-1.022931710E-1
7.659583860E-1,-4.049852192E-1,-7.172485828E0,-1.433300734E0
7.756726050E-1,1.145563871E-1,-8.034500122E0,-3.846761465E0
7.853859910E-1,3.729812205E-1,-9.090332985E0,-7.610073090E0
7.950986470E-1,-2.422732860E-1,-1.050748253E1,-1.142154026E1
8.048121880E-1,-1.841576099E0,-1.238913822E1,-1.387328625E1
8.145264070E-1,-3.582055569E0,-1.470210075E1,-1.502483273E1
8.242398450E-1,-4.060919285E0,-1.671536255E1,-1.484028625E1
8.339525010E-1,-3.256332397E0,-1.713919067E1,-1.334656620E1
8.436659380E-1,-2.159821510E0,-1.597328758E1,-1.040877819E1
8.533802610E-1,-1.752742529E0,-1.397647667E1,-6.937391281E0
8.630936470E-1,-1.982752681E0,-1.160399342E1,-4.050151348E0
8.728063030E-1,-2.935694218E0,-9.394221306E0,-2.123031855E0
8.825197410E-1,-4.369593143E0,-7.464709282E0,-8.012964725E-1
8.922340630E-1,-4.826921463E0,-6.370591164E0,-1.310070455E-1
9.019474490E-1,-4.683351994E0,-6.102295876E0,4.845465720E-2
9.116601570E-1,-4.960919380E0,-7.031309128E0,-9.403793216E-1
9.213735950E-1,-5.645565987E0,-9.226723671E0,-2.628216505E0
9.310878660E-1,-4.903491974E0,-1.108445168E1,-3.418147087E0
9.408013030E-1,-3.160619497E0,-1.213789177E1,-4.205684662E0
9.505139590E-1,-2.753540754E0,-1.227428246E1,-5.347659588E0
9.602273970E-1,-3.818944931E0,-1.082363415E1,-5.156233788E0
9.699417200E-1,-4.855635166E0,-9.030213356E0,-3.667000771E0
9.796551050E-1,-5.552245617E0,-7.934001446E0,-2.247458696E0
9.893678130E-1,-4.664209366E0,-7.778169155E0,-1.167697430E0
9.990812510E-1,-3.141477108E0,-7.811668396E0,8.315058947E-1
1.008795574E0,-3.440579891E0,-7.806882858E0,2.493022203E0
1.018508959E0,-3.783052683E0,-7.967501163E0,2.717947483E0
1.028221616E0,-3.704089403E0,-8.204390526E0,1.884945989E0
1.037935157E0,-3.433401346E0,-8.656932831E0,1.214357495E0
1.047649376E0,-3.225225925E0,-9.219545364E0,9.726824164E-1
1.057362813E0,-2.832503796E0,-9.592825890E0,1.396511078E0
1.067075470E0,-2.214856386E0,-9.815657616E0,1.987837434E0
1.076788907E0,-1.676172256E0,-9.954441071E0,2.186441660E0
1.086503230E0,-1.448854089E0,-1.011954594E1,2.219941139E0
1.096216668E0,-1.520638824E0,-1.033759212E1,1.889731646E0
1.105929324E0,-8.934201598E-1,-1.063430214E1,1.805683732E0
1.115642761E0,1.097707376E-1,-1.095045376E1,1.743470430E0
1.125357084E0,1.311565876E0,-1.117777157E1,1.520937920E0
1.135070470E0,2.680858612E0,-1.147956657E1,3.622135222E-1
1.144783178E0,3.779762506E0,-1.135035419E1,-1.816451430E0
1.154496616E0,3.825525284E0,-1.075663471E1,-4.212863445E0
1.164210938E0,3.095116138E0,-1.029930687E1,-4.708476543E0
1.173924324E0,1.843071699E0,-1.009322548E1,-3.688536167E0
1.183637032E0,5.982056856E-1,-9.916155815E0,-2.192423820E0
1.193350470E0,-3.571287692E-1,-9.544969559E0,-1.086341500E0
1.203064793E0,-9.819545746E-1,-9.039784431E0,-4.280161560E-1
1.212778178E0,-1.264606714E0,-8.594719887E0,-1.549352705E-1
1.222490886E0,-1.491924882E0,-8.309675217E0,-3.290131316E-2
1.232204324E0,-1.695314884E0,-8.163712502E0,6.041877344E-2
1.241918647E0,-1.966002941E0,-8.206783295E0,1.585244983E-1
1.251632032E0,-2.358425856E0,-8.455636978E0,1.585244983E-1
1.261344741E0,-2.844467878E0,-8.807681084E0,-2.171486616E-1
1.271058178E0,-3.227618694E0,-9.092725754E0,-7.558328509E-1
1.280772501E0,-3.383152008E0,-9.209974289E0,-1.246660590E0
1.290485938E0,-3.253939629E0,-9.178867340E0,-1.567597985E0
1.300198595E0,-2.822932482E0,-9.145368576E0,-1.696810365E0
1.309912032E0,-2.320140600E0,-9.123832703E0,-1.531705618E0
1.319626355E0,-1.846361756E0,-9.121439934E0,-1.371087432E0
1.329339793E0,-1.532602906E0,-9.128618240E0,-1.442872047E0
1.339052449E0,-1.266999602E0,-9.176474571E0,-1.502991676E0
1.348765991E0,-1.084846020E0,-9.262616158E0,-1.466800332E0
1.358480209E0,-9.508479238E-1,-9.358329773E0,-1.222732425E0
1.368193647E0,-8.694919348E-1,-9.384650230E0,-8.802596331E-1
1.377906303E0,-1.010668516E0,-9.406186104E0,-5.931209326E-1
1.387619845E0,-1.199701428E0,-9.449256897E0,-4.567300081E-1
1.397334116E0,-1.331605792E0,-9.463613510E0,-5.141577721E-1
1.407047501E0,-1.405783296E0,-9.468399048E0,-6.936194897E-1
1.416760209E0,-1.458425403E0,-9.494720459E0,-9.499505758E-1
1.426473647E0,-1.479960799E0,-9.470791817E0,-1.277767301E0
1.436187970E0,-1.472782373E0,-9.468399048E0,-1.543669701E0
1.445901407E0,-1.523031592E0,-9.528220177E0,-1.701596022E0
1.455614063E0,-1.372283816E0,-9.650552750E0,-1.531705618E0
1.465327605E0,-9.556335211E-1,-9.784550667E0,-1.038485050E0
1.475041824E0,-5.389832854E-1,-9.880263329E0,-3.367897868E-1
1.484755261E0,-2.566302419E-1,-9.918548584E0,3.119642437E-1
1.494467918E0,-1.944168471E-2,-1.008365345E1,7.621139884E-1
1.504181459E0,2.533400953E-1,-1.044287586E1,9.750752449E-1
1.513895730E0,4.136592150E-1,-1.082602692E1,8.721838593E-1
1.523609116E0,3.562314808E-1,-1.124955654E1,3.885345757E-1
1.533321824E0,1.265204996E-1,-1.210199928E1,-6.385845542E-1
1.543035261E0,-9.122636169E-2,-1.338036537E1,-2.077568293E0
1.552749584E0,-2.829512656E-1,-1.463958836E1,-3.607180119E0
1.562463022E0,-6.562315822E-1,-1.554467297E1,-5.170590401E0
1.572175678E0,-9.580263495E-1,-1.611924934E1,-6.389135361E0
1.581889220E0,-1.185344458E0,-1.613121414E1,-6.573681831E0
1.591603491E0,-1.530210137E0,-1.554228020E1,-5.283053398E0
1.601316876E0,-2.133500576E0,-1.451037598E1,-3.810869217E0
1.611029584E0,-2.796611547E0,-1.339711475E1,-2.613560438E0
1.620743022E0,-3.096013308E0,-1.244447231E1,-1.651346684E0
1.630457345E0,-3.129513025E0,-1.157288647E1,-9.954141974E-1
1.640170782E0,-3.160619497E0,-1.086909771E1,-3.583251834E-1
1.649883438E0,-3.048156977E0,-1.031605625E1,2.234298140E-1
1.659596980E0,-3.081656456E0,-9.841979027E0,6.996015310E-1
1.669311251E0,-3.471686602E0,-9.559326172E0,1.037288666E0
1.679024636E0,-4.123132706E0,-9.480362892E0,1.331904888E0
1.688737345E0,-4.819743156E0,-9.595218658E0,1.554437399E0
1.698450782E0,-5.286642551E0,-9.918548584E0,1.633400559E0
1.708165105E0,-5.679065228E0,-1.021316528E1,1.523330688E0
1.717878543E0,-5.631208897E0,-1.032562828E1,1.180858016E0
1.727591199E0,-4.960919380E0,-1.010279655E1,7.525427341E-1
1.737304741E0,-3.747160196E0,-9.820443153E0,3.574278951E-1
1.747019011E0,-2.279462576E0,-9.803693771E0,-2.195414752E-1
1.756732397E0,-2.787040234E0,-9.506684303E0,-1.000199914E0
1.766445105E0,-3.462115288E0,-9.377471924E0,-2.099701911E-1
1.776158647E0,-3.952943087E0,-9.446864128E0,7.450651526E-1
1.785872866E0,-3.241975546E0,-9.588040352E0,7.645068169E-1
1.795586303E0,-1.580459356E0,-9.681659698E0,1.252642632E0
1.805299011E0,-4.336991012E-1,-9.427721024E0,-2.841476798E-1
1.815012449E0,6.795616150E-1,-9.253045082E0,-1.983949065E0
1.824726772E0,1.287637711E0,-8.855537415E0,-3.123530865E0
1.834440209E0,1.596610904E0,-8.402995110E0,-3.516252756E0
1.844152866E0,8.350951076E-1,-7.785347462E0,-3.111566782E0
1.853866407E0,-1.872383654E-1,-7.134200573E0,-2.103889227E0
1.863580678E0,-1.082453132E0,-6.504589081E0,-9.978070259E-1
1.873294063E0,-1.482353687E0,-6.166902065E0,3.598206937E-1
1.883006772E0,-1.822433591E0,-5.932405472E0,1.085145116E0
1.892720313E0,-1.970788598E0,-5.930012703E0,1.135394335E0
1.902434532E0,-2.097608089E0,-6.023332596E0,7.692924738E-1
1.912147970E0,-2.176571369E0,-6.114260197E0,4.555336237E-1
1.921860678E0,-2.346461773E0,-6.097510338E0,3.382852972E-1
1.931574116E0,-2.708076954E0,-5.997011662E0,4.962115884E-1
1.941288438E0,-3.040978432E0,-5.829514027E0,7.307082415E-1
1.951001876E0,-3.225225925E0,-5.630610943E0,1.030110121E0
1.960714532E0,-3.241975546E0,-5.331508160E0,1.250249863E0
1.970428074E0,-3.081656456E0,-5.044070244E0,1.200000525E0
1.980142345E0,-2.858824968E0,-4.979464054E0,6.876373887E-1
1.989855730E0,-2.495115757E0,-5.228616714E0,-1.525424421E-1
1.999568438E0,-1.901396751E0,-5.894120216E0,-1.062413216E0
2.009281980E0,-1.298106313E0,-6.954739094E0,-2.611167669E0
2.018996251E0,-8.982058167E-1,-8.292924881E0,-5.275874615E0
2.028709636E0,-9.245268703E-1,-9.729516029E0,-8.433802605E0
2.038422345E0,-1.472782373E0,-1.143649578E1,-1.098096180E1
2.048135782E0,-2.212463617E0,-1.358405399E1,-1.208465195E1
2.057850105E0,-2.358425856E0,-1.585364628E1,-1.232901859E1
2.067563543E0,-1.970788598E0,-1.731865120E1,-1.290838051E1
2.077276251E0,-1.400997639E0,-1.700279999E1,-1.316680527E1
2.086989688E0,-9.005986452E-1,-1.516152287E1,-1.134257793E1
2.096704011E0,-1.003489971E0,-1.292303658E1,-7.576573849E0
2.106417449E0,-1.769492388E0,-1.088106155E1,-3.561716557E0
2.116130105E0,-2.676970243E0,-9.164510727E0,-8.587242365E-1
2.125843647E0,-3.007478952E0,-7.904988766E0,2.090728730E-1
2.135557918E0,-3.026621580E0,-7.443173885E0,-8.793623000E-2
2.145271303E0,-4.288237095E0,-8.850751877E0,-1.194018483E0
2.154984011E0,-5.224429131E0,-1.091456127E1,-9.379864931E-1
2.164697553E0,-3.895515203E0,-1.215942764E1,-1.146162033E0
2.174411824E0,-1.755135417E0,-1.226231861E1,-3.003889799E0
2.184125209E0,-1.747956991E0,-1.125194931E1,-4.500301361E0
2.193837918E0,-4.659423828E0,-1.005494022E1,-4.098007679E0
2.203551459E0,-8.892027855E0,-9.384650230E0,-3.322434187E0
2.213265678E0,-1.042672443E1,-8.285746574E0,-3.844368696E0
2.222979116E0,-7.458128929E0,-7.553243637E0,-3.085245609E0
2.232691824E0,-3.352045536E0,-7.409674644E0,-4.232304990E-1
2.242405261E0,-2.478366137E0,-7.308876991E0,1.812862277E0
2.252119584E0,-2.822932482E0,-7.174878597E0,2.243869543E0
2.261833022E0,-2.732005358E0,-7.383353233E0,2.205584288E0
2.271545730E0,-2.631506681E0,-7.960322857E0,2.334796667E0
2.281259168E0,-2.810968399E0,-8.544470787E0,2.243869543E0
2.290973491E0,-3.000300407E0,-8.889037132E0,2.555235386E0
2.300686928E0,-2.834896564E0,-9.229117393E0,2.856731176E0
2.310399584E0,-2.473580360E0,-9.645767212E0,2.801696301E0
2.320113126E0,-1.836790442E0,-1.019641590E1,2.710768938E0
2.329827397E0,-8.599206209E-1,-1.082841969E1,2.787339211E0
2.339540834E0,1.265204996E-1,-1.131685448E1,3.326023579E0
2.349253491E0,1.041176915E0,-1.167577839E1,3.752244949E0
2.358967032E0,1.596610904E0,-1.186511040E1,3.553640842E0
2.368681303E0,1.948355794E0,-1.176191998E1,1.843968987E0
2.378394688E0,2.484647274E0,-1.118016434E1,-1.363908887E0
2.388107397E0,2.582752943E0,-1.042134094E1,-5.120341301E0
2.397820938E0,1.850250125E0,-9.784550667E0,-7.083353043E0
2.407535209E0,7.010970116E-1,-9.528220177E0,-6.456134796E0
2.417248595E0,-4.815555513E-1,-9.537791252E0,-4.634299278E0
2.426961303E0,-1.276570916E0,-9.461220741E0,-2.601596355E0
2.436674845E0,-1.606780410E0,-9.296115875E0,-1.134197950E0
2.446389063E0,-1.563709617E0,-9.003892899E0,-2.243271172E-1
2.456102501E0,-1.475175142E0,-8.673683167E0,3.263211846E-1
2.465815209E0,-1.494317770E0,-8.426922798E0,5.656034350E-1
2.475528647E0,-1.702493310E0,-8.362317085E0,6.278168559E-1
2.485242970E0,-1.817647934E0,-8.544470787E0,5.751747489E-1
2.494956407E0,-1.882254124E0,-8.860322952E0,1.226321608E-1
2.504669116E0,-1.910967946E0,-9.068798065E0,-3.607180119E-1
2.514382553E0,-1.735992789E0,-9.176474571E0,-6.792625189E-1
2.524096876E0,-1.525424480E0,-9.322437286E0,-7.941179872E-1
2.533810313E0,-1.293320656E0,-9.401400566E0,-6.337988973E-1
2.543522970E0,-1.132702470E0,-9.420542717E0,-3.128615618E-1
2.553236511E0,-1.142273664E0,-9.439684868E0,-1.716850251E-1
2.562950782E0,-1.257428288E0,-9.439684868E0,-2.267199457E-1
2.572664220E0,-1.357926846E0,-9.372686386E0,-2.865405083E-1
2.582376876E0,-1.489532113E0,-9.336793900E0,-4.184448719E-1
2.592090418E0,-1.575673699E0,-9.310472488E0,-7.271189690E-1
2.601804688E0,-1.580459356E0,-9.403793335E0,-1.246660590E0
2.611518126E0,-1.724028707E0,-9.516255379E0,-1.756630898E0
2.621230782E0,-2.095215321E0,-9.552147865E0,-2.154138565E0
2.630944324E0,-2.406581402E0,-9.509077072E0,-2.402992249E0
2.640658595E0,-2.430509567E0,-9.351150513E0,-2.429313183E0
2.650371980E0,-2.202892303E0,-9.114261627E0,-2.101496458E0
2.660084688E0,-1.903789520E0,-8.922536850E0,-1.565205097E0
2.669798230E0,-1.731207132E0,-8.838788033E0,-1.071984529E0
2.679512501E0,-1.621137381E0,-8.917751312E0,-7.582256794E-1
2.689225886E0,-1.429711580E0,-9.202795982E0,-6.146563292E-1
2.698938595E0,-1.001097202E0,-9.600004196E0,-4.064807594E-1
2.708652136E0,-4.552344978E-1,-1.000947666E1,-1.190429255E-1
2.718366355E0,-9.361918271E-2,-1.023948669E1,3.478565812E-1
2.728079793E0,7.866404206E-2,-1.031844902E1,8.051848412E-1
2.737792501E0,1.743769497E-1,-1.047159004E1,1.144965649E0
2.747505938E0,3.466601670E-1,-1.079252720E1,1.394118309E0
2.757220261E0,5.958128572E-1,-1.127348518E1,1.549651742E0
2.766933699E0,8.063812256E-1,-1.175474167E1,1.528116345E0
2.776646355E0,6.221339107E-1,-1.213310623E1,1.140179992E0
2.786359897E0,9.302098304E-2,-1.258804131E1,5.991029739E-1
2.796074168E0,-4.480560422E-1,-1.339711475E1,8.913264424E-2
2.805787605E0,-8.766704202E-1,-1.424716473E1,-8.491529226E-1
2.815500261E0,-1.365105271E0,-1.456541061E1,-2.960819006E0
2.825213803E0,-2.200499535E0,-1.401715469E1,-5.845665932E0
2.834928074E0,-2.834896564E0,-1.310040474E1,-7.954938889E0
2.844641459E0,-2.755933523E0,-1.239392376E1,-8.084151268E0
2.854354168E0,-2.126322031E0,-1.212114239E1,-6.631109715E0
2.864067709E0,-2.121536493E0,-1.195843029E1,-4.567300320E0
2.873781980E0,-2.645863533E0,-1.169013500E1,-2.924926519E0
2.883495366E0,-3.155833960E0,-1.136949635E1,-1.988734722E0
2.893208074E0,-3.452543974E0,-1.104138088E1,-1.430907965E0
2.902921511E0,-3.478864908E0,-1.073958588E1,-1.093519926E0
2.912635834E0,-3.325724363E0,-1.035912704E1,-7.558328509E-1
2.922349272E0,-3.210868835E0,-9.906584740E0,-3.921238184E-1
2.932061980E0,-3.543770313E0,-9.600004196E0,-4.965107143E-2
2.941775418E0,-3.917050600E0,-9.616754532E0,4.387838542E-1
2.951489741E0,-4.075275898E0,-9.987940788E0,8.338986635E-1
2.961203178E0,-4.036691666E0,-1.055533886E1,9.822536707E-1
2.970915834E0,-4.345664978E0,-1.108205891E1,1.075573802E0
2.980629376E0,-4.657031059E0,-1.140538883E1,1.068395257E0
2.990343647E0,-4.802993298E0,-1.144128132E1,8.434699774E-1
3.000057084E0,-4.743172646E0,-1.120887852E1,4.674977362E-1
3.009769741E0,-4.271487713E0,-1.093848991E1,1.082752272E-1
3.019483282E0,-4.015156269E0,-1.064387321E1,-1.740778536E-1
3.029197553E0,-4.166203499E0,-1.031844902E1,8.769695163E-1
3.038910938E0,-4.388735771E0,-9.918548584E0,1.044467092E0
3.048623647E0,-3.519842148E0,-9.564111710E0,-1.884347796E-1
3.058337084E0,-2.308176517E0,-9.056534767E0,-9.032905847E-2
3.068051407E0,-1.099202871E0,-8.508578300E0,-4.926223755E-1
3.077764845E0,-4.480560422E-1,-7.962715626E0,-8.802596331E-1
3.087477501E0,9.062815458E-2,-7.514958382E0,-1.641775489E0
3.097191043E0,3.203391433E-1,-7.201199532E0,-2.522633314E0
3.106905313E0,-5.533402413E-2,-6.926024914E0,-2.807678223E0
3.116618751E0,-1.968096644E-1,-6.890132904E0,-1.359123230E0
3.126331407E0,-2.685943544E-1,-6.988238335E0,-4.007977992E-2
3.136044949E0,-5.054838061E-1,-7.009773731E0,4.890331328E-1
3.145759220E0,-7.235297561E-1,-7.067201614E0,4.268197417E-1
3.155472605E0,-1.056132078E0,-7.086344242E0,1.106680483E-1
3.165185313E0,-1.326820135E0,-6.995417118E0,-8.973085321E-3
3.174898751E0,-1.542174220E0,-6.849454880E0,-9.990034252E-2
3.184613074E0,-1.791027784E0,-6.593123913E0,4.127619043E-2
3.194326511E0,-2.054537296E0,-6.198009014E0,3.311068416E-1
3.204039168E0,-2.339283228E0,-5.767300606E0,6.876373887E-1
3.213752709E0,-2.466402054E0,-5.391328335E0,1.066002488E0
3.223466980E0,-2.507079840E0,-5.082355499E0,1.207179070E0
3.233180418E0,-2.456830740E0,-4.895715237E0,9.894321561E-1
3.242893074E0,-2.344068766E0,-4.936393261E0,4.722833633E-1
3.252606616E0,-2.257927179E0,-5.214259624E0,-2.578266263E-1
3.262320886E0,-2.073679924E0,-5.752943993E0,-1.282552958E0
3.272034272E0,-1.776670814E0,-6.655336857E0,-2.659323215E0
3.281746980E0,-1.580459356E0,-7.835597038E0,-4.545764923E0
3.291460418E0,-1.568495274E0,-9.085547447E0,-6.860820770E0
3.301174741E0,-1.903789520E0,-1.034237766E1,-9.020342827E0
3.310888178E0,-2.521436930E0,-1.175234795E1,-1.071296597E1
3.320600834E0,-3.210868835E0,-1.334925842E1,-1.134257793E1
3.330314376E0,-3.282653570E0,-1.482174206E1,-1.159621716E1
3.340028647E0,-2.418545485E0,-1.575284863E1,-1.162522984E1
3.349742032E0,-1.752742529E0,-1.545374584E1,-1.068903828E1
3.359454741E0,-1.829612017E0,-1.403869057E1,-8.931808472E0
3.369168178E0,-2.444866419E0,-1.236521053E1,-6.810571671E0
3.378882501E0,-3.373580933E0,-1.073001480E1,-4.701298237E0
3.388595938E0,-4.115953922E0,-9.293723106E0,-3.466003656E0
3.398308595E0,-3.952943087E0,-8.268997192E0,-3.410968781E0
3.408022136E0,-3.373580933E0,-7.603493214E0,-3.320041418E0
3.417736407E0,-3.000300407E0,-7.558029652E0,-3.207578659E0
3.427449793E0,-4.415056705E0,-9.025427818E0,-3.032603502E0
3.437162501E0,-5.885147095E0,-1.095045376E1,-1.021735311E0
3.446875938E0,-5.178965569E0,-1.199910831E1,-3.128615618E-1
3.456590261E0,-3.304188967E0,-1.220728397E1,-1.864308000E0
3.466303699E0,-2.571686029E0,-1.133599758E1,-3.899403572E0
3.476016355E0,-3.665804386E0,-1.002144051E1,-4.741976261E0
3.485729897E0,-6.541079998E0,-9.760622978E0,-4.169792652E0
3.495444168E0,-7.618448257E0,-9.899406433E0,-3.113959551E0
3.505157553E0,-4.494019985E0,-9.813264847E0,-1.699203134E0
3.514870261E0,-1.980359793E0,-8.927322388E0,4.387838542E-1
3.524583699E0,-1.731207132E0,-8.020143509E0,2.248655081E0
3.534298022E0,-2.107179403E0,-7.471887589E0,2.576770782E0
3.544011459E0,-2.545365095E0,-7.306483746E0,2.023729801E0
3.553724116E0,-2.866003275E0,-7.440781116E0,1.585544109E0
3.563437657E0,-3.103191853E0,-7.648956776E0,1.420439363E0
3.573151876E0,-3.201297522E0,-7.849953651E0,1.702792406E0
3.582865313E0,-2.875574589E0,-8.297710419E0,2.258226395E0
3.592578022E0,-2.691327333E0,-8.948857307E0,2.722733021E0
3.602291459E0,-2.557329178E0,-9.818050385E0,3.096312523E0
3.612005782E0,-1.963610053E0,-1.076620674E1,3.278167009E0
3.621719168E0,-1.034596682E0,-1.152263737E1,3.579961777E0
3.631431876E0,-4.576273263E-2,-1.201585770E1,3.780958891E0
3.641145313E0,5.886343718E-1,-1.217378426E1,3.369094372E0
3.650859636E0,8.303094506E-1,-1.180977631E1,1.860718727E0
3.660573074E0,1.067497969E0,-1.084516907E1,-7.965108156E-1
3.670285730E0,1.237388372E0,-9.806086540E0,-4.380660057E0
3.679999272E0,9.834501147E-1,-9.126225471E0,-7.021139622E0
3.689713543E0,1.289133132E-1,-8.924929619E0,-7.054639339E0
3.699426928E0,-9.293124676E-1,-8.972785950E0,-5.371587753E0
3.709139636E0,-1.530210137E0,-9.059226990E0,-3.300898790E0
3.718853074E0,-1.702493310E0,-9.284152031E0,-1.505384564E0
3.728567397E0,-1.774278045E0,-9.334401131E0,-4.591228366E-1
3.738280834E0,-2.035394669E0,-9.001500130E0,6.041877344E-2
3.747993491E0,-2.198106766E0,-8.592327118E0,4.244269133E-1
3.757706928E0,-2.138286114E0,-8.398209572E0,5.919244885E-1
3.767421251E0,-1.913360834E0,-8.491529465E0,6.996015310E-1
3.777134688E0,-1.561316729E0,-8.757431984E0,5.632106066E-1
3.786847345E0,-1.202094316E0,-9.116654396E0,2.928216755E-1
3.796560886E0,-1.053739309E0,-9.324830055E0,-1.022931710E-1
3.806275157E0,-1.005882859E0,-9.410971642E0,-4.064807594E-1
3.815988543E0,-9.029914737E-1,-9.501898766E0,-4.447658956E-1
3.825701251E0,-7.737790346E-1,-9.592825890E0,-3.583251834E-1
3.835414688E0,-6.179464459E-1,-9.700801849E0,-2.171486616E-1
3.845129011E0,-5.270192027E-1,-9.765408516E0,-1.453639716E-1
3.854842397E0,-5.796613097E-1,-9.739087105E0,-1.094716340E-1
3.864555105E0,-8.072785139E-1,-9.576076508E0,-1.980060786E-1
3.874268543E0,-1.099202871E0,-9.396614075E0,-4.064807594E-1
3.883982866E0,-1.377069473E0,-9.298508644E0,-6.864410043E-1
3.893696303E0,-1.743171334E0,-9.286544800E0,-1.086341500E0
3.903408959E0,-2.236391783E0,-9.343972206E0,-1.620239973E0
3.913122501E0,-2.784647465E0,-9.379864693E0,-2.156531334E0
3.922836720E0,-3.069692373E0,-9.384650230E0,-2.513062000E0
3.932550157E0,-2.945265532E0,-9.262616158E0,-2.414956331E0
3.942262813E0,-2.653042078E0,-9.046963692E0,-1.921735644E0
3.951976355E0,-2.387438774E0,-8.927322388E0,-1.342373490E0
3.961690626E0,-2.183749676E0,-8.970393181E0,-8.156534433E-1
3.971404011E0,-2.023430586E0,-9.090332985E0,-3.631108403E-1
3.981116720E0,-1.848754644E0,-9.119047165E0,-1.142572835E-1
3.990830157E0,-1.558923960E0,-9.205188751E0,-1.022931710E-1
4.000544480E0,-1.003489971E0,-9.432506561E0,-7.597211748E-2
4.010257918E0,-5.892325640E-1,-9.626625061E0,7.238288224E-2
4.019970574E0,-2.925225794E-1,-9.743872643E0,3.646063507E-1
4.029684116E0,4.486542661E-3,-9.911370277E0,7.860422134E-1
4.039398334E0,3.610171080E-1,-1.021077251E1,1.255035520E0
4.049111772E0,8.925228715E-1,-1.087388325E1,1.501795292E0
4.058824480E0,1.507777333E0,-1.199671555E1,1.106680512E0
4.068537918E0,1.819143414E0,-1.322483158E1,6.158527136E-1
4.078252241E0,1.469492197E0,-1.444337654E1,6.230311990E-1
4.087965626E0,7.872386575E-1,-1.524796295E1,8.051848412E-1
4.097678334E0,-1.776670814E-1,-1.539871120E1,3.909274042E-1
4.107391772E0,-1.432104349E0,-1.458694553E1,-1.335195065E0
4.117106095E0,-3.124727249E0,-1.335643673E1,-4.279862404E0
4.126819532E0,-4.467699051E0,-1.254497051E1,-7.500003338E0
4.136532188E0,-5.207679272E0,-1.238435268E1,-9.664311409E0
4.146245730E0,-5.415854931E0,-1.245165062E1,-1.006181908E1
4.155960001E0,-5.198108196E0,-1.236281776E1,-8.266304970E0
4.165673386E0,-4.594518661E0,-1.215224934E1,-4.545764923E0
4.175386095E0,-4.633102894E0,-1.169731331E1,-2.273779631E0
4.185099532E0,-4.709673405E0,-1.149153042E1,-1.244267821E0
4.194813855E0,-4.584947109E0,-1.096481037E1,-2.626122832E-1
4.204527293E0,-4.453341961E0,-1.033998489E1,4.316053987E-1
4.214239949E0,-4.482056141E0,-9.731908798E0,1.238285661E0
4.223953491E0,-4.553840637E0,-9.267401695E0,1.961516380E0
4.233667761E0,-4.968098164E0,-8.979964256E0,2.318047047E0
4.243381147E0,-5.707779408E0,-8.874680519E0,2.279761791E0
4.253093855E0,-6.320940018E0,-9.008678436E0,2.018944025E0
4.262807293E0,-6.567400932E0,-9.198010445E0,1.793719649E0
4.272521616E0,-6.421438694E0,-9.358329773E0,1.575972795E0
4.282235053E0,-6.050251961E0,-9.451649666E0,1.695613980E0
4.291947709E0,-5.490032673E0,-9.212367058E0,1.808076620E0
4.301661251E0,-4.427021027E0,-9.046963692E0,1.492223978E0
4.311375522E0,-3.498306751E0,-9.090332985E0,-4.567300081E-1
4.321088907E0,-2.971586704E0,-8.934500694E0,-2.513062000E0
4.330801616E0,-2.645863533E0,-8.568398476E0,-3.758227110E0
4.340515053E0,-1.704886079E0,-8.400602341E0,-3.406183004E0
4.350229376E0,-7.785646915E-1,-8.376673698E0,-2.381456852E0
4.359942813E0,-3.188436031E-1,-8.374280930E0,-1.007378340E0
4.369655470E0,4.546363056E-1,-8.268997192E0,1.393819153E-1
4.379369011E0,3.251247704E-1,-8.132605553E0,7.331010103E-1
4.389083282E0,-2.327020019E-1,-7.871489048E0,7.426723242E-1
4.398796668E0,-7.307082415E-1,-7.617849827E0,-1.381855011E-1
4.408509376E0,-1.218844056E0,-7.462316513E0,-1.217946768E0
4.418222918E0,-1.716850281E0,-7.306483746E0,-1.861915112E0
4.427937136E0,-1.968395710E0,-7.265805721E0,-1.761416554E0
4.437650574E0,-2.145464659E0,-7.256234646E0,-1.268195987E0
4.447363282E0,-2.432902336E0,-7.122236729E0,-8.180462122E-1
4.457076720E0,-2.767897606E0,-6.837490559E0,-4.447658956E-1
4.466791043E0,-3.012264490E0,-6.463911057E0,1.734796353E-2
4.476504480E0,-3.084049225E0,-5.980261803E0,4.938187599E-1
4.486217136E0,-2.894717216E0,-5.577968597E0,7.163512707E-1
4.495930678E0,-2.667398930E0,-5.422435284E0,6.517450809E-1
4.505644949E0,-2.631506681E0,-5.446363449E0,2.688934505E-1
4.515358386E0,-2.887538671E0,-5.527719498E0,-3.969094455E-1
4.525071043E0,-3.151048422E0,-5.671288967E0,-1.048056364E0
4.534784584E0,-3.258725405E0,-5.963512421E0,-1.646561027E0
4.544498855E0,-3.306581736E0,-6.425626278E0,-2.465205431E0
4.554212241E0,-3.390330553E0,-7.069594383E0,-3.741178274E0
4.563924949E0,-3.680161238E0,-7.895417213E0,-5.898307800E0
4.573638491E0,-4.034298897E0,-8.905786514E0,-8.900702477E0
4.583352709E0,-4.240380764E0,-1.007647514E1,-1.137607670E1
4.593066147E0,-4.070490360E0,-1.127587795E1,-1.208225918E1
4.602778855E0,-3.265903711E0,-1.233888912E1,-1.071296597E1
4.612492397E0,-1.539781332E0,-1.308604813E1,-8.699405670E0
4.622206616E0,4.618147612E-1,-1.332532978E1,-7.088139057E0
4.631920053E0,1.876571178E0,-1.321047497E1,-6.238387585E0
4.641632761E0,1.654038668E0,-1.284168053E1,-5.618347645E0
4.651346199E0,2.796611488E-1,-1.203978634E1,-4.330410957E0
4.661060522E0,-7.737790346E-1,-1.085713387E1,-2.608774900E0
4.670773959E0,-1.439282775E0,-9.813264847E0,-2.000698805E0
4.680486668E0,-1.970788598E0,-9.229117393E0,-1.950449586E0
4.690200105E0,-2.715255499E0,-9.825228691E0,-2.529811859E0
4.699914428E0,-3.759124279E0,-1.135035419E1,-2.939283609E0
4.709627866E0,-4.810171604E0,-1.307408428E1,-2.700001240E0
4.719340522E0,-5.408676624E0,-1.414905930E1,-3.140280724E0
4.729054063E0,-5.995217323E0,-1.318415356E1,-4.495515347E0
4.738768334E0,-7.558627605E0,-1.072522926E1,-5.175376415E0
4.748481772E0,-9.085846901E0,-8.280961037E0,-4.485944271E0
4.758194480E0,-9.406784058E0,-6.564409733E0,-2.967997313E0
4.767907918E0,-7.314260483E0,-5.633003712E0,-1.239482164E0
4.777622241E0,-5.025525570E0,-5.434399128E0,4.292125702E-1
4.787335678E0,-4.127918243E0,-5.865406513E0,1.458724499E0
4.797048386E0,-4.003192425E0,-6.648158550E0,1.956730723E0
4.806761824E0,-3.728017569E0,-7.593921661E0,2.083550215E0
4.816476147E0,-3.330509901E0,-8.379066467E0,1.973480463E0
4.826189584E0,-3.031407118E0,-9.006285667E0,2.071586132E0
4.835902293E0,-2.925823927E0,-9.544969559E0,2.394617319E0
4.845615730E0,-2.889931440E0,-1.005254745E1,2.942872763E0
4.855330053E0,-2.514258385E0,-1.070608711E1,3.361915827E0
4.865043491E0,-2.195713997E0,-1.138863945E1,3.783351660E0
4.874756199E0,-1.429711580E0,-1.213549900E1,4.027419567E0
4.884469636E0,-2.901297510E-1,-1.262632656E1,4.705186844E0
4.894183959E0,6.723831892E-1,-1.271964741E1,5.325226784E0
4.903897397E0,1.280459166E0,-1.247797203E1,5.016253471E0
4.913610105E0,1.689931035E0,-1.192732334E1,3.512663603E0
4.923323647E0,2.293221474E0,-1.103420258E1,3.430709541E-1
4.933037918E0,2.855833769E0,-1.003818989E1,-4.435695171E0
4.942751303E0,2.889333248E0,-9.315258980E0,-7.806583881E0
4.952464011E0,2.099103689E0,-9.003892899E0,-7.657929897E0
4.962177553E0,1.043569803E0,-8.996713638E0,-5.089234829E0
4.971891824E0,8.823533356E-2,-8.968000412E0,-2.446063042E0
4.981605209E0,-5.796613097E-1,-8.941679001E0,-5.309075117E-1
4.991317918E0,-1.008275628E0,-9.013463974E0,7.668996453E-1
5.001031459E0,-1.274178028E0,-9.073583603E0,1.312762380E0
5.010745730E0,-1.460818172E0,-9.092725754E0,1.456331730E0
5.020459168E0,-1.566102386E0,-9.083154678E0,1.688435435E0
5.030171824E0,-1.594816327E0,-9.288937569E0,1.403689623E0
5.039885366E0,-1.393819213E0,-9.770194054E0,3.646063507E-1
5.049599636E0,-1.096810102E0,-1.014586735E1,-8.252246976E-1
5.059313074E0,-7.450651526E-1,-1.022752190E1,-1.629811287E0
5.069025782E0,-5.174478889E-1,-9.990333557E0,-1.735095501E0
5.078739220E0,-4.935196638E-1,-9.631410599E0,-1.387837172E0
5.088453543E0,-4.169493318E-1,-9.399007797E0,-1.028913736E0
5.098166980E0,-2.829512656E-1,-9.243474007E0,-6.912266612E-1
5.107879688E0,-1.728814393E-1,-9.320044518E0,-4.112663865E-1
5.117593230E0,2.602194622E-2,-9.432506561E0,-1.118644550E-1
5.127307501E0,1.648056656E-1,-9.444471359E0,1.561316848E-1
5.137020886E0,-1.127617657E-1,-9.418149948E0,2.808575630E-1
5.146733595E0,-6.155536175E-1,-9.406186104E0,3.191427290E-1
5.156447136E0,-1.103988528E0,-9.477970123E0,3.071786165E-1
5.166161407E0,-1.601994753E0,-9.566504478E0,1.441675574E-1
5.175874845E0,-2.174178362E0,-9.674481392E0,-2.171486616E-1
5.185587553E0,-2.815753937E0,-9.672088623E0,-8.970093727E-1
5.195300991E0,-3.261118174E0,-9.513862610E0,-1.759023786E0
5.205015313E0,-3.426223040E0,-9.286544800E0,-2.621038198E0
5.214728751E0,-3.304188967E0,-9.154939651E0,-3.200400352E0
5.224441459E0,-3.062513828E0,-9.150154114E0,-3.241078377E0
5.234155001E0,-2.827718258E0,-9.315258980E0,-2.767000198E0
5.243869272E0,-2.461616278E0,-9.573683739E0,-2.134995937E0
5.253582709E0,-1.954038739E0,-9.873085022E0,-1.546062589E0
5.263295418E0,-1.230808139E0,-1.030648518E1,-4.854438901E-1
5.273008855E0,-5.485545993E-1,-1.079252720E1,1.824527234E-1
5.282723230E0,-1.848455518E-1,-1.105095196E1,5.679962635E-1
5.292436616E0,9.541380405E-2,-1.109162998E1,9.942178130E-1
5.302149324E0,1.839482337E-1,-1.100070286E1,1.343868971E0
5.311862866E0,1.049850956E-1,-1.094806099E1,1.492223978E0
5.321577136E0,4.995017126E-2,-1.101505947E1,1.456331730E0
5.331290574E0,-4.576273263E-2,-1.107009506E1,1.343868971E0
5.341003282E0,-1.920240223E-1,-1.116820049E1,1.164108157E0
5.350716824E0,-3.379862010E-1,-1.154417324E1,6.996015310E-1
5.360431095E0,-4.456632137E-1,-1.254018497E1,-6.640082598E-2
5.370144532E0,-3.260220885E-1,-1.387358570E1,-9.547362328E-1
5.379857188E0,1.645065658E-2,-1.506102371E1,-1.936092615E0
5.389570730E0,2.198405862E-1,-1.552553082E1,-3.075674295E0
5.399285053E0,-1.223330572E-1,-1.481934929E1,-4.193720818E0
5.408998438E0,-6.777670383E-1,-1.359841156E1,-4.808975220E0
5.418711147E0,-9.556335211E-1,-1.279143143E1,-4.591228485E0
5.428424688E0,-1.221236825E0,-1.254257774E1,-3.688536167E0
5.438138959E0,-1.800599098E0,-1.222881889E1,-2.697608471E0
5.447852397E0,-2.641077995E0,-1.171645641E1,-2.031805515E0
5.457565105E0,-3.594019651E0,-1.113470078E1,-1.864308000E0
5.467278647E0,-4.441378117E0,-1.054337502E1,-1.998306036E0
5.476992918E0,-4.987240791E0,-1.003340435E1,-2.216351986E0
5.486706355E0,-5.212464809E0,-9.559326172E0,-2.206780672E0
5.496419063E0,-5.389533997E0,-9.080761909E0,-1.912164450E0
5.506132605E0,-5.659923077E0,-8.975178719E0,-1.433300734E0
5.515846876E0,-5.870790482E0,-9.327222824E0,-9.571290612E-1
5.525560313E0,-5.571388245E0,-1.004297543E1,-5.404788256E-1
5.535273022E0,-4.953741074E0,-1.087388325E1,-1.238285750E-1
5.544986563E0,-4.285844326E0,-1.161356449E1,2.641077936E-1
5.554700834E0,-3.818944931E0,-1.182174015E1,7.259225845E-1
5.564414272E0,-3.605983734E0,-1.163988590E1,1.278963685E0
5.574126980E0,-3.637090445E0,-1.116820049E1,1.812862277E0
5.583840522E0,-3.876372576E0,-1.046919727E1,1.654935956E0
5.593554793E0,-3.637090445E0,-9.729516029E0,2.205584288E0
5.603268230E0,-2.921038151E0,-9.150154114E0,3.543770313E0
5.612980938E0,-2.607578516E0,-8.666504860E0,3.642175198E0
5.622694480E0,-2.516651154E0,-8.173283577E0,2.217548370E0
5.632408751E0,-1.453639746E0,-8.118248940E0,1.295713425E0
5.642122293E0,-9.221340418E-1,-8.115856171E0,5.943173170E-1
5.651834949E0,-6.729813665E-2,-8.266604424E0,-1.893021822E0
5.661548491E0,2.533400953E-1,-8.414958954E0,-4.674977303E0
5.671262761E0,2.509472668E-1,-8.814859390E0,-5.484349728E0
5.680976199E0,-1.848455518E-1,-9.018249512E0,-4.871487617E0
5.690688907E0,-1.092024446E0,-8.939286232E0,-3.372683525E0
5.700402449E0,-2.164607286E0,-8.649754524E0,-1.866700768E0
5.710116720E0,-2.923431158E0,-8.163712502E0,-4.495515525E-1
5.719830157E0,-3.033800125E0,-7.706384659E0,7.283154130E-1
5.729542866E0,-3.306581736E0,-7.040880680E0,7.211369276E-1
5.739256407E0,-3.249154091E0,-6.655336857E0,5.943173170E-1
5.748970730E0,-2.679363251E0,-6.454339981E0,6.876373887E-1
5.758684168E0,-2.233999014E0,-6.291627884E0,2.665006220E-1
5.768396876E0,-2.052144527E0,-6.047261238E0,-3.801597059E-1
5.778110418E0,-1.966002941E0,-5.760122299E0,-7.965108156E-1
5.787824688E0,-1.836790442E0,-5.472684383E0,-1.026520967E0
5.797538126E0,-1.704886079E0,-5.192724228E0,-8.802596331E-1
5.807250834E0,-1.700100541E0,-5.012963295E0,-3.367897868E-1
5.816964376E0,-1.635494232E0,-5.003392220E0,4.268197417E-1
5.826678699E0,-1.362712502E0,-5.171188831E0,1.221535921E0
5.836392136E0,-1.080060363E0,-5.518147945E0,1.642971873E0
5.846104845E0,-8.718847632E-1,-5.961119175E0,1.535294771E0
5.855818386E0,-7.211369276E-1,-6.449554443E0,1.219143152E0
5.865532657E0,-5.676971674E-1,-6.914061069E0,3.287140131E-1
5.875246095E0,-2.805584669E-1,-7.541279793E0,-1.371087432E0
5.884958855E0,2.629113793E-1,-8.426922798E0,-4.196113586E0
5.894672397E0,8.183453679E-1,-9.717552185E0,-7.935796261E0
5.904386668E0,7.657032609E-1,-1.121127129E1,-1.190997601E1
5.914100105E0,-1.824527234E-1,-1.304058456E1,-1.469432354E1
5.923812813E0,-1.276570916E0,-1.500120354E1,-1.539093399E1
5.933526407E0,-1.879861236E0,-1.636122322E1,-1.420349598E1
5.943240678E0,-2.214856386E0,-1.634178162E1,-1.199851036E1
5.952954116E0,-2.406581402E0,-1.526710606E1,-9.523135185E0
5.962666824E0,-3.428615808E0,-1.365344620E1,-7.385148048E0
5.972380418E0,-5.451747417E0,-1.139581776E1,-5.467599869E0
5.982094688E0,-7.113263607E0,-9.025427818E0,-3.609572887E0
5.991808126E0,-7.924729347E0,-6.957131863E0,-2.474776745E0
6.001520834E0,-7.673482895E0,-5.489434242E0,-1.536491275E0
6.011234428E0,-6.967301369E0,-5.140082359E0,-8.467600942E-1
6.020948699E0,-7.685447216E0,-6.679265499E0,-6.385845542E-1
6.030662136E0,-7.812266827E0,-8.884251595E0,-4.782654345E-1
6.040374845E0,-5.571388245E0,-1.025145054E1,-1.196411371E0
6.050088438E0,-2.803789854E0,-1.099591732E1,-3.568894863E0
6.059802709E0,-1.951645970E0,-1.129502010E1,-5.960521221E0
6.069516147E0,-2.827718258E0,-1.140538883E1,-6.829713821E0
6.079228907E0,-4.046263218E0,-1.231735325E1,-6.609574318E0
6.088942449E0,-4.496412754E0,-1.313629723E1,-4.765904427E0
6.098656720E0,-2.100000858E0,-1.251386452E1,-1.660917997E0
6.108370261E0,-6.900302172E-1,-1.060319519E1,1.398903966E0
6.118082918E0,-1.075274706E0,-8.431708336E0,2.849552631E0
6.127796459E0,-1.611566067E0,-6.882954121E0,2.780160904E0
6.137510782E0,-1.666600943E0,-6.250949860E0,2.090728760E0
6.147224220E0,-1.654636860E0,-6.265306950E0,1.614257932E0
6.156936928E0,-1.966002941E0,-6.550053120E0,1.635793328E0
6.166650522E0,-2.241177559E0,-7.036095142E0,1.954337835E0
6.176364793E0,-2.564507723E0,-7.567600727E0,2.054836512E0
6.186078230E0,-2.760719061E0,-8.469993591E0,2.035693884E0
6.195790991E0,-2.724826813E0,-9.853942871E0,1.928016901E0
6.205504532E0,-2.092822552E0,-1.125194931E1,1.803290963E0
6.215218855E0,-9.795617461E-1,-1.229103279E1,1.674078584E0
6.224932293E0,2.437688112E-1,-1.292064381E1,1.406082392E0
6.234645001E0,1.033998489E0,-1.291107273E1,6.732804775E-1
6.244358595E0,1.136889815E0,-1.216421318E1,-6.553342938E-1
6.254072866E0,1.098604679E0,-1.107009506E1,-2.300100803E0
6.263786407E0,7.034898400E-1,-1.011236763E1,-3.818047523E0
6.273499063E0,4.486542661E-3,-9.501898766E0,-4.524229527E0
6.283212605E0,-6.418746710E-1,-9.236295700E0,-4.126721859E0
6.292926928E0,-9.771689177E-1,-8.996713638E0,-3.149851799E0
6.302640366E0,-1.170987606E0,-8.733503342E0,-2.108675003E0
6.312353126E0,-1.391426325E0,-8.426922798E0,-1.182054400E0
6.322066668E0,-1.365105271E0,-8.039285660E0,-4.854438901E-1
6.331780991E0,-1.357926846E0,-7.727920055E0,3.409772366E-2
6.341494428E0,-1.463211060E0,-7.648956776E0,3.669991791E-1
6.351207136E0,-1.680957913E0,-7.857132435E0,6.445665956E-1
6.360920730E0,-1.966002941E0,-8.206783295E0,8.961120844E-1
6.370635001E0,-2.219642162E0,-8.664112091E0,1.010967612E0
6.380348543E0,-2.298605204E0,-9.064012527E0,7.043871880E-1
6.390061199E0,-2.183749676E0,-9.308079720E0,2.569293380E-1
6.399774793E0,-1.920539260E0,-9.430113792E0,-1.549352705E-1
6.409489063E0,-1.616351724E0,-9.432506561E0,-4.615156651E-1
6.419202605E0,-1.456032634E0,-9.444471359E0,-7.055835724E-1
6.428915261E0,-1.281356573E0,-9.537791252E0,-8.874381185E-1
6.438628855E0,-1.123131156E0,-9.602396965E0,-9.595218897E-1
6.448343126E0,-1.046560764E0,-9.624231339E0,-8.946165442E-1
6.458056668E0,-9.915258884E-1,-9.609575272E0,-8.228318691E-1
6.467769324E0,-1.044167995E0,-9.499505997E0,-8.084749579E-1
6.477482918E0,-1.223629713E0,-9.317651749E0,-9.137591720E-1
6.487197241E0,-1.470389485E0,-9.178867340E0,-1.172483087E0
6.496910678E0,-1.740778446E0,-9.135796547E0,-1.510170221E0
6.506623438E0,-2.042573214E0,-9.202795982E0,-1.866700768E0
6.516336980E0,-2.303390980E0,-9.336793900E0,-2.182852507E0
6.526051303E0,-2.423331022E0,-9.451649666E0,-2.268994093E0
6.535764741E0,-2.341675997E0,-9.552147865E0,-2.077568293E0
6.545477501E0,-2.143071890E0,-9.664909363E0,-1.648953915E0
6.555191043E0,-1.908575177E0,-9.770194054E0,-1.213161111E0
6.564905366E0,-1.721635938E0,-9.844371796E0,-9.403793216E-1
6.574618907E0,-1.534995675E0,-9.908977509E0,-8.682954907E-1
6.584331563E0,-1.247856975E0,-9.995119095E0,-7.869395614E-1
6.594045157E0,-7.450651526E-1,-1.015543842E1,-4.926223755E-1
6.603759480E0,-2.135594189E-1,-1.034955597E1,1.974078640E-2
6.613472918E0,1.815554202E-1,-1.048355389E1,4.100699723E-1
6.623185678E0,4.280161560E-1,-1.062473106E1,7.426723242E-1
6.632899220E0,7.417750359E-1,-1.082363415E1,7.764709592E-1
6.642613543E0,1.234995604E0,-1.146999550E1,5.727819204E-1
6.652327084E0,1.548455358E0,-1.262871933E1,1.226321608E-1
6.662039741E0,1.706680775E0,-1.406022549E1,-3.128615618E-1
6.671753334E0,1.747358680E0,-1.560210133E1,-8.419744968E-1
6.681467657E0,1.575075507E0,-1.681107521E1,-1.826022744E0
6.691181095E0,9.499505758E-1,-1.702433395E1,-3.147459030E0
6.700893855E0,-2.949153781E-1,-1.592064571E1,-4.243969917E0
6.710607449E0,-1.611566067E0,-1.439073467E1,-4.950450897E0
6.720321720E0,-2.394617319E0,-1.321286774E1,-5.146662235E0
6.730035261E0,-2.681756020E0,-1.244925785E1,-4.744369030E0
6.739747918E0,-3.186940670E0,-1.179541969E1,-4.160221100E0
6.749461511E0,-3.802195072E0,-1.108205891E1,-3.693321705E0
6.759175834E0,-4.340879440E0,-1.032562828E1,-3.336791277E0
6.768889376E0,-4.738387108E0,-9.645767212E0,-2.833999395E0
6.778602032E0,-4.869992256E0,-9.071190834E0,-1.940878272E0
6.788315626E0,-4.929812908E0,-8.616254807E0,-7.342974544E-1
6.798029949E0,-5.121238708E0,-8.469993591E0,2.736790776E-1
6.807743491E0,-5.226821899E0,-8.716753960E0,9.726824164E-1
6.817456147E0,-5.399105072E0,-9.150154114E0,1.487438321E0
6.827169741E0,-5.372784138E0,-9.820443153E0,1.822433591E0
6.836884063E0,-5.073382378E0,-1.039741230E1,2.018944025E0
6.846597605E0,-4.826921463E0,-1.059123135E1,2.026122570E0
6.856310261E0,-4.680959225E0,-1.035673428E1,2.042872429E0
6.866023855E0,-4.333701134E0,-1.008365345E1,1.961516380E0
6.875738178E0,-3.708875179E0,-9.897013664E0,1.865504384E0
6.885451720E0,-3.375973701E0,-9.777372360E0,1.339083314E0
6.895164376E0,-3.704089403E0,-9.782157898E0,2.880360186E-1
6.904877970E0,-3.873979807E0,-9.940084457E0,-1.028913736E0
6.914592293E0,-3.802195072E0,-1.006690407E1,-2.602194548E-1
6.924305834E0,-2.971586704E0,-1.005494022E1,1.585244983E-1
6.934018543E0,-1.630708575E0,-9.856335640E0,-1.191625714E0
6.943732084E0,-5.246263742E-1,-9.504291534E0,-1.907378793E0
6.953446407E0,1.022034407E0,-9.418149948E0,-2.972783089E0
6.963159949E0,1.553241014E0,-9.071190834E0,-3.820440531E0
6.972872657E0,1.517348647E0,-8.716753960E0,-3.262613773E0
6.982586251E0,1.124925733E0,-8.271389961E0,-2.551347256E0
6.992300574E0,-7.477570791E-3,-7.481459141E0,-1.737488389E0
7.002014011E0,-4.671986103E-1,-7.050451756E0,-2.410768867E-1
7.011726772E0,-7.450651526E-1,-6.748657227E0,9.966106415E-1
7.021440366E0,-1.211665511E0,-6.461518288E0,1.465902925E0
7.031154688E0,-1.752742529E0,-6.200401783E0,1.080359459E0
7.040868230E0,-2.138286114E0,-6.011368752E0,5.536393523E-1
7.050580938E0,-2.248355865E0,-5.939583778E0,3.693920076E-1
7.060294480E0,-2.183749676E0,-5.987440586E0,4.938187599E-1
7.070008855E0,-2.329711914E0,-5.982655048E0,5.895316601E-1
7.079722293E0,-2.624328136E0,-5.731408596E0,5.967101455E-1
7.089435053E0,-2.904288530E0,-5.329114914E0,6.302096844E-1
7.099148647E0,-3.060121059E0,-4.934000492E0,6.996015310E-1
7.108862970E0,-3.084049225E0,-4.711467743E0,6.804589629E-1
7.118576511E0,-2.875574589E0,-4.780859470E0,5.632106066E-1
7.128289220E0,-2.401795626E0,-5.175974369E0,3.382852972E-1
7.138002813E0,-1.755135417E0,-5.937191010E0,-1.860419661E-1
7.147717136E0,-1.082453132E0,-7.007380962E0,-1.605883121E0
7.157430678E0,-6.658028960E-1,-8.340781212E0,-4.117150307E0
7.167143334E0,-6.900302172E-1,-9.959226608E0,-7.394719124E0
7.176856980E0,-1.302891970E0,-1.194885921E1,-1.090439224E1
7.186571303E0,-2.202892303E0,-1.430698586E1,-1.389242935E1
7.196284845E0,-2.734398127E0,-1.635643768E1,-1.560419464E1
7.205997501E0,-2.703291416E0,-1.732583046E1,-1.498654747E1
7.215711095E0,-2.262712955E0,-1.644736481E1,-1.234576797E1
7.225425470E0,-1.752742529E0,-1.455823231E1,-9.257232666E0
7.235139011E0,-1.860718727E0,-1.254497051E1,-6.343671799E0
7.244851668E0,-2.736790895E0,-1.061037350E1,-3.554538012E0
7.254565261E0,-3.804588079E0,-8.920144081E0,-1.603490233E0
7.264279584E0,-3.938585997E0,-7.782954693E0,-5.261218548E-1
7.273993178E0,-3.172583818E0,-7.115057945E0,4.845465720E-2
7.283705834E0,-2.856431961E0,-7.344769001E0,-6.672984362E-1
7.293419428E0,-4.154239178E0,-8.896215439E0,-2.077568293E0
7.303133803E0,-4.618745804E0,-1.067019463E1,-2.723929405E0
7.312847345E0,-3.522234917E0,-1.149870968E1,-3.147459030E0
7.322560001E0,-2.882753134E0,-1.135753250E1,-3.628715515E0
7.332273595E0,-3.452543974E0,-1.031127071E1,-3.564109325E0
7.341987970E0,-5.327320576E0,-9.580862045E0,-3.700500250E0
7.351701511E0,-8.078168869E0,-1.022752190E1,-4.316053867E0
7.361414220E0,-7.242475986E0,-1.117059326E1,-3.434896946E0
7.371127813E0,-3.972085476E0,-1.086431217E1,-9.523434043E-1
7.380842136E0,-2.830111027E0,-9.561718941E0,1.564008713E0
7.390555678E0,-2.799004316E0,-8.185248375E0,2.698804855E0
7.400268386E0,-3.005086184E0,-7.205985546E0,2.574378014E0
7.409981980E0,-3.220440149E0,-6.755835533E0,2.021337032E0
7.419696303E0,-3.210868835E0,-6.717550278E0,1.822433591E0
7.429409845E0,-2.957229614E0,-6.870990276E0,1.920838356E0
7.439122553E0,-2.595614433E0,-7.251449108E0,2.026122570E0
7.448836147E0,-2.430509567E0,-7.960322857E0,2.064407825E0
7.458550522E0,-2.624328136E0,-8.896215439E0,1.882553220E0
7.468264063E0,-2.248355865E0,-1.004058266E1,1.870589137E0
7.477976772E0,-1.080060363E0,-1.132403278E1,2.227119684E0
7.487690366E0,2.461616248E-1,-1.227906895E1,2.648555517E0
7.497404688E0,1.491027594E0,-1.273161125E1,2.603091955E0
7.507118230E0,2.216650963E0,-1.269093323E1,1.365404367E0
7.516830938E0,2.216650963E0,-1.207089329E1,-8.012964725E-1
7.526544532E0,1.960319996E0,-1.100788116E1,-3.078067303E0
7.536258907E0,1.438385487E0,-9.944869995E0,-4.677370071E0
7.545972449E0,7.154539824E-1,-9.198010445E0,-4.801796913E0
7.555685157E0,2.093719784E-3,-8.853144646E0,-3.808476448E0
7.565398751E0,-5.772684813E-1,-8.750253677E0,-2.496312141E0
7.575113074E0,-1.190130115E0,-8.695218086E0,-1.445264935E0
7.584826616E0,-1.726421595E0,-8.575576782E0,-6.888338327E-1
7.594539324E0,-1.987538338E0,-8.443673134E0,-2.243271172E-1
7.604252970E0,-1.889432549E0,-8.407780647E0,1.704886109E-1
7.613967293E0,-1.863111496E0,-8.486743927E0,4.938187599E-1
7.623680834E0,-1.930110574E0,-8.666504860E0,7.573283911E-1
7.633393543E0,-1.944467545E0,-8.843573570E0,5.679962635E-1
7.643107136E0,-1.973181367E0,-8.991928101E0,8.913264424E-2
7.652821511E0,-1.786242127E0,-9.097511292E0,-4.088735580E-1
7.662535053E0,-1.439282775E0,-9.157332420E0,-7.151548862E-1
7.672247761E0,-1.173380375E0,-9.145368576E0,-8.324031830E-1
7.681961355E0,-9.867402315E-1,-9.119047165E0,-7.175477147E-1
7.691675730E0,-8.694919348E-1,-9.116654396E0,-4.830510616E-1
7.701389272E0,-8.575277925E-1,-9.135796547E0,-3.272185028E-1
7.711101980E0,-9.197412133E-1,-9.200403214E0,-2.434697002E-1
7.720815574E0,-9.221340418E-1,-9.272188187E0,-3.032902777E-1
7.730529949E0,-9.245268703E-1,-9.346364975E0,-4.663013220E-1
7.740243491E0,-1.020239711E0,-9.470791817E0,-6.529414654E-1
7.749956199E0,-1.240379453E0,-9.592825890E0,-8.300103545E-1
7.759669793E0,-1.635494232E0,-9.707980156E0,-1.088734269E0
7.769384168E0,-2.155035973E0,-9.870692253E0,-1.543669701E0
7.779097709E0,-2.609971285E0,-9.961619377E0,-2.273779631E0
7.788810418E0,-2.858824968E0,-9.923335075E0,-3.104388237E0
7.798524011E0,-2.789433002E0,-9.801301003E0,-3.729214191E0
7.808238386E0,-2.480758905E0,-9.657731056E0,-3.868296862E0
7.817951928E0,-2.013859272E0,-9.521040916E0,-3.408575773E0
7.827664688E0,-1.537388563E0,-9.444471359E0,-2.594418049E0
7.837378282E0,-1.075274706E0,-9.418149948E0,-1.770987868E0
7.847092605E0,-5.461617708E-1,-9.535398483E0,-9.257232547E-1
7.856806199E0,8.105687052E-2,-9.748658180E0,4.986044168E-1
7.866518907E0,7.345965505E-1,-9.937691689E0,1.449153185E0
7.876232501E0,8.733802438E-1,-1.010518932E1,1.468295813E0
7.885946876E0,1.182353497E0,-1.031605625E1,1.518545032E0
7.895660418E0,1.450349569E0,-1.071805096E1,1.382154226E0
7.905373126E0,1.502991676E0,-1.158724403E1,1.018146038E0
7.915086772E0,1.400100350E0,-1.273400402E1,7.187440991E-1
7.924801095E0,1.136889815E0,-1.397408390E1,6.924230456E-1
7.934514636E0,8.757730722E-1,-1.506580925E1,8.003991842E-1
7.944227397E0,6.029912829E-1,-1.571456337E1,6.589235067E-1
7.953940991E0,-1.031904742E-1,-1.553031635E1,-8.554340899E-2
7.963655366E0,-1.230808139E0,-1.474277878E1,-1.553241014E0
7.973368907E0,-2.052144527E0,-1.413470268E1,-3.456432343E0
7.983081616E0,-2.815753937E0,-1.369173145E1,-5.496313572E0
7.992795261E0,-3.720839262E0,-1.306451225E1,-6.901498795E0
8.002509584E0,-4.721637249E0,-1.230778217E1,-7.447361469E0
8.012223178E0,-5.300999641E0,-1.167338562E1,-7.114758968E0
8.021935886E0,-5.262714386E0,-1.129262733E1,-5.639883041E0
8.031649480E0,-4.958526611E0,-1.092652512E1,-2.884248495E0
8.041363855E0,-4.769493580E0,-1.052901745E1,-1.232303619E0
8.051077397E0,-4.731208801E0,-1.022991467E1,-3.080759048E-1
8.060790105E0,-4.726422787E0,-9.717552185E0,6.373881102E-1
8.070503751E0,-4.982454777E0,-9.166903496E0,1.535294771E0
8.080218074E0,-5.513960838E0,-8.707182884E0,1.932802439E0
8.089931668E0,-6.014359951E0,-8.570791245E0,2.090728760E0
8.099644376E0,-5.753541946E0,-8.810073853E0,2.052443504E0
8.109358022E0,-4.592125893E0,-9.027820587E0,1.894517303E0
8.119072345E0,-3.864408493E0,-9.003892899E0,1.939980984E0
8.128785938E0,-3.897907972E0,-9.126225471E0,1.930409670E0
8.138498647E0,-4.113561153E0,-9.566504478E0,1.793719649E0
8.148212293E0,-4.120739460E0,-1.013390255E1,3.565604925E0
8.157926616E0,-3.811766386E0,-1.041655540E1,1.532902002E0
8.167640209E0,-3.442972660E0,-1.040937710E1,-6.529414654E-1
8.177352918E0,-2.834896564E0,-1.048594666E1,-3.322434187E0
8.187066563E0,-1.750349760E0,-1.042612648E1,-5.259125233E0
8.196780886E0,-8.766704202E-1,-9.992726326E0,-4.347160339E0
8.206494480E0,-2.063809484E-1,-9.485149384E0,-3.006282568E0
8.216207188E0,9.667003751E-1,-9.171689034E0,-1.775773525E0
8.225920834E0,1.220638633E0,-8.802895546E0,-7.989036441E-1
8.235635157E0,7.944171429E-1,-8.335995674E0,-1.201196909E0
8.245348751E0,2.362912335E-2,-7.735098362E0,-1.406979680E0
8.255061459E0,-8.718847632E-1,-7.201199532E0,-1.014556766E0
8.264775105E0,-1.374676585E0,-6.870990276E0,-1.764706671E-1
8.274489428E0,-1.534995675E0,-6.830312252E0,5.703890920E-1
8.284203022E0,-1.812862277E0,-6.854240417E0,8.075776696E-1
8.293915730E0,-1.999502420E0,-6.988238335E0,6.014958024E-1
8.303629376E0,-2.071287155E0,-7.124629498E0,2.521436810E-1
8.313343751E0,-2.011466503E0,-7.174878597E0,-4.725824669E-2
8.323057293E0,-2.068894386E0,-6.940382004E0,-2.219343036E-1
8.332770053E0,-2.176571369E0,-6.497410774E0,-1.094716340E-1
8.342483647E0,-2.444866419E0,-5.855835438E0,1.345962733E-1
8.352198022E0,-2.708076954E0,-5.233402252E0,3.598206937E-1
8.361911563E0,-2.887538671E0,-4.780859470E0,5.775675774E-1
8.371624324E0,-3.000300407E0,-4.517350197E0,5.584250093E-1
8.381337970E0,-3.026621580E0,-4.498207569E0,3.888336942E-2
8.391052293E0,-2.954836845E0,-4.685146809E0,-8.108677864E-1
8.400765886E0,-2.755933523E0,-5.135296345E0,-1.608275890E0
8.410478595E0,-2.442473650E0,-5.920441628E0,-2.338385820E0
8.420192241E0,-2.169392824E0,-7.033702374E0,-3.049353361E0
8.429906616E0,-2.064108610E0,-8.407780647E0,-4.287040710E0
8.439620157E0,-2.116750717E0,-1.016022396E1,-6.386742592E0
8.449332918E0,-2.238784790E0,-1.230538940E1,-8.852845192E0
8.459046511E0,-2.303390980E0,-1.465633774E1,-1.134018517E1
8.468760886E0,-1.954038739E0,-1.670818329E1,-1.324816132E1
8.478474480E0,-1.377069473E0,-1.736411667E1,-1.296580887E1
8.488187188E0,-9.532406926E-1,-1.602353668E1,-1.114158058E1
8.497900834E0,-8.048857450E-1,-1.415863037E1,-9.089735031E0
8.507615209E0,-1.384247899E0,-1.242024517E1,-7.035496712E0
8.517328751E0,-2.382653236E0,-1.080209827E1,-4.794618607E0
8.527041511E0,-2.976372242E0,-9.442078590E0,-2.967997313E0
8.536755157E0,-3.112763166E0,-8.469993591E0,-1.677667737E0
8.546469480E0,-3.943371773E0,-8.472386360E0,-1.660917997E0
8.556183074E0,-6.217749596E0,-1.000708294E1,-1.931306958E0
8.565895834E0,-6.981658459E0,-1.150110245E1,-1.294517040E0
8.575609428E0,-5.303392410E0,-1.183849049E1,-1.531705618E0
8.585323803E0,-3.153441191E0,-1.131685448E1,-3.037389278E0
8.595037397E0,-2.732005358E0,-1.009322548E1,-4.217648983E0
8.604750157E0,-4.565804482E0,-9.006285667E0,-3.702893019E0
8.614463751E0,-7.354938507E0,-8.580363274E0,-2.908176899E0
8.624178126E0,-8.085348129E0,-8.101499557E0,-3.265006542E0
8.633891720E0,-5.334498882E0,-7.670492172E0,-2.474776745E0
8.643604428E0,-2.928216696E0,-7.416852951E0,5.324030295E-2
8.653318074E0,-2.813361168E0,-7.131807804E0,1.841576099E0
8.663032449E0,-2.827718258E0,-6.988238335E0,1.920838356E0
8.672746043E0,-2.973979473E0,-7.117451191E0,1.585544109E0
8.682458751E0,-3.179762125E0,-7.431210041E0,1.525723577E0
8.692172397E0,-3.285046339E0,-7.904988766E0,1.693221092E0
8.701886772E0,-3.165405273E0,-8.472386360E0,2.023729801E0
8.711600366E0,-2.688934565E0,-9.178867340E0,2.619841576E0
8.721313074E0,-2.190928221E0,-9.995119095E0,2.890230656E0
8.731026720E0,-1.759921074E0,-1.086431217E1,3.273381472E0
8.740741095E0,-1.245165110E0,-1.154417324E1,4.075275898E0
8.750454688E0,-4.025924206E-1,-1.202303600E1,4.808077812E0
8.760167397E0,6.891329288E-1,-1.228624725E1,4.556532383E0
8.769881043E0,1.567897081E0,-1.221206951E1,3.110669374E0
8.779595418E0,2.051247120E0,-1.166860008E1,1.226321608E-1
8.789309011E0,2.343470573E0,-1.075424194E1,-3.930510283E0
8.799021720E0,2.135295153E0,-9.832406998E0,-7.265506744E0
8.808735366E0,1.371386528E0,-9.300901413E0,-7.718049526E0
8.818449741E0,3.753740489E-1,-9.116654396E0,-5.771488190E0
8.828163334E0,-4.624129832E-1,-9.154939651E0,-3.279363394E0
8.837876095E0,-1.113559842E0,-9.097511292E0,-1.411765337E0
8.847589688E0,-1.601994753E0,-8.807681084E0,-5.380859971E-1
8.857304063E0,-1.820040703E0,-8.563612938E0,-9.032905847E-2
8.867017657E0,-1.872682810E0,-8.340781212E0,4.435695112E-1
8.876730418E0,-2.083251238E0,-8.118248940E0,1.156929731E0
8.886444063E0,-2.279462576E0,-8.134998322E0,1.525723577E0
8.896158438E0,-2.392224550E0,-8.520542145E0,1.278963685E0
8.905872032E0,-2.416152716E0,-9.018249512E0,5.177469850E-1
8.915584741E0,-2.413759947E0,-9.233902931E0,-5.204389244E-2
8.925298386E0,-2.348854542E0,-9.257830620E0,-2.434697002E-1
8.935012761E0,-2.126322031E0,-9.262616158E0,-2.051845491E-1
8.944726355E0,-1.863111496E0,-9.329615593E0,-2.219343036E-1
8.954439116E0,-1.580459356E0,-9.480362892E0,-3.897309899E-1
8.964152761E0,-1.436890006E0,-9.585647583E0,-6.290132403E-1
8.973867136E0,-1.365105271E0,-9.564111710E0,-8.467600942E-1
8.983580678E0,-1.293320656E0,-9.456435204E0,-9.738788009E-1
8.993293438E0,-1.214058399E0,-9.233902931E0,-1.028913736E0
9.003007084E0,-1.237986565E0,-9.037391663E0,-1.174875975E0
9.012721459E0,-1.367498159E0,-8.975178719E0,-1.404586911E0
9.022435053E0,-1.578066587E0,-9.071190834E0,-1.632204175E0
9.032147813E0,-1.769492388E0,-9.202795982E0,-1.830808401E0
9.041861459E0,-1.858325839E0,-9.298508644E0,-1.948056698E0
9.051575834E0,-1.755135417E0,-9.370293617E0,-1.811665893E0
9.061289428E0,-1.422533035E0,-9.408578873E0,-1.287338614E0
9.071002136E0,-1.101595759E0,-9.470791817E0,-5.787639618E-1
9.080715782E0,-9.460622668E-1,-9.556933403E0,1.734796353E-2
9.090430157E0,-1.048953652E0,-9.564111710E0,3.000001311E-1
9.100143751E0,-1.343569875E0,-9.463613510E0,2.880360186E-1
9.109856511E0,-1.539781332E0,-9.332008362E0,1.130608693E-1
9.119570157E0,-1.412961721E0,-9.267401695E0,6.520441920E-2
9.129284532E0,-1.127916813E0,-9.303294182E0,7.776673418E-3
9.138998126E0,-7.259225845E-1,-9.458827972E0,-1.615155302E-2
9.148710886E0,-2.398804724E-1,-9.755837440E0,2.353939265E-1
9.158424532E0,3.083750308E-1,-1.032084274E1,7.788637877E-1
9.168138907E0,8.709874153E-1,-1.140778160E1,1.290927768E0
9.177852501E0,1.124925733E0,-1.280818176E1,1.363011599E0
9.187565261E0,8.901300430E-1,-1.412273788E1,1.298106313E0
9.197278907E0,4.905286431E-1,-1.517109394E1,1.245464206E0
9.206993282E0,3.798605874E-2,-1.573370647E1,1.137787223E0
9.216706876E0,-5.676971674E-1,-1.559252930E1,8.147560954E-1
9.226419636E0,-1.331605792E0,-1.488395500E1,-3.050848842E-2
9.236133230E0,-2.135893345E0,-1.418495178E1,-1.699203134E0
9.245847657E0,-2.971586704E0,-1.375633717E1,-4.445266247E0
9.255561251E0,-3.835694790E0,-1.334208012E1,-7.485646725E0
9.265274011E0,-4.743172646E0,-1.264068413E1,-9.276374817E0
9.274987657E0,-5.315356255E0,-1.175713444E1,-9.139984131E0
9.284702032E0,-5.360819817E0,-1.119452190E1,-7.337291718E0
9.294415626E0,-5.068596363E0,-1.099591732E1,-4.825725079E0
9.304128386E0,-4.752744198E0,-1.080927753E1,-2.479562521E0
9.313842032E0,-4.683351994E0,-1.046201897E1,-8.036893010E-1
9.323556407E0,-4.812564373E0,-9.990333557E0,2.497508675E-1
9.333270001E0,-4.891527653E0,-9.418149948E0,9.607182741E-1
9.342982761E0,-5.059025288E0,-8.989535332E0,1.473081470E0
9.352696407E0,-5.523531914E0,-8.905786514E0,1.843968987E0
9.362410782E0,-6.050251961E0,-9.140582085E0,1.875374794E0
9.372124376E0,-6.033502102E0,-9.504291534E0,1.944766641E0
9.381837136E0,-5.937789440E0,-9.798908234E0,2.289333105E0
9.391550782E0,-6.117250919E0,-9.794121742E0,2.313261271E0
9.401265157E0,-6.440581322E0,-9.629017830E0,2.124228239E0
9.410978751E0,-6.131608009E0,-9.585647583E0,1.836790442E0
9.420691511E0,-5.655137062E0,-9.542576790E0,1.367797256E0
9.430405157E0,-5.140381336E0,-9.650552750E0,7.980063558E-1
9.440119532E0,-4.618745804E0,-9.655338287E0,6.759724021E-2
9.449833178E0,-4.022335052E0,-9.600004196E0,-8.443672657E-1
9.459545886E0,-3.234797001E0,-9.437292099E0,-1.601097465E0
9.469259584E0,-2.411366940E0,-9.116654396E0,-2.462812662E0
9.478973959E0,-1.305284739E0,-8.834002495E0,-2.400599241E0
9.488687553E0,-2.135594189E-1,-8.647361755E0,-1.857129455E0
9.498400313E0,6.101697683E-1,-8.671290398E0,-1.514955878E0
9.508113959E0,1.234995604E0,-8.695218086E0,-3.921238184E-1
9.517828334E0,1.069890857E0,-8.582756042E0,1.875374764E-1
9.527541928E0,4.208376706E-1,-8.472386360E0,5.009972453E-1
9.537254688E0,-3.475574851E-1,-8.123034477E0,1.256231871E-2
9.546968334E0,-8.647062778E-1,-7.928916931E0,-8.036893010E-1
9.556682761E0,-1.288534999E0,-7.787740231E0,-1.284945726E0
9.566396355E0,-1.664208174E0,-7.541279793E0,-1.371087432E0
9.576109116E0,-1.997109652E0,-7.115057945E0,-1.031306505E0
9.585822761E0,-2.569293261E0,-6.442375660E0,-6.625127792E-1
9.595537136E0,-3.230011463E0,-5.750551224E0,-3.391826153E-1
9.605250730E0,-3.620340586E0,-5.259723186E0,-3.768695518E-2
9.614963491E0,-3.627519131E0,-4.974678040E0,1.875374764E-1
9.624677136E0,-3.392723322E0,-4.890929699E0,2.186441720E-1
9.634391563E0,-3.127120018E0,-4.881358147E0,5.084748194E-2
9.644105157E0,-2.727219582E0,-4.845465660E0,-6.580262445E-3
9.653817918E0,-2.279462576E0,-4.823930264E0,1.441675574E-1
9.663531563E0,-2.064108610E0,-4.905286312E0,-2.811566554E-2
9.673245938E0,-2.135893345E0,-5.180759907E0,-9.209375978E-1
9.682959584E0,-2.100000858E0,-5.697908878E0,-2.192423820E0
9.692672345E0,-2.265105724E0,-6.416054726E0,-3.794119358E0
9.702385991E0,-2.921038151E0,-7.227520943E0,-5.826523304E0
9.712100366E0,-3.852444410E0,-8.190033913E0,-8.098507881E0
9.721813959E0,-4.680959225E0,-9.530612946E0,-1.024128056E1
9.731526720E0,-5.200500965E0,-1.135753250E1,-1.225962639E1
9.741240366E0,-4.915455818E0,-1.346889973E1,-1.394028568E1
9.750954793E0,-3.689732552E0,-1.537956810E1,-1.417956829E1
9.760668386E0,-2.128714800E0,-1.618624878E1,-1.163958645E1
9.770381147E0,-1.417747378E0,-1.545613861E1,-7.885547161E0
9.780094793E0,-1.288534999E0,-1.388794231E1,-5.797809124E0
9.789809168E0,-1.281356573E0,-1.165184975E1,-4.255934238E0
9.799522813E0,-1.245165110E0,-9.477970123E0,-1.622632861E0
9.809235574E0,-1.233201027E0,-8.201997757E0,5.991029739E-1
9.818949220E0,-2.358425856E0,-8.673683167E0,5.608177781E-1
9.828663595E0,-3.431008577E0,-1.062233829E1,-4.280161560E-1
9.838377188E0,-3.579662561E0,-1.279621696E1,-2.084746838E0
9.848089949E0,-3.342474222E0,-1.469013596E1,-5.412265778E0
9.857803595E0,-3.454936743E0,-1.457976723E1,-7.954938889E0
9.867518022E0,-5.059025288E0,-1.212832069E1,-7.528717518E0
9.877231616E0,-6.878767014E0,-9.985548019E0,-5.378766060E0
9.886944376E0,-7.060621262E0,-8.558827400E0,-2.697608471E0
9.896658022E0,-4.738387108E0,-7.634599686E0,1.250249892E-1
9.906372449E0,-3.826123476E0,-6.614659309E0,2.054836512E0
9.916086043E0,-4.180560112E0,-5.757729530E0,2.576770782E0
9.925798803E0,-4.319344044E0,-5.482255936E0,2.162513494E0
9.935512449E0,-4.113561153E0,-5.678467274E0,1.580758452E0
9.945226824E0,-3.890729666E0,-6.205187321E0,1.252642632E0
9.954940470E0,-3.682554007E0,-7.048058987E0,1.353440285E0
9.964653230E0,-3.651447296E0,-7.869096279E0,1.762612939E0
9.974366876E0,-3.582055569E0,-8.731110573E0,2.054836512E0
9.984081251E0,-3.503092289E0,-9.660123825E0,2.536092997E0
9.993794845E0,-3.081656456E0,-1.071565819E1,2.880659342E0
1.000350766E1,-2.296212435E0,-1.172602749E1,2.796910524E0
1.001322130E1,-1.257428288E0,-1.238674545E1,2.689233541E0
1.002293568E1,-3.403790295E-1,-1.263350582E1,2.746661186E0
1.003264927E1,3.323032558E-1,-1.241067410E1,2.837588549E0
1.004236203E1,8.542376757E-1,-1.179302597E1,2.164906263E0
1.005207568E1,1.486241937E0,-1.097198868E1,-2.572284266E-2
1.006179010E1,1.936391711E0,-1.020120144E1,-3.288934708E0
1.007150370E1,1.756929994E0,-9.597611427E0,-5.623133183E0
1.008121646E1,1.172782183E0,-9.351150513E0,-5.328516960E0
1.009093010E1,2.581257522E-1,-9.152546883E0,-3.628715515E0
1.010064453E1,-5.988038778E-1,-8.941679001E0,-1.830808401E0
1.011035813E1,-1.166201949E0,-8.872286797E0,-4.136592150E-1
1.012007089E1,-1.458425403E0,-8.893822670E0,6.924230456E-1
1.012978453E1,-1.786242127E0,-8.831609726E0,1.410868049E0
1.013949891E1,-2.095215321E0,-8.757431984E0,1.700399637E0
1.014921255E1,-2.178964138E0,-8.793324471E0,1.676471353E0
1.015892531E1,-2.004287958E0,-8.948857307E0,1.300499082E0
1.016863896E1,-1.673779488E0,-9.245866776E0,6.828517914E-1
1.017835333E1,-1.228415370E0,-9.537791252E0,-6.879365444E-2
1.018806693E1,-8.383852243E-1,-9.803693771E0,-8.754739761E-1
1.019777969E1,-6.346961856E-1,-1.001186943E1,-1.615454435E0
1.020749339E1,-6.562315822E-1,-1.003101158E1,-2.082353830E0
1.021720776E1,-7.283154130E-1,-9.803693771E0,-1.983949065E0
1.022692136E1,-9.580263495E-1,-9.499505997E0,-1.572383523E0
1.023663412E1,-1.204487085E0,-9.365508080E0,-1.177268744E0
1.024634776E1,-1.393819213E0,-9.322437286E0,-8.826524615E-1
1.025606219E1,-1.506281853E0,-9.286544800E0,-6.529414654E-1
1.026577578E1,-1.587637782E0,-9.186046600E0,-5.213362575E-1
1.027548854E1,-1.611566067E0,-9.039784431E0,-5.261218548E-1
1.028520219E1,-1.743171334E0,-8.929715157E0,-6.792625189E-1
1.029491656E1,-1.872682810E0,-8.886644363E0,-9.523434043E-1
1.030463021E1,-2.056930065E0,-8.965607643E0,-1.258624673E0
1.031434297E1,-2.210070848E0,-9.131011009E0,-1.538884044E0
1.032405662E1,-2.298605204E0,-9.274580956E0,-1.744666815E0
1.033377099E1,-2.298605204E0,-9.367900848E0,-1.909771562E0
1.034348458E1,-2.176571369E0,-9.420542717E0,-1.945663929E0
1.035319734E1,-1.942074656E0,-9.530612946E0,-1.802094579E0
1.036291099E1,-1.640279889E0,-9.660123825E0,-1.577169180E0
1.037262542E1,-1.365105271E0,-9.758230209E0,-1.399801254E0
1.038233901E1,-1.197308660E0,-9.784550667E0,-1.335195065E0
1.039205177E1,-1.063310504E0,-9.779765129E0,-1.356730461E0
1.040176542E1,-7.522436380E-1,-9.849157333E0,-1.292124271E0
1.041147979E1,-3.786641955E-1,-9.880263329E0,-9.305089116E-1
1.042119339E1,-1.417747438E-1,-9.803693771E0,-3.753740489E-1
1.043090615E1,-2.183450572E-2,-9.626625061E0,1.417747438E-1
1.044061979E1,1.791625917E-1,-9.525827408E0,5.871388316E-1
1.045033422E1,5.431707501E-1,-9.616754532E0,1.104287624E0
1.046004781E1,1.029212832E0,-9.959226608E0,1.628614902E0
1.046976057E1,1.117747307E0,-1.056730270E1,1.645364642E0
1.047947422E1,7.633104324E-1,-1.151306629E1,1.223928809E0
1.048918860E1,1.743769497E-1,-1.260000610E1,9.128618240E-1
1.049890219E1,-4.456632137E-1,-1.367498112E1,7.307082415E-1
1.050861495E1,-1.182951689E0,-1.451516151E1,4.818546474E-1
1.051832865E1,-2.145464659E0,-1.476909924E1,-8.324031830E-1
1.052804302E1,-3.308974504E0,-1.440269852E1,-3.820440531E0
1.053775662E1,-4.063312054E0,-1.398365593E1,-6.992425919E0
1.054746938E1,-4.522733688E0,-1.366062450E1,-8.941379547E0
1.055718302E1,-4.898705959E0,-1.322243881E1,-9.106484413E0
1.056689740E1,-5.214858055E0,-1.267896938E1,-7.437789917E0
1.057661099E1,-5.255535603E0,-1.236999607E1,-5.113162994E0
1.058632375E1,-4.877170563E0,-1.228385448E1,-3.018246651E0
1.059603740E1,-4.443770885E0,-1.215464211E1,-1.457229018E0
1.060575182E1,-4.364807606E0,-1.174756241E1,-5.835496187E-1
1.061546542E1,-4.498805523E0,-1.106052399E1,-1.788634956E-1
1.062517818E1,-4.841278553E0,-1.026819992E1,-2.913261652E-1
1.063489182E1,-5.222036362E0,-9.696016312E0,-6.194419861E-1
1.064460620E1,-5.454140186E0,-9.506684303E0,-6.888338327E-1
1.065431979E1,-5.298606873E0,-9.494720459E0,-3.343969584E-1
1.066403255E1,-4.968098164E0,-9.461220741E0,1.034895778E-1
1.067374620E1,-4.910670280E0,-9.408578873E0,4.076771438E-1
1.068346057E1,-4.788636208E0,-9.317651749E0,8.554341197E-1
1.069317417E1,-4.546662331E0,-9.260223389E0,1.609472275E0
1.070288693E1,-4.850849628E0,-9.121439934E0,2.655734062E0
1.071260063E1,-4.616353035E0,-9.183652878E0,2.129014015E0
1.072231500E1,-4.168596268E0,-9.525827408E0,2.009372711E0
1.073202860E1,-3.373580933E0,-9.954441071E0,3.574278951E-1
1.074174136E1,-3.026621580E0,-1.017218781E1,-1.622632861E0
1.075145500E1,-2.360818624E0,-1.009801102E1,-3.025425196E0
1.076116938E1,-1.044167995E0,-9.899406433E0,-2.869891644E0
1.077088297E1,1.887338907E-1,-9.640981674E0,-2.915355206E0
1.078059573E1,7.968099117E-1,-9.269794464E0,-1.864308000E0
1.079030938E1,1.570289850E0,-8.941679001E0,-7.342974544E-1
1.080002375E1,1.471885085E0,-8.355138779E0,-1.549352705E-1
1.080973734E1,8.015955687E-1,-7.548458099E0,-2.195414752E-1
1.081945011E1,-9.870393202E-3,-6.751049995E0,-5.859424472E-1
1.082916375E1,-7.139584422E-1,-6.128616810E0,-9.571290612E-1
1.083887813E1,-1.025025368E0,-5.874977589E0,-1.275374413E0
1.084859172E1,-1.108774185E0,-5.922834396E0,-1.699203134E0
1.085830448E1,-1.051346421E0,-6.152545452E0,-1.964806437E0
1.086801813E1,-9.388837814E-1,-6.444768906E0,-1.962413669E0
1.087773250E1,-1.072881818E0,-6.650551319E0,-1.809273005E0
1.088744610E1,-1.412961721E0,-6.688836575E0,-1.692024708E0
1.089715886E1,-1.731207132E0,-6.564409733E0,-1.409372568E0
1.090687250E1,-1.944467545E0,-6.301199436E0,-9.499505758E-1
1.091658693E1,-2.123929262E0,-5.882156372E0,-3.655036688E-1
1.092630052E1,-2.315355062E0,-5.432006359E0,4.606183618E-2
1.093601323E1,-2.571686029E0,-5.099104881E0,6.520441920E-2
1.094572688E1,-2.827718258E0,-4.953142643E0,-3.559323549E-1
1.095544130E1,-3.191726208E0,-4.835894585E0,-1.222732425E0
1.096515490E1,-3.498306751E0,-4.850251675E0,-2.443670034E0
1.097486760E1,-3.622733593E0,-5.132903576E0,-3.686143398E0
1.098458125E1,-3.665804386E0,-5.726622581E0,-5.041378021E0
1.099429568E1,-3.852444410E0,-6.588337898E0,-6.726822853E0
1.100400922E1,-4.175774574E0,-7.608278751E0,-8.536693573E0
1.101372198E1,-4.601696968E0,-8.867501259E0,-1.014556789E1
1.102343563E1,-5.042275429E0,-1.033759212E1,-1.113440228E1
1.103315000E1,-5.401497841E0,-1.171167088E1,-1.041356373E1
1.104286360E1,-5.351248741E0,-1.261436272E1,-8.493622780E0
1.105257636E1,-4.561018944E0,-1.308365536E1,-6.638288021E0
1.106229000E1,-2.894717216E0,-1.312433338E1,-5.740381718E0
1.107200438E1,-1.640279889E0,-1.260718441E1,-5.809773445E0
1.108171797E1,-1.240379453E0,-1.180259800E1,-5.788238049E0
1.109143073E1,-1.609173179E0,-1.100548840E1,-5.314159870E0
1.110114438E1,-2.011466503E0,-1.033041382E1,-4.708476543E0
1.111085875E1,-2.198106766E0,-9.949655533E0,-4.050151348E0
1.112057235E1,-2.844467878E0,-1.031844902E1,-3.920938969E0
1.113028510E1,-4.360022068E0,-1.195125198E1,-4.074079514E0
1.113999875E1,-4.893920422E0,-1.344736385E1,-3.885046721E0
1.114971313E1,-3.282653570E0,-1.368215942E1,-4.462016106E0
1.115942672E1,-1.733600020E0,-1.309083366E1,-6.338886261E0
1.116913948E1,-2.490330219E0,-1.226949692E1,-6.891927242E0
1.117885313E1,-3.881158352E0,-1.153220844E1,-5.333302498E0
1.118856750E1,-4.640281200E0,-1.059840965E1,-2.759821892E0
1.119828110E1,-4.190131664E0,-9.207581520E0,-1.956132501E-1
1.120799380E1,-2.870789051E0,-7.763812065E0,8.410771489E-1
1.121770745E1,-1.966002941E0,-6.404090881E0,6.876373887E-1
1.122742188E1,-1.827219248E0,-5.264508724E0,7.187440991E-1
1.123713542E1,-2.080858469E0,-4.481457710E0,6.708876491E-1
1.124684818E1,-2.765504837E0,-4.297210217E0,2.952145040E-1
1.125656182E1,-3.955335855E0,-4.950749874E0,3.888336942E-2
1.126627620E1,-5.075775146E0,-6.332305908E0,3.885345757E-1
1.127598979E1,-5.643173218E0,-7.893024445E0,1.061216831E0
1.128570255E1,-5.739185333E0,-9.181260109E0,1.377368569E0
1.129541620E1,-5.664708614E0,-1.024187946E1,1.542473316E0
1.130513057E1,-5.346463203E0,-1.101027393E1,1.609472275E0
1.131484417E1,-4.340879440E0,-1.141256714E1,1.370190024E0
1.132455688E1,-3.040978432E0,-1.164706421E1,1.068395257E0
1.133427052E1,-1.592423439E0,-1.176909828E1,1.010967612E0
1.134398490E1,-4.959124923E-1,-1.149870968E1,1.339083314E0
1.135369849E1,-1.417747438E-1,-1.094566822E1,1.913659930E0
1.136341125E1,-6.251249462E-2,-1.027777100E1,2.246262312E0
1.137312490E1,-2.183450572E-2,-9.796515465E0,2.255833626E0
1.138283927E1,4.304089844E-1,-9.703194618E0,1.621436477E0
1.139255287E1,1.246959686E0,-9.798908234E0,2.114657015E-1
1.140226557E1,2.012962103E0,-9.858728409E0,-1.601097465E0
1.141197922E1,2.487040043E0,-9.868299484E0,-3.221935749E0
1.142169360E1,2.412862539E0,-9.741479874E0,-4.157828331E0
1.143140719E1,1.579861164E0,-9.559326172E0,-3.923331738E0
1.144111995E1,1.719841212E-1,-9.497113228E0,-2.881855726E0
1.145083360E1,-1.295713425E0,-9.595218658E0,-1.814058661E0
1.146054792E1,-2.152642965E0,-9.600004196E0,-1.124626637E0
1.147026151E1,-2.480758905E0,-9.394221306E0,-7.342974544E-1
1.147997427E1,-2.583650351E0,-9.080761909E0,-4.639084935E-1
1.148968792E1,-2.526222467E0,-8.755039215E0,-2.554338276E-1
1.149940229E1,-2.406581402E0,-8.563612938E0,-1.214357466E-1
1.150911589E1,-2.262712955E0,-8.621041298E0,-8.793623000E-2
1.151882860E1,-2.083251238E0,-8.843573570E0,-3.272185028E-1
1.152854224E1,-1.726421595E0,-9.186046600E0,-6.361917257E-1
1.153825662E1,-1.295713425E0,-9.537791252E0,-8.539385796E-1
1.154797021E1,-1.005882859E0,-9.729516029E0,-9.451649189E-1
1.155768297E1,-7.881359458E-1,-9.815657616E0,-8.419744968E-1
1.156739656E1,-6.900302172E-1,-9.796515465E0,-7.007979155E-1
1.157711094E1,-7.666005492E-1,-9.705587387E0,-5.548357368E-1
1.158682453E1,-9.628120065E-1,-9.521040916E0,-4.639084935E-1
1.159653729E1,-1.290927768E0,-9.257830620E0,-5.069792867E-1
1.160625089E1,-1.621137381E0,-8.999106407E0,-6.505486369E-1
1.161596526E1,-1.894218206E0,-8.834002495E0,-7.342974544E-1
1.162567886E1,-2.188535452E0,-8.709575653E0,-8.443672657E-1
1.163539162E1,-2.459223509E0,-8.695218086E0,-1.000199914E0
1.164510526E1,-2.595614433E0,-8.810073853E0,-1.213161111E0
1.165481958E1,-2.629113913E0,-8.968000412E0,-1.375872970E0
1.166453318E1,-2.581257343E0,-9.073583603E0,-1.514955878E0
1.167424594E1,-2.397010088E0,-9.231510162E0,-1.478764415E0
1.168395958E1,-2.152642965E0,-9.427721024E0,-1.215553880E0
1.169367391E1,-2.049751759E0,-9.554540634E0,-9.113663435E-1
1.170338750E1,-2.064108610E0,-9.463613510E0,-7.007979155E-1
1.171310026E1,-2.102393866E0,-9.195617676E0,-6.649056077E-1
1.172281391E1,-1.973181367E0,-8.939286232E0,-7.654041648E-1
1.173252823E1,-1.523031592E0,-8.869894028E0,-7.917252183E-1
1.174224182E1,-9.604191780E-1,-8.963214874E0,-6.864410043E-1
1.175195458E1,-4.193421602E-1,-9.209974289E0,-3.921238184E-1
1.176166823E1,2.123630047E-2,-9.566504478E0,1.256231871E-2
1.177138255E1,4.737788737E-1,-1.014347458E1,4.268197417E-1
1.178109615E1,9.332008362E-1,-1.108445168E1,6.206383705E-1
1.179080891E1,1.438385487E0,-1.231735325E1,6.996015310E-1
1.180052250E1,1.618146300E0,-1.366541004E1,8.003991842E-1
1.181023688E1,1.455135226E0,-1.491027641E1,9.535398483E-1
1.181995047E1,9.978070259E-1,-1.568106365E1,1.144965649E0
1.182966323E1,1.695913076E-1,-1.565713596E1,1.061216831E0
1.183937682E1,-1.324427366E0,-1.474277878E1,3.167499006E-1
1.184909120E1,-2.760719061E0,-1.390708542E1,-9.810572863E-1
1.185880479E1,-3.749552965E0,-1.354068470E1,-3.080460072E0
1.186851750E1,-4.850849628E0,-1.344018555E1,-6.113960743E0
1.187823115E1,-6.375975132E0,-1.322243881E1,-9.087342262E0
1.188794552E1,-7.628019333E0,-1.271486092E1,-1.045902824E1
1.189765912E1,-7.941479206E0,-1.212353516E1,-9.285946846E0
1.190737182E1,-7.165905476E0,-1.163270760E1,-5.781059742E0
1.191708547E1,-6.014359951E0,-1.109162998E1,-2.048555374E0
1.192679985E1,-6.402296066E0,-1.023948669E1,-4.256233275E-1
1.193651339E1,-6.088537216E0,-9.715159416E0,4.148556292E-1
1.194622615E1,-5.612066269E0,-9.154939651E0,1.235892892E0
1.195593979E1,-5.238786221E0,-8.786145210E0,1.911267042E0
1.196565417E1,-5.070989609E0,-8.568398476E0,2.303689957E0
1.197536771E1,-5.542674541E0,-8.182855606E0,2.452344179E0
1.198508047E1,-5.803791523E0,-7.953144073E0,2.512164593E0
1.199479412E1,-5.545067310E0,-8.108677864E0,2.344367981E0
1.200450844E1,-5.332106113E0,-8.493922234E0,2.033301115E0
1.201422203E1,-5.135595798E0,-8.901000977E0,1.820040703E0
1.202393474E1,-4.750350952E0,-9.408578873E0,2.205584288E0
1.203364839E1,-4.161417484E0,-9.846764565E0,3.058027267E0
1.204336276E1,-3.622733593E0,-1.027537823E1,2.227119684E0
1.205307636E1,-3.308974504E0,-1.051226807E1,-2.626122832E-1
1.206278906E1,-2.822932482E0,-1.050987530E1,-3.312862873E0
1.207250271E1,-1.791027784E0,-1.021077251E1,-5.771488190E0
1.208221708E1,-5.341976285E-1,-9.751050949E0,-6.164210320E0
1.209193063E1,7.345965505E-1,-9.420542717E0,-5.242375374E0
1.210164339E1,1.620539188E0,-9.164510727E0,-2.967997313E0
1.211135698E1,1.467099428E0,-8.783752441E0,-9.329017401E-1
1.212107136E1,8.063812256E-1,-8.204390526E0,5.751747489E-1
1.213078495E1,-9.840483218E-2,-7.584350586E0,1.190429211E0
1.214049766E1,-1.386640668E0,-6.847062111E0,5.656034350E-1
1.215021130E1,-1.884646893E0,-6.384948254E0,-4.232304990E-1
1.215992568E1,-1.841576099E0,-6.260521412E0,-1.134197950E0
1.216963922E1,-1.647458434E0,-6.372983932E0,-1.406979680E0
1.217935198E1,-1.491924882E0,-6.557231426E0,-1.337587833E0
1.218906557E1,-1.549352646E0,-6.629015923E0,-1.119840980E0
1.219877995E1,-1.846361756E0,-6.523731709E0,-1.076770186E0
1.220849354E1,-2.219642162E0,-6.298806667E0,-9.161519408E-1
1.221820625E1,-2.550150633E0,-6.040082455E0,-5.213362575E-1
1.222791990E1,-2.827718258E0,-5.798407555E0,-6.580262445E-3
1.223763427E1,-3.052942514E0,-5.537290573E0,3.334996700E-1
1.224734781E1,-3.222832918E0,-5.324329376E0,3.430709541E-1
1.225706057E1,-3.421437263E0,-5.209474087E0,7.776673418E-3
1.226677417E1,-3.658625841E0,-5.142475128E0,-6.146563292E-1
1.227648854E1,-3.952943087E0,-5.214259624E0,-1.433300734E0
1.228620214E1,-4.197309971E0,-5.491827011E0,-2.527418852E0
1.229591484E1,-4.345664978E0,-5.918048382E0,-3.712464333E0
1.230562849E1,-4.654638290E0,-6.607480526E0,-5.077270508E0
1.231534287E1,-5.186143875E0,-7.931309700E0,-6.920641422E0
1.232505641E1,-5.631208897E0,-9.923335075E0,-9.415457726E0
1.233476917E1,-5.607280731E0,-1.227667522E1,-1.203440285E1
1.234448276E1,-4.956133842E0,-1.458216000E1,-1.439970779E1
1.235419714E1,-3.864408493E0,-1.616471291E1,-1.460818195E1
1.236391073E1,-2.444866419E0,-1.599003696E1,-1.179751301E1
1.237362344E1,-9.580263495E-1,-1.433330631E1,-8.417053223E0
1.238333708E1,-2.135594189E-1,-1.239631653E1,-5.546562672E0
1.239305141E1,-7.785646915E-1,-1.049312592E1,-3.238685369E0
1.240276500E1,-1.597209096E0,-9.023035049E0,-1.196411371E0
1.241247771E1,-1.676172256E0,-8.237890244E0,7.573283911E-1
1.242219136E1,-2.140678883E0,-8.802895546E0,1.211964726E0
1.243190573E1,-2.657827854E0,-1.043091202E1,7.980063558E-1
1.244161927E1,-2.406581402E0,-1.191535950E1,-1.908276081E-1
1.245133203E1,-1.544566989E0,-1.308126259E1,-2.618346214E0
1.246104563E1,-7.809575200E-1,-1.316501141E1,-5.766702652E0
1.247076000E1,-1.994716763E0,-1.107727337E1,-6.860820770E0
1.248047354E1,-4.697709084E0,-8.924929619E0,-6.786643028E0
1.249018630E1,-7.807481289E0,-8.134998322E0,-6.152245998E0
1.249989990E1,-8.511270523E0,-8.496614456E0,-4.291826725E0
1.250961427E1,-5.360819817E0,-8.786145210E0,-2.199602127E0
1.251932787E1,-3.330509901E0,-8.345566750E0,-1.788634956E-1
1.252904057E1,-3.196511984E0,-7.706384659E0,1.109073281E0
1.253875422E1,-3.543770313E0,-7.098308563E0,1.384546995E0
1.254846854E1,-3.866801500E0,-6.700800896E0,1.348654628E0
1.255818214E1,-4.039084435E0,-6.717550278E0,1.214357495E0
1.256789485E1,-4.010370731E0,-7.093522549E0,1.109073281E0
1.257760849E1,-3.905086517E0,-7.739883900E0,1.290927768E0
1.258732281E1,-3.706482172E0,-8.499007225E0,1.767398596E0
1.259703641E1,-3.610769272E0,-9.434899330E0,1.889731646E0
1.260674912E1,-3.330509901E0,-1.059362411E1,2.081157446E0
1.261646276E1,-2.619542599E0,-1.152742290E1,2.138585329E0
1.262617714E1,-1.743171334E0,-1.194885921E1,2.066800594E0
1.263589068E1,-9.675976634E-1,-1.199432278E1,2.174477577E0
1.264560339E1,-5.653043389E-1,-1.164467144E1,2.318047047E0
1.265531703E1,-2.015953064E-1,-1.114666557E1,2.567199707E0
1.266503141E1,3.897309899E-1,-1.065583706E1,2.461915493E0
1.267474495E1,1.187139153E0,-1.026819992E1,1.223928809E0
1.268445766E1,1.493420482E0,-9.983155251E0,-1.361516118E0
1.269417130E1,1.733001828E0,-9.980762482E0,-3.499503136E0
1.270388568E1,1.747358680E0,-9.999904633E0,-4.581656933E0
1.271359922E1,1.163210869E0,-9.736694336E0,-4.248755932E0
1.272331193E1,1.648056656E-1,-9.272188187E0,-3.015853882E0
1.273302557E1,-8.575277925E-1,-8.889037132E0,-1.560419440E0
1.274273990E1,-1.645065546E0,-8.719146729E0,-4.782654345E-1
1.275245349E1,-2.248355865E0,-8.673683167E0,1.178465188E-1
1.276216620E1,-2.712862730E0,-8.601898193E0,4.818546474E-1
1.277187984E1,-2.751147747E0,-8.510971069E0,7.091727853E-1
1.278159417E1,-2.526222467E0,-8.604290962E0,6.373881102E-1
1.279130776E1,-2.140678883E0,-8.970393181E0,1.947159469E-1
1.280102047E1,-1.673779488E0,-9.343972206E0,-3.080759048E-1
1.281073412E1,-1.288534999E0,-9.636196136E0,-8.060821295E-1
1.282044844E1,-1.060917735E0,-9.748658180E0,-1.263410330E0
1.283016203E1,-8.048857450E-1,-9.820443153E0,-1.531705618E0
1.283987474E1,-7.331010103E-1,-9.796515465E0,-1.668096542E0
1.284958839E1,-8.312067389E-1,-9.746265411E0,-1.634596944E0
1.285930271E1,-1.125523925E0,-9.604789734E0,-1.399801254E0
1.286901630E1,-1.362712502E0,-9.430113792E0,-1.064806104E0
1.287872901E1,-1.496710539E0,-9.265008926E0,-8.276175261E-1
1.288844261E1,-1.568495274E0,-9.114261627E0,-7.342974544E-1
1.289815698E1,-1.673779488E0,-8.982357025E0,-7.606185079E-1
1.290787052E1,-1.800599098E0,-8.886644363E0,-9.257232547E-1
1.291758328E1,-1.901396751E0,-8.881858826E0,-1.112662554E0
1.292729688E1,-2.023430586E0,-8.924929619E0,-1.349551916E0
1.293701125E1,-2.131107569E0,-9.049356461E0,-1.605883121E0
1.294672479E1,-2.169392824E0,-9.219545364E0,-1.591526151E0
1.295643750E1,-2.083251238E0,-9.375079155E0,-1.289731383E0
1.296615115E1,-1.889432549E0,-9.540184021E0,-8.970093727E-1
1.297586547E1,-1.654636860E0,-9.674481392E0,-4.902295470E-1
1.298557906E1,-1.417747378E0,-9.774979591E0,-2.171486616E-1
1.299529177E1,-1.204487085E0,-9.839586258E0,-1.980060786E-1
1.300500537E1,-1.027418256E0,-9.827621460E0,-5.811567903E-1
1.301471974E1,-8.120641708E-1,-9.820443153E0,-1.143769264E0
1.302443333E1,-4.576273263E-1,-9.777372360E0,-1.442872047E0
1.303414604E1,-7.926224917E-2,-9.739087105E0,-1.213161111E0
1.304385964E1,1.384846121E-1,-9.629017830E0,-7.199404836E-1
1.305357401E1,2.700898647E-1,-9.504291534E0,-1.740778536E-1
1.306328755E1,4.160520434E-1,-9.430113792E0,4.076771438E-1
1.307300026E1,7.585247755E-1,-9.588040352E0,1.068395257E0
1.308271391E1,1.278066397E0,-1.016261673E1,1.540080428E0
1.309242823E1,1.627717614E0,-1.130967617E1,1.355833173E0
1.310214182E1,1.486241937E0,-1.258086300E1,9.008977413E-1
1.311185453E1,7.369893789E-1,-1.357926846E1,7.549355626E-1
1.312156813E1,-2.398804724E-1,-1.433330631E1,6.158527136E-1
1.313128250E1,-1.115952611E0,-1.482892036E1,4.507479668E-1
1.314099604E1,-2.186142683E0,-1.474038601E1,-6.529414654E-1
1.315070875E1,-3.261118174E0,-1.420409393E1,-3.037389278E0
1.316042240E1,-3.857230186E0,-1.375872993E1,-5.871986866E0
1.317013672E1,-4.266701698E0,-1.346411419E1,-7.746763229E0
1.317985031E1,-4.874777794E0,-1.306690502E1,-7.995616913E0
1.318956302E1,-5.566602707E0,-1.256650639E1,-6.982854843E0
1.319927662E1,-6.189035892E0,-1.215224934E1,-5.479563713E0
1.320899099E1,-6.555436611E0,-1.193450165E1,-4.248755932E0
1.321870453E1,-6.387938976E0,-1.184327602E1,-3.152244806E0
1.322841724E1,-6.177071571E0,-1.155135155E1,-2.185245275E0
1.323813089E1,-5.863611698E0,-1.098634624E1,-1.476371527E0
1.324784521E1,-5.554638863E0,-1.036630630E1,-1.162911773E0
1.325755880E1,-5.250750065E0,-9.870692253E0,-9.667003751E-1
1.326727151E1,-5.020740032E0,-9.604789734E0,-4.806582630E-1
1.327698511E1,-4.977669239E0,-9.442078590E0,4.148556292E-1
1.328669943E1,-4.884349346E0,-9.384650230E0,1.271785259E0
1.329641302E1,-5.142774105E0,-9.066405296E0,1.846361756E0
1.330612573E1,-5.164309502E0,-8.745467186E0,1.920838356E0
1.331583932E1,-5.137988567E0,-8.805288315E0,1.867897153E0
1.332555370E1,-5.219643593E0,-8.867501259E0,2.026122570E0
1.333526724E1,-5.470890045E0,-9.092725754E0,2.284547329E0
1.334497995E1,-5.329713345E0,-9.564111710E0,1.954337835E0
1.335469360E1,-4.436592102E0,-1.031605625E1,1.315155149E0
1.336440792E1,-3.816552162E0,-1.083559799E1,-9.547362328E-1
1.337412146E1,-3.421437263E0,-1.068215847E1,-3.377469063E0
1.338383417E1,-2.387438774E0,-1.038544846E1,-4.808975220E0
1.339354781E1,-9.628120065E-1,-1.013390255E1,-4.062115669E0
1.340326214E1,1.014855862E0,-1.000708294E1,-2.166102648E0
1.341297573E1,2.228615284E0,-9.736694336E0,-2.745763958E-1
1.342268844E1,2.314756870E0,-9.049356461E0,1.037288666E0
1.343240203E1,1.620539188E0,-8.120641708E0,1.054038405E0
1.344211636E1,2.246262282E-1,-6.923632145E0,2.377867550E-1
1.345182995E1,-9.149555564E-1,-5.922834396E0,-5.548357368E-1
1.346154266E1,-1.190130115E0,-5.534897804E0,-8.443672657E-1
1.347125625E1,-1.092024446E0,-5.724229813E0,-8.898309469E-1
1.348097063E1,-1.096810102E0,-6.135795593E0,-8.754739761E-1
1.349068417E1,-1.233201027E0,-6.538088799E0,-7.845467329E-1
1.350039688E1,-1.477568030E0,-6.770192623E0,-7.079764009E-1
1.351011047E1,-1.846361756E0,-6.777370930E0,-6.792625189E-1
1.351982484E1,-2.202892303E0,-6.595516682E0,-6.649056077E-1
1.352953839E1,-2.492722988E0,-6.212365627E0,-5.261218548E-1
1.353925110E1,-2.710469961E0,-5.757729530E0,-1.860419661E-1
1.354896469E1,-2.877967358E0,-5.326722145E0,8.195417374E-2
1.355867906E1,-2.928216696E0,-5.022534847E0,1.995015889E-1
1.356839261E1,-2.866003275E0,-4.874179840E0,1.082752272E-1
1.357810531E1,-2.870789051E0,-4.816751957E0,-3.655036688E-1
1.358781891E1,-3.088835001E0,-4.878965378E0,-1.330409408E0
1.359753328E1,-3.445365429E0,-5.089533806E0,-2.726322412E0
1.360724682E1,-3.742374659E0,-5.539683342E0,-4.430909157E0
1.361695953E1,-3.960121393E0,-6.363412857E0,-6.554539204E0
1.362667313E1,-4.427021027E0,-7.622635841E0,-9.276374817E0
1.363638750E1,-5.171487808E0,-9.274580956E0,-1.238644600E1
1.364610104E1,-5.837290764E0,-1.126391315E1,-1.458425426E1
1.365581375E1,-5.985645771E0,-1.310997581E1,-1.438056469E1
1.366552735E1,-5.367998600E0,-1.435962772E1,-1.201525974E1
1.367524167E1,-4.125525475E0,-1.457976723E1,-9.374779701E0
1.368495526E1,-2.918645382E0,-1.364387512E1,-7.277471066E0
1.369466797E1,-1.920539260E0,-1.218814087E1,-5.788238049E0
1.370438156E1,-1.324427366E0,-1.067498016E1,-4.548157692E0
1.371409589E1,-1.441675663E0,-9.317651749E0,-3.365504980E0
1.372380948E1,-1.781456470E0,-8.364709854E0,-2.178066730E0
1.373352219E1,-2.119143486E0,-8.333602905E0,-1.354337573E0
1.374323578E1,-3.186940670E0,-9.861121178E0,-1.277767301E0
1.375295010E1,-3.771088600E0,-1.190578842E1,-7.917252183E-1
1.376266365E1,-2.820539713E0,-1.322243881E1,-6.266204119E-1
1.377237636E1,-8.503493667E-1,-1.329900932E1,-2.838784933E0
1.378209000E1,4.995017126E-2,-1.177149105E1,-6.020640850E0
1.379180432E1,-1.065703392E0,-9.384650230E0,-7.330112934E0
1.380151787E1,-3.550948858E0,-7.680063248E0,-6.487241268E0
1.381123057E1,-7.273582458E0,-7.141379356E0,-5.431707382E0
1.382094417E1,-9.557532310E0,-8.271389961E0,-4.703691006E0
1.383065854E1,-6.715755939E0,-9.796515465E0,-3.068495989E0
1.384037208E1,-3.852444410E0,-9.710372925E0,-9.475577474E-1
1.385008479E1,-3.299403429E0,-8.740681648E0,1.046859860E0
1.385979839E1,-3.294617653E0,-7.431210041E0,2.172084808E0
1.386951271E1,-3.383152008E0,-6.609873295E0,2.076371908E0
1.387922625E1,-3.498306751E0,-6.461518288E0,1.566401482E0
1.388893896E1,-3.553341627E0,-6.777370930E0,1.408475280E0
1.389865260E1,-3.431008577E0,-7.380960464E0,1.398903966E0
1.390836693E1,-3.263510942E0,-8.048856735E0,1.571187139E0
1.391808047E1,-3.210868835E0,-8.829216003E0,1.865504384E0
1.392779318E1,-3.088835001E0,-9.961619377E0,1.875374794E0
1.393750677E1,-2.538186550E0,-1.102223873E1,1.654935956E0
1.394722110E1,-1.735992789E0,-1.172363472E1,1.552044630E0
1.395693469E1,-1.005882859E0,-1.211874962E1,1.765005827E0
1.396664740E1,-5.054838061E-1,-1.223121166E1,2.129014015E0
1.397636099E1,-7.477570791E-3,-1.197996521E1,2.184048891E0
1.398607531E1,6.269195080E-1,-1.139342499E1,1.537687659E0
1.399578886E1,1.263709426E0,-1.073240757E1,-2.267199457E-1
1.400550156E1,1.790429592E0,-1.028255749E1,-2.865106106E0
1.401521516E1,1.984248161E0,-1.003818989E1,-5.070092201E0
1.402492948E1,1.440778375E0,-9.751050949E0,-5.544169903E0
1.403464307E1,3.514458239E-1,-9.525827408E0,-4.469194412E0
1.404435578E1,-7.522436380E-1,-9.432506561E0,-2.979961395E0
1.405406938E1,-1.573280931E0,-9.384650230E0,-1.718345761E0
1.406378370E1,-2.047358990E0,-9.300901413E0,-9.738788009E-1
1.407349724E1,-2.348854542E0,-8.958429337E0,-5.356931686E-1
1.408320995E1,-2.542972326E0,-8.453244209E0,-2.913261652E-1
1.409292354E1,-2.420938253E0,-8.056035995E0,-2.027917206E-1
1.410263787E1,-2.245963097E0,-7.972286701E0,-2.171486616E-1
1.411235141E1,-2.214856386E0,-8.204390526E0,-1.860419661E-1
1.412206412E1,-2.138286114E0,-8.649754524E0,-2.147558331E-1
1.413177771E1,-1.958824396E0,-9.109476089E0,-3.415754437E-1
1.414149208E1,-1.683350682E0,-9.449256897E0,-5.213362575E-1
1.415120563E1,-1.305284739E0,-9.710372925E0,-7.390831113E-1
1.416091833E1,-9.532406926E-1,-9.863513947E0,-9.329017401E-1
1.417063193E1,-6.948158741E-1,-9.968798637E0,-1.162911773E0
1.418034625E1,-5.485545993E-1,-1.004058266E1,-1.339980721E0
1.419005979E1,-5.318048596E-1,-9.997511864E0,-1.342373490E0
1.419977250E1,-6.155536175E-1,-9.815657616E0,-1.234696507E0
1.420948610E1,-8.670991063E-1,-9.544969559E0,-1.203589797E0
1.421920042E1,-1.154237866E0,-9.276973724E0,-1.143769264E0
1.422891396E1,-1.444068432E0,-9.138189316E0,-1.167697430E0
1.423862667E1,-1.812862277E0,-9.198010445E0,-1.325623751E0
1.424834026E1,-2.224427700E0,-9.353543282E0,-1.581954837E0
1.425805458E1,-2.454437733E0,-9.511469841E0,-1.842772484E0
1.426776818E1,-2.511865616E0,-9.556933403E0,-2.079961061E0
1.427748083E1,-2.528615236E0,-9.480362892E0,-2.314457655E0
1.428719443E1,-2.435295343E0,-9.332008362E0,-2.496312141E0
1.429690880E1,-2.272284269E0,-9.140582085E0,-2.407777786E0
1.430662235E1,-2.071287155E0,-9.001500130E0,-2.070389748E0
1.431633505E1,-1.894218206E0,-8.917751312E0,-1.636989832E0
1.432604865E1,-1.733600020E0,-8.867501259E0,-1.174875975E0
1.433576297E1,-1.606780410E0,-8.869894028E0,-7.079764009E-1
1.434547651E1,-1.365105271E0,-8.886644363E0,-3.439682424E-1
1.435518922E1,-1.089631557E0,-8.953642845E0,-5.443671346E-2
1.436490281E1,-7.594220638E-1,-9.046963692E0,2.066800594E-1
1.437461714E1,-4.265206456E-1,-9.164510727E0,5.153541565E-1
1.438433068E1,-1.465603858E-1,-9.303294182E0,7.860422134E-1
1.439404339E1,1.336989701E-1,-9.523433685E0,1.075573802E0
1.440375698E1,4.594219327E-1,-9.839586258E0,1.348654628E0
1.441347130E1,7.800601721E-1,-1.034477043E1,1.401296735E0
1.442318485E1,8.901300430E-1,-1.111077309E1,1.037288666E0
1.443289755E1,6.269195080E-1,-1.196321583E1,7.307082415E-1
1.444261115E1,1.408774406E-1,-1.264307690E1,6.924230456E-1
1.445232547E1,-2.470589429E-1,-1.320090389E1,8.506484628E-1
1.446203901E1,-5.700899959E-1,-1.338993645E1,8.458628058E-1
1.447175172E1,-1.046560764E0,-1.306211948E1,3.478565812E-1
1.448146531E1,-1.707278967E0,-1.252104282E1,-9.403793216E-1
1.449117964E1,-2.111965179E0,-1.215224934E1,-2.900998354E0
1.450089318E1,-2.344068766E0,-1.201346493E1,-5.017449856E0
1.451060589E1,-2.504687071E0,-1.224796200E1,-6.523133755E0
1.452031948E1,-2.751147747E0,-1.274118233E1,-7.004390240E0
1.453003380E1,-2.954836845E0,-1.314586830E1,-6.506383896E0
1.453974734E1,-2.885145903E0,-1.329422379E1,-5.436492920E0
1.454946005E1,-2.720041037E0,-1.302383423E1,-4.093222141E0
1.455917365E1,-2.497508526E0,-1.244207954E1,-2.594418049E0
1.456888797E1,-2.487937450E0,-1.168056393E1,-1.227517962E0
1.457860151E1,-2.938086987E0,-1.095763206E1,-1.057627559E0
1.458831422E1,-3.256332397E0,-1.023948669E1,-8.922237158E-1
1.459802781E1,-3.560520172E0,-9.616754532E0,-6.337988973E-1
1.460774214E1,-3.986442566E0,-9.145368576E0,-2.530409992E-1
1.461745568E1,-4.412663937E0,-8.850751877E0,2.210369855E-1
1.462716833E1,-4.702494621E0,-8.795717239E0,7.884350419E-1
1.463688193E1,-4.664209366E0,-8.989535332E0,1.042074203E0
1.464659630E1,-4.400700092E0,-9.312865257E0,1.111466169E0
1.465630974E1,-4.151846409E0,-9.662516594E0,1.266999602E0
1.466602250E1,-4.118346691E0,-9.942477226E0,1.351047516E0
1.467573610E1,-4.170989037E0,-1.013150978E1,1.327119231E0
1.468545042E1,-4.261916161E0,-1.024666500E1,1.063609719E0
1.469516396E1,-4.235595226E0,-1.033519936E1,7.402794957E-1
1.470487667E1,-3.969692707E0,-1.031127071E1,1.283749342E0
1.471459026E1,-3.821337700E0,-1.030648518E1,6.278168559E-1
1.472430458E1,-3.076870918E0,-1.025862885E1,-1.361516118E0
1.473401813E1,-2.071287155E0,-9.990333557E0,-3.161816120E0
1.474373083E1,-9.747761488E-1,-9.748658180E0,-3.751048565E0
1.475344443E1,4.522434771E-1,-9.633803368E0,-4.447659016E0
1.476315875E1,8.231309652E-1,-9.123832703E0,-3.521038532E0
1.477287229E1,8.805587292E-1,-8.601898193E0,-2.261815548E0
1.478258495E1,6.388836503E-1,-8.024929047E0,-1.500598907E0
1.479229854E1,1.073779166E-1,-7.493422985E0,-5.883352757E-1
1.480201287E1,-7.785646915E-1,-6.949953556E0,-1.453639716E-1
1.481172641E1,-1.518245935E0,-6.475875378E0,-2.458625287E-1
1.482143912E1,-1.808076620E0,-6.195616245E0,-2.961117923E-1
1.483115271E1,-1.791027784E0,-6.114260197E0,-9.511470050E-2
1.484086703E1,-1.539781332E0,-6.181259155E0,5.225326419E-1
1.485058057E1,-1.762313843E0,-6.178866386E0,2.856431901E-1
1.486029328E1,-2.071287155E0,-6.145366669E0,-1.333998591E-1
1.487000682E1,-2.162214279E0,-6.133402824E0,-3.080759048E-1
1.487972115E1,-2.078465462E0,-6.142973900E0,-2.841476798E-1
1.488943469E1,-1.910967946E0,-6.171687603E0,-9.511470050E-2
1.489914740E1,-1.865504384E0,-6.176473618E0,1.465603858E-1
1.490886099E1,-1.997109652E0,-6.164509296E0,1.633101404E-1
1.491857531E1,-2.071287155E0,-6.313163280E0,-4.725824669E-2
1.492828886E1,-1.997109652E0,-6.593123913E0,-3.583251834E-1
1.493800156E1,-1.633101463E0,-7.002595425E0,-6.888338327E-1
1.494771516E1,-1.168594718E0,-7.491030216E0,-1.189232826E0
1.495742948E1,-6.155536175E-1,-8.039285660E0,-2.130210400E0
1.496714292E1,-2.279163599E-1,-8.767003059E0,-4.083651066E0
1.497685568E1,-2.327020019E-1,-9.818050385E0,-6.405885220E0
1.498656927E1,-5.294120312E-1,-1.131685448E1,-8.673085213E0
1.499628360E1,-8.240283132E-1,-1.326072407E1,-1.114636612E1
1.500599714E1,-8.479565382E-1,-1.480259895E1,-1.336810207E1
1.501570985E1,-1.015454054E0,-1.507538128E1,-1.383470249E1
1.502542339E1,-1.592423439E0,-1.398126316E1,-1.221894836E1
1.503513771E1,-2.068894386E0,-1.241306686E1,-9.369994164E0
1.504485125E1,-2.732005358E0,-1.083559799E1,-6.037390709E0
1.505456396E1,-3.661018610E0,-9.497113228E0,-3.231507063E0
