"Time (s)","Gyroscope x (rad/s)","Gyroscope y (rad/s)","Gyroscope z (rad/s)"
1.686280220E-1,2.748812735E-1,-9.162709117E-3,-1.189625040E-1
1.783414590E-1,3.188622594E-1,8.979454637E-2,-1.165191159E-1
1.880557820E-1,3.469612300E-1,2.229592502E-1,-1.140757278E-1
1.977691680E-1,3.506263196E-1,3.720059693E-1,-1.226275861E-1
2.074818240E-1,3.347443044E-1,5.039489865E-1,-1.385096163E-1
2.171952610E-1,2.956500649E-1,5.821374655E-1,-1.470614821E-1
2.269095320E-1,2.333436459E-1,5.784723759E-1,-1.324011385E-1
2.366229180E-1,1.527118087E-1,4.917320311E-1,-1.006370857E-1
2.463355740E-1,6.352811307E-2,3.316900730E-1,-7.253811508E-2
2.560490110E-1,2.443389036E-3,1.349972486E-1,-4.932591692E-2
2.657633340E-1,-0.000000000E0,-8.368607610E-2,-3.710897267E-2
2.754767200E-1,6.108472496E-2,-3.145863414E-1,-4.688252881E-2
2.851893760E-1,1.502684206E-1,-5.234960914E-1,-9.208522737E-2
2.949028130E-1,2.150182426E-1,-6.322268844E-1,-1.360662282E-1
3.046170840E-1,2.309002578E-1,-6.053496599E-1,-1.592784226E-1
3.143304700E-1,2.113531530E-1,-4.355340898E-1,-1.641651988E-1
3.240431260E-1,1.637070626E-1,-1.838650256E-1,-1.714953631E-1
3.337565630E-1,5.131116882E-2,6.047387794E-2,-2.044811249E-1
3.434708860E-1,-1.649287641E-1,2.461714447E-1,-2.790044844E-1
3.531842720E-1,-4.898995161E-1,3.793361485E-1,-3.388675153E-1
3.628969280E-1,-8.661814332E-1,4.697415531E-1,-3.034383655E-1
3.726103660E-1,-1.211920977E0,5.296045542E-1,-1.568350345E-1
3.823246360E-1,-1.519788027E0,5.405998230E-1,5.818320066E-2
3.920380220E-1,-1.826433301E0,5.308262706E-1,3.000787199E-1
4.017506780E-1,-2.148960590E0,5.515950918E-1,5.346440673E-1
4.114642200E-1,-2.475305796E0,6.053496599E-1,7.288935184E-1
4.211784380E-1,-2.761182308E0,6.676560640E-1,8.620582223E-1
4.308918240E-1,-2.967648745E0,7.434011102E-1,9.292513728E-1
4.406044800E-1,-3.069049358E0,8.350282311E-1,9.365815520E-1
4.503179180E-1,-3.061719179E0,9.303203821E-1,9.133693576E-1
4.600322410E-1,-2.961540222E0,1.015838981E0,8.632798791E-1
4.697456260E-1,-2.791724682E0,1.098914266E0,8.034168482E-1
4.794582820E-1,-2.582814932E0,1.192984700E0,7.582141757E-1
4.891717200E-1,-2.345806122E0,1.271173120E0,7.301151752E-1
4.988859910E-1,-2.111088037E0,1.304158926E0,7.044596076E-1
5.085994280E-1,-1.897291541E0,1.271173120E0,6.824691296E-1
5.183120840E-1,-1.711593986E0,1.149003744E0,6.580352187E-1
5.280255220E-1,-1.534448266E0,8.008207679E-1,6.409314871E-1
5.377397930E-1,-1.313321590E0,-6.291726977E-2,6.421532035E-1
5.474531780E-1,-1.158166409E0,-1.098914266E0,6.702521443E-1
5.571658340E-1,-1.189930439E0,-1.828265905E0,6.653653979E-1
5.668793760E-1,-1.334090471E0,-2.067718029E0,6.274928451E-1
5.765935950E-1,-1.463590026E0,-1.792836666E0,5.602996349E-1
5.863069800E-1,-1.525896430E0,-1.133121610E0,4.613423944E-1
5.960196360E-1,-1.539335132E0,-3.109212518E-1,3.623851240E-1
6.057330740E-1,-1.497797489E0,4.795151055E-1,3.110739589E-1
6.154473970E-1,-1.407392025E0,1.024390817E0,3.306210935E-1
6.251607820E-1,-1.273005724E0,1.252847672E0,3.855973184E-1
6.348734380E-1,-1.093416572E0,1.197871447E0,4.393518865E-1
6.445868760E-1,-8.918370008E-1,8.802309036E-1,4.650074840E-1
6.543011990E-1,-7.232431769E-1,3.939964771E-1,4.454603493E-1
6.640145840E-1,-5.974085927E-1,-6.780404598E-2,3.990359604E-1
6.737272410E-1,-4.972296655E-1,-3.365768492E-1,3.428380191E-1
6.834406780E-1,-3.970507085E-1,-3.927747905E-1,2.524326444E-1
6.931550010E-1,-2.602209449E-1,-3.243598938E-1,1.217113137E-1
7.028683860E-1,-5.375456065E-2,-2.583884001E-1,-2.122694254E-2
7.125810430E-1,2.345653474E-1,-2.351761907E-1,-1.446180940E-1
7.222944800E-1,5.815265775E-1,-2.657185495E-1,-2.423536479E-1
7.320088030E-1,9.541434050E-1,-3.549022675E-1,-3.400892019E-1
7.417221880E-1,1.321873426E0,-4.672981501E-1,-4.512633979E-1
7.514348450E-1,1.657839417E0,-5.589252710E-1,-5.929799676E-1
7.611483860E-1,1.937607527E0,-6.041279435E-1,-7.811209559E-1
7.708626050E-1,2.122083426E0,-5.735855699E-1,-1.008356094E0
7.805759910E-1,2.155069113E0,-3.952181637E-1,-1.229482770E0
7.902886470E-1,1.990140319E0,1.893626526E-2,-1.367534280E0
8.000021880E-1,1.692046881E0,6.212316751E-1,-1.318666577E0
8.097164070E-1,1.370741248E0,1.200314879E0,-1.045006990E0
8.194298450E-1,1.048213840E0,1.565601468E0,-6.577298045E-1
8.291425010E-1,6.841489077E-1,1.619356036E0,-3.681881726E-1
8.388559380E-1,2.785463631E-1,1.387234092E0,-2.863346636E-1
8.485702610E-1,-9.895725548E-2,8.301414251E-1,-3.498627543E-1
8.582836470E-1,-3.775036037E-1,1.154501289E-1,-4.304946065E-1
8.679963030E-1,-5.265503526E-1,-4.416425824E-1,-4.439332485E-1
8.777097410E-1,-5.925218463E-1,-7.824953198E-1,-3.461976945E-1
8.874240630E-1,-6.499415040E-1,-1.149003744E0,-1.409530044E-1
8.971374490E-1,-7.501204610E-1,-1.670667291E0,5.085303262E-2
9.068501570E-1,-8.930587173E-1,-2.198439360E0,1.510319859E-1
9.165635950E-1,-1.039662004E0,-2.487980843E0,1.937913001E-1
9.262778660E-1,-1.082421303E0,-2.396353722E0,2.402156889E-1
9.359913030E-1,-8.637380004E-1,-1.926001430E0,2.206685692E-1
9.457039590E-1,-4.165978432E-1,-1.100135922E0,7.040014863E-2
9.554173970E-1,8.429691941E-2,-8.612946421E-2,-9.575030953E-2
9.651317200E-1,5.387672782E-1,8.252546191E-1,-1.409530044E-1
9.748451050E-1,9.052756429E-1,1.561936498E0,-7.742489129E-2
9.845578130E-1,1.076312900E0,1.955322027E0,4.107947648E-2
9.942712510E-1,1.042105436E0,1.884463787E0,8.994726092E-2
1.003985574E0,1.009119630E0,1.591257095E0,6.429167092E-2
1.013698959E0,1.090973258E0,1.321262598E0,7.162184268E-2
1.023411616E0,1.226581335E0,1.113574505E0,1.204896197E-1
1.033125157E0,1.340198874E0,1.062263370E0,1.962346882E-1
1.042839376E0,1.413500547E0,1.178324342E0,2.719797492E-1
1.052552813E0,1.446486354E0,1.311489105E0,3.367295563E-1
1.062265470E0,1.462368369E0,1.261399627E0,3.843756318E-1
1.071978907E0,1.474585295E0,9.926267862E-1,4.198047817E-1
1.081693230E0,1.492910743E0,6.334486008E-1,4.601207078E-1
1.091406668E0,1.503905892E0,2.632751763E-1,5.370874405E-1
1.101119324E0,1.478250384E0,-8.246438205E-2,6.568135023E-1
1.110832761E0,1.418387294E0,-4.526378214E-1,7.472189069E-1
1.120547084E0,1.376849771E0,-8.118160367E-1,7.728744745E-1
1.130260470E0,1.426939249E0,-1.125791550E0,7.411104441E-1
1.139973178E0,1.538113356E0,-1.392120957E0,6.323796511E-1
1.149686616E0,1.615080118E0,-1.422663212E0,4.185830951E-1
1.159400938E0,1.551552057E0,-1.151447058E0,1.070509851E-1
1.169114324E0,1.360967636E0,-7.983773947E-1,-2.313583940E-1
1.178827032E0,1.121515512E0,-5.161659122E-1,-4.952444136E-1
1.188540470E0,9.003888369E-1,-3.414636254E-1,-6.357392669E-1
1.198254793E0,7.012526393E-1,-2.974826097E-1,-6.516213417E-1
1.207968178E0,5.277720094E-1,-3.573456407E-1,-5.978667736E-1
1.217680886E0,4.031592011E-1,-4.306473136E-1,-5.428904891E-1
1.227394324E0,3.347443044E-1,-4.831801951E-1,-5.111264586E-1
1.237108647E0,3.347443044E-1,-5.405998230E-1,-5.099047422E-1
1.246822032E0,4.043808877E-1,-6.432221532E-1,-5.404471159E-1
1.256534741E0,5.289937258E-1,-7.580614686E-1,-5.807630420E-1
1.266248178E0,6.548282504E-1,-7.898254991E-1,-5.880932212E-1
1.275962501E0,7.379034758E-1,-6.920899153E-1,-5.392253995E-1
1.285675938E0,7.721109390E-1,-4.636330605E-1,-4.439332485E-1
1.295388595E0,7.757760286E-1,-1.484358907E-1,-3.413109183E-1
1.305102032E0,7.635591030E-1,1.618745178E-1,-2.667875290E-1
1.314816355E0,7.574505806E-1,3.610107303E-1,-2.276933193E-1
1.324529793E0,7.562289238E-1,4.428642690E-1,-1.959292591E-1
1.334242449E0,7.403468490E-1,4.758500159E-1,-1.543916464E-1
1.343955991E0,6.975875497E-1,4.819584787E-1,-1.030804738E-1
1.353670209E0,6.255075932E-1,4.501944184E-1,-5.909947306E-2
1.363383647E0,5.485408306E-1,3.622324169E-1,-3.344388679E-2
1.373096303E0,4.984513521E-1,2.217375487E-1,-2.611372061E-2
1.382809845E0,4.898995161E-1,7.269082218E-2,-2.489202656E-2
1.392524116E0,5.155550838E-1,-3.481829539E-2,-3.344388679E-2
1.402237501E0,5.607577562E-1,-6.047387794E-2,-5.054761097E-2
1.411950209E0,6.084038615E-1,6.108472589E-4,-7.986827940E-2
1.421663647E0,6.389462352E-1,1.447708011E-1,-1.067455560E-1
1.431377970E0,6.352811456E-1,3.451287150E-1,-1.250709742E-1
1.441091407E0,5.754181147E-1,5.564818382E-1,-1.226275861E-1
1.450804063E0,4.495835900E-1,7.226322889E-1,-7.742489129E-2
1.460517605E0,2.675510943E-1,7.715001106E-1,-2.901524538E-3
1.470231824E0,6.352811307E-2,6.639909744E-1,6.062658876E-2
1.479945261E0,-1.062874198E-1,4.257605374E-1,1.009425074E-1
1.489657918E0,-2.003578991E-1,1.276670843E-1,1.339282542E-1
1.499371459E0,-2.064663768E-1,-1.655396074E-1,1.522536725E-1
1.509085730E0,-1.343863904E-1,-4.147652984E-1,1.253764033E-1
1.518799116E0,8.551862091E-3,-5.943543911E-1,4.352286831E-2
1.528511824E0,1.942494214E-1,-6.762079000E-1,-6.154286116E-2
1.538225261E0,3.432961702E-1,-6.261184216E-1,-1.580567211E-1
1.547939584E0,3.616215885E-1,-4.306473136E-1,-2.386885732E-1
1.557653022E0,2.211267054E-1,-1.386623234E-1,-2.961082160E-1
1.567365678E0,-5.864133686E-2,1.582094431E-1,-3.168770075E-1
1.577079220E0,-4.605788291E-1,3.817795515E-1,-3.095468581E-1
1.586793491E0,-9.492566586E-1,4.953971207E-1,-2.863346636E-1
1.596506876E0,-1.435491085E0,4.660764635E-1,-2.362451702E-1
1.606219584E0,-1.842315316E0,3.671191931E-1,-1.385096163E-1
1.615933022E0,-2.146517277E0,2.632751763E-1,1.664558798E-2
1.625647345E0,-2.372683525E0,1.789782494E-1,1.986780763E-1
1.635360782E0,-2.547385693E0,1.423274130E-1,3.660502136E-1
1.645073438E0,-2.678107023E0,1.325538605E-1,4.845545888E-1
1.654786980E0,-2.764847517E0,1.240019947E-1,5.285356045E-1
1.664501251E0,-2.799054861E0,1.215586066E-1,5.126535892E-1
1.674214636E0,-2.775842667E0,1.301104724E-1,4.698942602E-1
1.683927345E0,-2.696432590E0,1.459924877E-1,4.381301999E-1
1.693640782E0,-2.562046051E0,1.789782494E-1,4.320217371E-1
1.703355105E0,-2.386121988E0,2.180724740E-1,4.491254389E-1
1.713068543E0,-2.189276695E0,2.767138183E-1,5.150969625E-1
1.722781199E0,-1.995027184E0,3.561239541E-1,6.164975762E-1
1.732494741E0,-1.833763480E0,4.062134326E-1,6.959077120E-1
1.742209011E0,-1.710372329E0,4.159869850E-1,6.922426820E-1
1.751922397E0,-1.615080118E0,5.027272701E-1,6.091674566E-1
1.761635105E0,-1.555217147E0,6.591041684E-1,5.847335458E-1
1.771348647E0,-1.494132400E0,5.271611810E-1,6.384881139E-1
1.781062866E0,-1.415943980E0,1.301104724E-1,7.301151752E-1
1.790776303E0,-1.330425382E0,-3.133646548E-1,7.496622801E-1
1.800489011E0,-1.246128440E0,-7.861604095E-1,6.519267559E-1
1.810202449E0,-1.236354828E0,-9.999569654E-1,4.955498278E-1
1.819916772E0,-1.305991411E0,-9.034430981E-1,3.074088693E-1
1.829630209E0,-1.398840189E0,-5.186093450E-1,1.229330078E-1
1.839342866E0,-1.452594757E0,4.581354558E-2,-2.733541466E-2
1.849056407E0,-1.446486354E0,5.735855699E-1,-8.475505561E-2
1.858770678E0,-1.370741248E0,8.863393664E-1,-4.199574888E-2
1.868484063E0,-1.220472813E0,9.290986657E-1,5.207473040E-2
1.878196772E0,-9.969027042E-1,6.810947061E-1,1.314848661E-1
1.887910313E0,-7.342383862E-1,2.730487287E-1,1.754658818E-1
1.897624532E0,-4.715740979E-1,-1.337755471E-1,1.766875684E-1
1.907337970E0,-2.455606014E-1,-4.343124032E-1,1.363716573E-1
1.917050678E0,-4.520269856E-2,-5.809157491E-1,5.085303262E-2
1.926764116E0,1.392731816E-1,-6.029062271E-1,-6.032116711E-2
1.936478438E0,3.200839758E-1,-5.479300022E-1,-1.727170646E-1
1.946191876E0,5.033381581E-1,-4.379774928E-1,-2.741177082E-1
1.955904532E0,6.951441765E-1,-3.353551328E-1,-3.718532622E-1
1.965618074E0,8.955020905E-1,-2.987042964E-1,-4.512633979E-1
1.975332345E0,1.103190184E0,-3.060344756E-1,-5.025745630E-1
1.985045730E0,1.297439575E0,-2.852656841E-1,-5.318952799E-1
1.994758438E0,1.467255116E0,-2.229592502E-1,-5.685460567E-1
2.004471980E0,1.623632073E0,-1.459924877E-1,-6.394043565E-1
2.014186251E0,1.760461807E0,-2.015795931E-2,-7.432484031E-1
2.023899636E0,1.858197331E0,2.559449971E-1,-8.263236284E-1
2.033612345E0,1.899734974E0,7.055285573E-1,-8.202151656E-1
2.043325782E0,1.878966212E0,1.120904684E0,-6.821636558E-1
2.053040105E0,1.795890927E0,1.227192163E0,-4.756973088E-1
2.062753543E0,1.564990640E0,9.669712186E-1,-3.461976945E-1
2.072466251E0,1.092194915E0,5.931326747E-1,-3.571929336E-1
2.082179688E0,4.679090083E-1,4.159869850E-1,-4.378247857E-1
2.091894011E0,-7.941014320E-2,4.587462842E-1,-5.013529062E-1
2.101607449E0,-4.214846194E-1,4.086568058E-1,-5.001311898E-1
2.111320105E0,-5.803049207E-1,2.504473738E-2,-4.060607255E-1
2.121033647E0,-6.365028620E-1,-6.334486008E-1,-2.460187376E-1
2.130747918E0,-6.719319820E-1,-1.360356808E0,-8.719844371E-2
2.140461303E0,-7.342383862E-1,-1.902789235E0,2.764083818E-2
2.150174011E0,-7.745543122E-1,-2.067718029E0,1.693574041E-1
2.159887553E0,-6.694886088E-1,-1.882020354E0,3.061871827E-1
2.169601824E0,-4.752391577E-1,-1.411668062E0,2.793098986E-1
2.179315209E0,-3.335226178E-1,-7.311841846E-1,5.696150661E-2
2.189027918E0,-2.162399292E-1,4.275931045E-3,-1.751604527E-1
2.198741459E0,-9.773556143E-3,5.405998230E-1,-2.240282297E-1
2.208455678E0,2.394521236E-1,7.262973785E-1,-4.443913698E-2
2.218169116E0,3.579564989E-1,5.357130170E-1,2.011214644E-1
2.227881824E0,4.361449480E-1,3.500154912E-1,3.025220931E-1
2.237595261E0,6.597150564E-1,5.528167486E-1,2.487675399E-1
2.247309584E0,9.529217482E-1,9.168817401E-1,1.913478971E-1
2.257023022E0,1.172826767E0,1.287055135E0,1.815743446E-1
2.266735730E0,1.287665963E0,1.624242902E0,1.974563748E-1
2.276449168E0,1.327981949E0,1.902789235E0,2.304421216E-1
2.286163491E0,1.321873426E0,2.092151880E0,3.110739589E-1
2.295876928E0,1.296217918E0,2.066496372E0,4.479037523E-1
2.305589584E0,1.264453769E0,1.834374309E0,6.079457402E-1
2.315303126E0,1.218029380E0,1.475196123E0,7.533273697E-1
2.325017397E0,1.174048424E0,1.032942772E0,8.364025950E-1
2.334730834E0,1.176491857E0,5.088357925E-1,8.241856694E-1
2.344443491E0,1.275449038E0,-1.178935245E-1,7.252284288E-1
2.354157032E0,1.480693698E0,-8.154810667E-1,5.627430081E-1
2.363871303E0,1.778787255E0,-1.476417780E0,3.941491842E-1
2.373584688E0,2.080545664E0,-1.889350533E0,2.279987335E-1
2.383297397E0,2.254026413E0,-1.807497025E0,1.298050396E-2
2.393010938E0,2.181946516E0,-1.159998894E0,-2.362451702E-1
2.402725209E0,1.878966212E0,-2.168507725E-1,-4.451549351E-1
2.412438595E0,1.446486354E0,6.029062271E-1,-5.538857579E-1
2.422151303E0,9.859074950E-1,1.026834249E0,-5.526640415E-1
2.431864845E0,5.827482939E-1,1.052489877E0,-4.769189954E-1
2.441579063E0,2.712161839E-1,8.240329623E-1,-3.828485310E-1
2.451292501E0,6.474980712E-2,4.538595080E-1,-3.180987239E-1
2.461005209E0,-2.932066843E-2,5.497625098E-3,-2.961082160E-1
2.470718647E0,-1.588202827E-2,-4.514161348E-1,-2.985515893E-1
2.480432970E0,9.773556143E-2,-8.325847983E-1,-3.071034551E-1
2.490146407E0,2.626643181E-1,-1.063485026E0,-3.168770075E-1
2.499859116E0,4.031592011E-1,-1.083032131E0,-3.107685447E-1
2.509572553E0,4.898995161E-1,-9.009997249E-1,-2.777827978E-1
2.519286876E0,5.326588154E-1,-5.967977643E-1,-2.374668717E-1
2.529000313E0,5.595360994E-1,-2.498365343E-1,-2.069245130E-1
2.538712970E0,6.181774139E-1,6.536065787E-2,-1.983726472E-1
2.548426511E0,7.244648337E-1,3.072561622E-1,-2.057028115E-1
2.558140782E0,8.478559852E-1,4.758500159E-1,-2.203631550E-1
2.567854220E0,9.553651214E-1,5.858024955E-1,-2.325800955E-1
2.577566876E0,1.044548869E0,6.444438696E-1,-2.386885732E-1
2.587280418E0,1.119072199E0,6.664343476E-1,-2.374668717E-1
2.596994688E0,1.159388065E0,6.615476012E-1,-2.399102598E-1
2.606708126E0,1.133732557E0,6.212316751E-1,-2.472404242E-1
2.616420782E0,1.037218690E0,5.564818382E-1,-2.460187376E-1
2.626134324E0,8.845068216E-1,5.015056133E-1,-2.142546773E-1
2.635848595E0,7.000309825E-1,4.831801951E-1,-1.568350345E-1
2.645561980E0,5.082249045E-1,4.880669713E-1,-9.941539168E-2
2.655274688E0,3.457395434E-1,4.782933891E-1,-6.276455522E-2
2.664988230E0,2.345653474E-1,4.404208660E-1,-4.321744293E-2
2.674702501E0,1.612636745E-1,4.001049399E-1,-2.122694254E-2
2.684415886E0,9.651386738E-2,4.037700295E-1,2.153236605E-2
2.694128595E0,2.076880634E-2,4.807367921E-1,9.239064902E-2
2.703842136E0,-8.185353130E-2,5.613686442E-1,1.693574041E-1
2.713556355E0,-1.942494214E-1,5.540384650E-1,2.060082406E-1
2.723269793E0,-2.724378705E-1,4.440859556E-1,2.084516287E-1
2.732982501E0,-2.870981991E-1,2.596100867E-1,2.047865391E-1
2.742695938E0,-2.406738251E-1,2.260134928E-2,2.060082406E-1
2.752410261E0,-1.392731816E-1,-2.522799075E-1,1.950129867E-1
2.762123699E0,1.466033421E-2,-5.369347334E-1,1.204896197E-1
2.771836355E0,1.979145110E-1,-7.739434838E-1,-3.833066672E-2
2.781549897E0,3.616215885E-1,-8.838959932E-1,-2.215848416E-1
2.791264168E0,4.935645759E-1,-8.362498879E-1,-3.694098890E-1
2.800977605E0,6.413896084E-1,-6.725428104E-1,-4.854708612E-1
2.810690261E0,8.014315963E-1,-4.282039404E-1,-5.819846988E-1
2.820403803E0,8.405258060E-1,-1.117850468E-1,-6.223006248E-1
2.830118074E0,6.157340407E-1,2.816005945E-1,-5.502206683E-1
2.839831459E0,9.407047927E-2,6.603258848E-1,-3.779617548E-1
2.849544168E0,-5.949652195E-1,8.680139780E-1,-1.934858710E-1
2.859257709E0,-1.253458619E0,8.887827396E-1,-8.719844371E-2
2.868971980E0,-1.742136359E0,8.411366940E-1,-1.267508045E-2
2.878685366E0,-2.063441992E0,7.666133046E-1,1.021642014E-1
2.888398074E0,-2.278460264E0,6.468872428E-1,2.499892414E-1
2.898111511E0,-2.437433243E0,5.015056133E-1,3.978142738E-1
2.907825834E0,-2.564489603E0,3.524588645E-1,5.077667832E-1
2.917539272E0,-2.667111874E0,2.254026383E-1,5.578562617E-1
2.927251980E0,-2.735526800E0,1.374406368E-1,5.627430081E-1
2.936965418E0,-2.746521950E0,1.044548824E-1,5.615213513E-1
2.946679741E0,-2.686658859E0,1.362189353E-1,5.664080977E-1
2.956393178E0,-2.570597887E0,2.449497581E-1,5.566345453E-1
2.966105834E0,-2.415442705E0,4.391991794E-1,5.175403357E-1
2.975819376E0,-2.238144398E0,6.786513329E-1,4.796678126E-1
2.985533647E0,-2.048781633E0,9.266552925E-1,4.637857676E-1
2.995247084E0,-1.871636033E0,1.127013206E0,4.808894992E-1
3.004959741E0,-1.728697777E0,1.245517612E0,5.248705149E-1
3.014673282E0,-1.619966984E0,1.298050404E0,5.664080977E-1
3.024387553E0,-1.534448266E0,1.258956194E0,6.177192926E-1
3.034100938E0,-1.435491085E0,8.973346353E-1,7.020162344E-1
3.043813647E0,-1.359745979E0,3.426853120E-1,8.095253110E-1
3.053527084E0,-1.363411069E0,-1.630962193E-1,8.632798791E-1
3.063241407E0,-1.365854502E0,-6.041279435E-1,8.339592218E-1
3.072954845E0,-1.347529054E0,-8.374716043E-1,7.411104441E-1
3.082667501E0,-1.296217918E0,-7.849387527E-1,6.372663975E-1
3.092381043E0,-1.263232112E0,-5.173876286E-1,5.322006941E-1
3.102095313E0,-1.268118858E0,-6.169557199E-2,4.503471553E-1
3.111808751E0,-1.269340634E0,4.734066129E-1,4.161396921E-1
3.121521407E0,-1.211920977E0,7.324058414E-1,3.892624080E-1
3.131234949E0,-1.112963676E0,6.566607952E-1,3.513898849E-1
3.140949220E0,-1.005454540E0,4.196520746E-1,3.147390485E-1
3.150662605E0,-9.040539265E-1,1.618745178E-1,2.780882120E-1
3.160375313E0,-8.038749695E-1,-3.115320951E-2,2.463241518E-1
3.170088751E0,-6.951441765E-1,-1.814216375E-1,2.047865391E-1
3.179803074E0,-5.570927262E-1,-2.791571915E-1,1.327065676E-1
3.189516511E0,-3.713951409E-1,-3.463504016E-1,3.497100621E-2
3.199229168E0,-1.380514801E-1,-4.184303582E-1,-7.864658535E-2
3.208942709E0,1.441599578E-1,-4.782933891E-1,-1.947075576E-1
3.218656980E0,4.715740979E-1,-5.186093450E-1,-3.058817685E-1
3.228370418E0,8.185353279E-1,-5.418215394E-1,-4.048390090E-1
3.238083074E0,1.145949483E0,-5.650337338E-1,-4.830274582E-1
3.247796616E0,1.418387294E0,-5.748072863E-1,-5.538857579E-1
3.257510886E0,1.627297044E0,-5.308262706E-1,-6.210789680E-1
3.267224272E0,1.762905240E0,-4.098785222E-1,-6.968240142E-1
3.276936980E0,1.823989868E0,-2.144073844E-1,-7.872294188E-1
3.286650418E0,1.814216375E0,8.612946421E-2,-8.666395545E-1
3.296364741E0,1.743358135E0,4.880669713E-1,-8.959602118E-1
3.306078178E0,1.644400835E0,8.826742768E-1,-8.226585388E-1
3.315790834E0,1.544221878E0,1.141673565E0,-6.418477297E-1
3.325504376E0,1.439156175E0,1.179545999E0,-4.133908749E-1
3.335218647E0,1.248571754E0,9.840749502E-1,-2.655658424E-1
3.344932032E0,9.089407325E-1,6.187883019E-1,-2.753393948E-1
3.354644741E0,4.850127101E-1,2.718270421E-1,-3.584146202E-1
3.364358178E0,9.529217333E-2,1.032331884E-1,-4.036173224E-1
3.374072501E0,-2.028012872E-1,2.015795931E-2,-3.852919042E-1
3.383785938E0,-4.117110670E-1,-1.386623234E-1,-2.875563502E-1
3.393498595E0,-5.937435627E-1,-4.697415531E-1,-1.446180940E-1
3.403212136E0,-7.843278646E-1,-9.217684865E-1,-2.489202656E-2
3.412926407E0,-9.113841057E-1,-1.295607090E0,2.886253223E-2
3.422639793E0,-9.003888369E-1,-1.383569002E0,2.886253223E-2
3.432352501E0,-7.012526393E-1,-1.191763043E0,9.239064902E-2
3.442065938E0,-2.712161839E-1,-9.376505613E-1,2.194468826E-1
3.451780261E0,1.930277348E-1,-5.515950918E-1,2.499892414E-1
3.461493699E0,4.556920528E-1,2.382304333E-2,1.119377613E-1
3.471206355E0,4.898995161E-1,6.774296165E-1,-6.520794332E-2
3.480919897E0,4.361449480E-1,1.282168388E0,-1.140757278E-1
3.490634168E0,3.860554695E-1,1.632794738E0,4.840964451E-2
3.500347553E0,3.078670204E-1,1.362800241E0,2.414373755E-1
3.510060261E0,2.980934680E-1,7.519529462E-1,2.463241518E-1
3.519773699E0,4.911212027E-1,5.173876286E-1,1.583621502E-1
3.529488022E0,7.831062078E-1,6.310052276E-1,9.483403713E-2
3.539201459E0,1.005454540E0,8.252546191E-1,6.062658876E-2
3.548914116E0,1.101968408E0,1.048824787E0,6.306997687E-2
3.558627657E0,1.104411840E0,1.288276911E0,1.033858955E-1
3.568341876E0,1.064095974E0,1.498408318E0,1.852394342E-1
3.578055313E0,1.022558331E0,1.571709991E0,2.976353168E-1
3.587768022E0,1.017671585E0,1.471531034E0,4.100312293E-1
3.597481459E0,1.067761064E0,1.243074179E0,5.297572613E-1
3.607195782E0,1.171604991E0,9.071081877E-1,6.397097707E-1
3.616909168E0,1.310878277E0,4.819584787E-1,6.812474132E-1
3.626621876E0,1.490467310E0,-4.275931045E-3,6.091674566E-1
3.636335313E0,1.701820493E0,-5.210527182E-1,4.283566475E-1
3.646049636E0,1.915616989E0,-1.006065488E0,2.060082406E-1
3.655763074E0,2.098871231E0,-1.346918225E0,5.650337320E-3
3.665475730E0,2.199050188E0,-1.370130420E0,-1.690519750E-1
3.675189272E0,2.124526739E0,-9.205468297E-1,-3.352024257E-1
3.684903543E0,1.848423839E0,-7.146912813E-2,-4.671454430E-1
3.694616928E0,1.463590026E0,8.741224408E-1,-5.147915483E-1
3.704329636E0,1.070204377E0,1.588813663E0,-4.695888162E-1
3.714043074E0,7.159129977E-1,1.850256324E0,-3.950654566E-1
3.723757397E0,4.251496792E-1,1.690214396E0,-3.364241421E-1
3.733470834E0,2.125748396E-1,1.309045672E0,-2.912214398E-1
3.743183491E0,8.674030751E-2,8.643488884E-1,-2.191414535E-1
3.752896928E0,4.886778072E-2,4.159869850E-1,-1.275143623E-1
3.762611251E0,9.162709117E-2,1.649287529E-2,-4.688252881E-2
3.772324688E0,1.881409585E-1,-2.889307439E-1,8.093725890E-3
3.782037345E0,2.993151546E-1,-4.367557764E-1,2.397575416E-2
3.791750886E0,3.958290219E-1,-4.074351192E-1,6.872031838E-3
3.801465157E0,4.679090083E-1,-2.144073844E-1,-9.009997360E-3
3.811178543E0,5.241069198E-1,6.047387794E-2,-1.267508045E-2
3.820891251E0,5.913001299E-1,3.365768492E-1,-1.145338640E-2
3.830604688E0,6.841489077E-1,5.833591223E-1,-2.489202656E-2
3.840319011E0,7.916580439E-1,7.873821259E-1,-5.909947306E-2
3.850032397E0,8.942803741E-1,9.339854717E-1,-1.128540337E-1
3.859745105E0,9.871291518E-1,1.025612593E0,-1.824906170E-1
3.869458543E0,1.062874198E0,1.069593549E0,-2.447970361E-1
3.879172866E0,1.117850542E0,1.059819937E0,-2.973299026E-1
3.888886303E0,1.149614573E0,1.007287145E0,-3.376458287E-1
3.898598959E0,1.149614573E0,9.449806809E-1,-3.547495604E-1
3.908312501E0,1.095860004E0,9.156600237E-1,-3.339807391E-1
3.918026720E0,9.736905098E-1,9.571976662E-1,-2.716743052E-1
3.927740157E0,7.904363275E-1,1.062263370E0,-1.812689304E-1
3.937452813E0,5.900784731E-1,1.159998894E0,-9.819369763E-2
3.947166355E0,4.227063060E-1,1.196649790E0,-3.955236077E-2
3.956880626E0,3.029802442E-1,1.180767775E0,-4.123218823E-3
3.966594011E0,2.235700935E-1,1.141673565E0,1.908897609E-2
3.976306720E0,1.734806150E-1,1.100135922E0,4.474456236E-2
3.986020157E0,1.233911440E-1,1.074480295E0,1.046075895E-1
3.995734480E0,3.420744836E-2,1.052489877E0,2.023431510E-1
4.005447918E0,-9.895725548E-2,9.901834130E-1,2.915268540E-1
4.015160574E0,-2.394521236E-1,8.741224408E-1,3.660502136E-1
4.024874116E0,-3.396310806E-1,7.030851841E-1,4.308000207E-1
4.034588334E0,-3.542914093E-1,4.746283293E-1,4.821111858E-1
4.044301772E0,-2.589992285E-1,2.082989216E-1,5.004366040E-1
4.054014480E0,-9.162709117E-2,-3.848337755E-2,4.295783341E-1
4.063727918E0,4.031591862E-2,-1.826433241E-1,2.206685692E-1
4.073442241E0,1.185043678E-1,-2.082989216E-1,-9.819369763E-2
4.083155626E0,2.406738251E-1,-1.252236813E-1,-4.475983381E-1
4.092868334E0,4.727957845E-1,5.558710173E-2,-7.603521347E-1
4.102581772E0,7.684458494E-1,3.109212518E-1,-1.003469348E0
4.112296095E0,9.284878373E-1,6.346703172E-1,-1.102426648E0
4.122009532E0,8.038749695E-1,1.053711534E0,-9.802571535E-1
4.131722188E0,3.689517379E-1,1.503295064E0,-7.102626562E-1
4.141435730E0,-3.335226178E-1,1.800166845E0,-4.231644273E-1
4.151150001E0,-1.188708782E0,1.817270637E0,-1.727170646E-1
4.160863386E0,-1.971814990E0,1.620577812E0,2.519745007E-2
4.170576095E0,-2.492409468E0,1.395785928E0,1.840177327E-1
4.180289532E0,-2.794167995E0,1.364021897E0,3.477247953E-1
4.190003855E0,-2.967648745E0,1.461757541E0,4.931064546E-1
4.199717293E0,-3.023846626E0,1.569266558E0,5.774033666E-1
4.209429949E0,-2.983530760E0,1.634016395E0,5.883986354E-1
4.219143491E0,-2.856474400E0,1.616912723E0,5.517477989E-1
4.228857761E0,-2.653673172E0,1.526507258E0,4.967715442E-1
4.238571147E0,-2.409334183E0,1.401894450E0,4.686725736E-1
4.248283855E0,-2.153847456E0,1.301715493E0,4.967715442E-1
4.257997293E0,-1.913173556E0,1.251626015E0,5.725166202E-1
4.267711616E0,-1.683495045E0,1.277281642E0,6.690304875E-1
4.277425053E0,-1.469698548E0,1.354248405E0,7.667660117E-1
4.287137709E0,-1.271783948E0,1.349361539E0,8.547280431E-1
4.296851251E0,-1.103190184E0,1.089140654E0,9.219212532E-1
4.306565522E0,-1.011563063E0,5.528167486E-1,9.390249252E-1
4.316278907E0,-1.048213840E0,3.115320951E-2,9.280297160E-1
4.325991616E0,-1.188708782E0,-2.400629669E-1,9.219212532E-1
4.335705053E0,-1.314543247E0,-1.007898003E-1,9.268079996E-1
4.345419376E0,-1.316986680E0,3.170297146E-1,8.864920735E-1
4.355132813E0,-1.182600260E0,7.776085734E-1,8.009734750E-1
4.364845470E0,-9.394831061E-1,1.105022669E0,6.775823236E-1
4.374559011E0,-6.536065936E-1,1.174659252E0,5.236487985E-1
4.384273282E0,-3.982724249E-1,9.950701594E-1,4.075878263E-1
4.393986668E0,-2.370087355E-1,6.774296165E-1,3.636068404E-1
4.403699376E0,-2.052446753E-1,4.147652984E-1,3.819322586E-1
4.413412918E0,-2.675510943E-1,3.329117596E-1,4.344651103E-1
4.423127136E0,-3.567348123E-1,4.196520746E-1,4.845545888E-1
4.432840574E0,-4.239279926E-1,5.308262706E-1,4.918847680E-1
4.442553282E0,-4.398100376E-1,5.503733754E-1,4.491254389E-1
4.452266720E0,-3.958290219E-1,4.672981501E-1,3.794888556E-1
4.461981043E0,-2.785463631E-1,3.048127890E-1,3.013004065E-1
4.471694480E0,-6.963659078E-2,9.223793447E-2,2.267770469E-1
4.481407136E0,2.357870489E-1,-1.154501289E-1,1.559187621E-1
4.491120678E0,6.157340407E-1,-2.535016239E-1,7.528692484E-2
4.500834949E0,1.022558331E0,-2.754921019E-1,-1.756185852E-2
4.510548386E0,1.401283622E0,-1.692046970E-1,-1.030804738E-1
4.520261043E0,1.705485582E0,5.192201585E-2,-1.641651988E-1
4.529974584E0,1.916838646E0,3.316900730E-1,-2.081461996E-1
4.539688855E0,2.039008141E0,6.224533319E-1,-2.545706034E-1
4.549402241E0,2.071993828E0,9.119949341E-1,-3.083251417E-1
4.559114949E0,2.002357244E0,1.223527074E0,-3.498627543E-1
4.568828491E0,1.794669271E0,1.587592006E0,-3.523061574E-1
4.578542709E0,1.444042921E0,2.010298252E0,-3.058817685E-1
4.588256147E0,1.067761064E0,2.400018930E0,-2.228065431E-1
4.597968855E0,8.649597168E-1,2.602820158E0,-1.336228400E-1
4.607682397E0,9.517000318E-1,2.535626888E0,-8.353336155E-2
4.617396616E0,1.218029380E0,2.308391809E0,-1.262926757E-1
4.627110053E0,1.442821264E0,2.089708567E0,-2.484621257E-1
4.636822761E0,1.444042921E0,1.902789235E0,-3.816268146E-1
4.646536199E0,1.176491857E0,1.640124917E0,-4.194993675E-1
4.656250522E0,7.391251922E-1,1.149003744E0,-3.315373361E-1
4.665963959E0,2.809897363E-1,4.550811946E-1,-2.020377368E-1
4.675676668E0,-1.466033459E-1,-3.023693860E-1,-8.842013776E-2
4.685390105E0,-5.241069198E-1,-9.510892034E-1,1.053711493E-2
4.695104428E0,-7.855495811E-1,-1.186876178E0,1.265980899E-1
4.704817866E0,-8.649597168E-1,-1.032942772E0,2.499892414E-1
4.714530522E0,-7.598940134E-1,-7.739434838E-1,3.257342875E-1
4.724244063E0,-5.729747415E-1,-5.369347334E-1,2.365505993E-1
4.733958334E0,-4.080459774E-1,-2.889307439E-1,-1.511846948E-2
4.743671772E0,-1.905843467E-1,1.264453828E-1,-2.105895877E-1
4.753384480E0,1.233911440E-1,7.091936469E-1,-2.264716178E-1
4.763097918E0,4.837910235E-1,1.271173120E0,-1.226275861E-1
4.772812241E0,8.637380004E-1,1.693879485E0,-3.588727489E-2
4.782525678E0,1.237576604E0,2.188665628E0,6.795676053E-2
4.792238386E0,1.500240922E0,2.769123316E0,2.267770469E-1
4.801951824E0,1.582094431E0,3.202824831E0,3.855973184E-1
4.811666147E0,1.510014415E0,3.400739431E0,4.955498278E-1
4.821379584E0,1.370741248E0,3.445942163E0,5.590779781E-1
4.831092293E0,1.229024649E0,3.357980013E0,6.091674566E-1
4.840805730E0,1.116628766E0,3.111197710E0,6.775823236E-1
4.850520053E0,1.055544019E0,2.737359285E0,7.667660117E-1
4.860233491E0,1.027445078E0,2.242420197E0,8.571714163E-1
4.869946199E0,1.021336675E0,1.629129648E0,9.292513728E-1
4.879659636E0,1.050657272E0,9.474241138E-1,9.280297160E-1
4.889373959E0,1.163053155E0,1.887518018E-1,8.290724158E-1
4.899087397E0,1.397618532E0,-5.967977643E-1,6.653653979E-1
4.908800105E0,1.734806180E0,-1.269951463E0,4.784461260E-1
4.918513647E0,2.123305082E0,-1.669445515E0,3.013004065E-1
4.928227918E0,2.436058760E0,-1.542389274E0,1.131594554E-1
4.937941303E0,2.494700193E0,-7.104153633E-1,-9.575030953E-2
4.947654011E0,2.211266994E0,5.137225389E-1,-2.912214398E-1
4.957367553E0,1.707928896E0,1.593700528E0,-4.231644273E-1
4.967081824E0,1.175270081E0,2.192330837E0,-4.732539058E-1
4.976795209E0,7.061394453E-1,2.249750376E0,-4.524851143E-1
4.986507918E0,3.323009014E-1,1.902789235E0,-3.889569938E-1
4.996221459E0,7.452336699E-2,1.335922956E0,-3.193204105E-1
5.005935730E0,-5.864133686E-2,7.128587365E-1,-2.667875290E-1
5.015649168E0,-5.131116882E-2,1.227803007E-1,-2.313583940E-1
5.025361824E0,1.209477559E-1,-3.939964771E-1,-2.081461996E-1
5.035075366E0,3.982724249E-1,-6.786513329E-1,-1.971509457E-1
5.044789636E0,6.365028620E-1,-6.395570636E-1,-1.959292591E-1
5.054503074E0,7.452336550E-1,-3.622324169E-1,-2.081461996E-1
5.064215782E0,7.379034758E-1,3.726168349E-2,-2.338017821E-1
5.073929220E0,6.939224601E-1,4.416425824E-1,-2.570139766E-1
5.083643543E0,6.682668924E-1,7.739434838E-1,-2.619007528E-1
5.093356980E0,6.694886088E-1,1.023169160E0,-2.594573796E-1
5.103069688E0,6.988092661E-1,1.189319611E0,-2.667875290E-1
5.112783230E0,7.464553714E-1,1.278503299E0,-2.912214398E-1
5.122497501E0,8.063184023E-1,1.272394896E0,-3.437542915E-1
5.132210886E0,8.612946272E-1,1.164885759E0,-4.085040987E-1
5.141923595E0,9.113841057E-1,1.009730577E0,-4.512633979E-1
5.151637136E0,9.675820470E-1,8.533536196E-1,-4.708105326E-1
5.161351407E0,1.033553600E0,7.030851841E-1,-4.818057716E-1
5.171064845E0,1.110520363E0,5.686988235E-1,-4.854708612E-1
5.180777553E0,1.185043693E0,4.990622103E-1,-4.769189954E-1
5.190490991E0,1.231468081E0,5.662553906E-1,-4.390464723E-1
5.200205313E0,1.214364409E0,7.812736630E-1,-3.718532622E-1
5.209918751E0,1.103190184E0,1.053711534E0,-2.912214398E-1
5.219631459E0,9.052756429E-1,1.287055135E0,-2.081461996E-1
5.229345001E0,6.682668924E-1,1.404337883E0,-1.201841980E-1
5.239059272E0,4.459185004E-1,1.390899181E0,-2.611372061E-2
5.248772709E0,2.577775419E-1,1.307824016E0,7.650861889E-2
5.258485418E0,9.773556143E-2,1.216196895E0,1.754658818E-1
5.268198855E0,-1.954711229E-2,1.084253907E0,2.402156889E-1
5.277913230E0,-1.014006436E-1,9.571976662E-1,2.585411072E-1
5.287626616E0,-1.380514801E-1,8.814526200E-1,2.426590770E-1
5.297339324E0,-1.148392856E-1,8.203678727E-1,1.974563748E-1
5.307052866E0,-1.832541823E-2,7.739434838E-1,1.473668963E-1
5.316767136E0,1.307213157E-1,7.519529462E-1,1.094943732E-1
5.326480574E0,3.005368412E-1,7.470661998E-1,7.773031294E-2
5.336193282E0,4.581354558E-1,7.153021693E-1,5.085303262E-2
5.345906824E0,5.961869359E-1,6.273401380E-1,3.252761811E-2
5.355621095E0,6.633801460E-1,4.892886579E-1,3.497100621E-2
5.365334532E0,6.242858768E-1,3.268032968E-1,7.406523079E-2
5.375047188E0,5.045598149E-1,1.557660550E-1,1.058292910E-1
5.384760730E0,3.530697227E-1,-6.108472589E-4,6.062658876E-2
5.394475053E0,1.856975704E-1,-8.246438205E-2,-6.765133142E-2
5.404188438E0,-3.909422457E-2,6.719320081E-3,-1.873773932E-1
5.413901147E0,-3.616215885E-1,2.877090573E-1,-2.386885732E-1
5.423614688E0,-7.366818190E-1,6.456655264E-1,-2.509055138E-1
5.433328959E0,-1.064095974E0,9.388722181E-1,-2.692309320E-1
5.443042397E0,-1.298661232E0,1.105022669E0,-2.838912606E-1
5.452755105E0,-1.459924936E0,1.129456639E0,-2.619007528E-1
5.462468647E0,-1.611415029E0,1.030499339E0,-1.763821393E-1
5.472182918E0,-1.809329629E0,8.704573512E-1,-2.611372061E-2
5.481896355E0,-2.081767559E0,7.189671993E-1,1.632489264E-1
5.491609063E0,-2.408112526E0,5.967977643E-1,3.623851240E-1
5.501322605E0,-2.711092949E0,5.418215394E-1,5.517477989E-1
5.511036876E0,-2.932219505E0,5.528167486E-1,7.215633392E-1
5.520750313E0,-3.066606045E0,5.772506595E-1,8.754968047E-1
5.530463022E0,-3.109365225E0,6.224533319E-1,9.768974781E-1
5.540176563E0,-3.064162493E0,7.372926474E-1,1.001331329E0
5.549890834E0,-2.929776192E0,9.865183234E-1,9.561286569E-1
5.559604272E0,-2.712314606E0,1.339588046E0,8.767185211E-1
5.569316980E0,-2.434989929E0,1.654785275E0,8.095253110E-1
5.579030522E0,-2.144073963E0,1.820935726E0,7.973083854E-1
5.588744793E0,-1.887518048E0,1.923557997E0,8.351809382E-1
5.598458230E0,-1.618745208E0,1.973647475E0,8.510629535E-1
5.608170938E0,-1.321873426E0,1.860029936E0,8.058602214E-1
5.617884480E0,-1.087308168E0,1.597365618E0,7.557707429E-1
5.627598751E0,-1.006676316E0,1.172215939E0,7.215633392E-1
5.637312293E0,-1.060430884E0,4.721849263E-1,6.494833231E-1
5.647024949E0,-1.218029380E0,-3.781144619E-1,5.786250830E-1
5.656738491E0,-1.551552057E0,-1.046381354E0,5.199837089E-1
5.666452761E0,-2.007244110E0,-1.267508030E0,5.126535892E-1
5.676166199E0,-2.386121988E0,-1.032942772E0,5.566345453E-1
5.685878907E0,-2.571819782E0,-4.941754341E-1,6.494833231E-1
5.695592449E0,-2.533947229E0,1.154501289E-1,7.777612805E-1
5.705306720E0,-2.318776131E0,6.004628539E-1,9.109259844E-1
5.715020157E0,-1.982810259E0,8.130376935E-1,9.891144037E-1
5.724732866E0,-1.567434072E0,7.507312894E-1,9.744541049E-1
5.734446407E0,-1.130067468E0,6.297835112E-1,9.121476412E-1
5.744160730E0,-6.914790869E-1,5.552601814E-1,7.826480269E-1
5.753874168E0,-2.651077211E-1,4.978405237E-1,5.712949038E-1
5.763586876E0,1.087308154E-1,5.259394646E-1,3.232909143E-1
5.773300418E0,4.043808877E-1,6.322268844E-1,1.058292910E-1
5.783014688E0,6.255075932E-1,7.568397522E-1,-4.566083103E-2
5.792728126E0,7.733326554E-1,8.350282311E-1,-1.262926757E-1
5.802440834E0,8.649597168E-1,8.032641411E-1,-1.397313178E-1
5.812154376E0,9.443698525E-1,6.505523324E-1,-9.086353332E-2
5.821868699E0,1.057987452E0,3.927747905E-1,-2.244863659E-2
5.831582136E0,1.222916245E0,4.581354558E-2,1.053711493E-2
5.841294845E0,1.408613801E0,-3.658975065E-1,-1.878355257E-2
5.851008386E0,1.566212416E0,-7.971556783E-1,-1.214058921E-1
5.860722657E0,1.681051612E0,-1.194206357E0,-2.899997234E-1
5.870436095E0,1.742136359E0,-1.440988660E0,-5.062396526E-1
5.880148855E0,1.710372329E0,-1.459314108E0,-7.408050299E-1
5.889862397E0,1.558882236E0,-1.194206357E0,-9.558232427E-1
5.899576668E0,1.332868695E0,-6.358919740E-1,-1.080436110E0
5.909290105E0,1.174048424E0,9.223793447E-2,-1.036455035E0
5.919002813E0,1.189930439E0,7.886037827E-1,-8.189934492E-1
5.928716407E0,1.290109396E0,1.228413820E0,-5.929799676E-1
5.938430678E0,1.318208337E0,1.348139882E0,-5.221216679E-1
5.948144116E0,1.215586066E0,1.258956194E0,-5.770979524E-1
5.957856824E0,9.749122262E-1,9.400939345E-1,-6.882721782E-1
5.967570418E0,5.937435627E-1,4.330907166E-1,-7.395833135E-1
5.977284688E0,1.502684206E-1,-7.757759839E-2,-6.540647149E-1
5.986998126E0,-2.504473627E-1,-4.844018817E-1,-4.500417113E-1
5.996710834E0,-5.839699507E-1,-8.350282311E-1,-1.910424829E-1
6.006424428E0,-8.478559852E-1,-1.223527074E0,3.619270027E-2
6.016138699E0,-1.014006495E0,-1.670667291E0,1.950129867E-1
6.025852136E0,-9.859074950E-1,-2.031067133E0,3.807105422E-1
6.035564845E0,-6.804838181E-1,-2.161788464E0,5.786250830E-1
6.045278438E0,-2.052446753E-1,-1.918671250E0,6.164975762E-1
6.054992709E0,2.357870489E-1,-1.197871447E0,4.356867969E-1
6.064706147E0,5.607577562E-1,-7.269082218E-2,2.096733153E-1
6.074418907E0,7.672241330E-1,1.133121610E0,1.009425074E-1
6.084132449E0,8.368607163E-1,2.076269865E0,1.473668963E-1
6.093846720E0,7.696675658E-1,2.352372885E0,2.451024652E-1
6.103560261E0,6.890357137E-1,2.040840626E0,2.157817930E-1
6.113272918E0,6.988092661E-1,1.561936498E0,1.278197914E-1
6.122986459E0,7.708892226E-1,1.196649790E0,8.750387281E-2
6.132700782E0,8.319739699E-1,9.852966070E-1,7.650861889E-2
6.142414220E0,8.319739699E-1,8.704573512E-1,5.696150661E-2
6.152126928E0,7.867712975E-1,7.617265582E-1,4.474456236E-2
6.161840522E0,7.501204610E-1,5.992411375E-1,8.383878320E-2
6.171554793E0,7.623373866E-1,3.744493723E-1,1.864611208E-1
6.181268230E0,8.209787011E-1,1.264453828E-1,3.416163325E-1
6.190980991E0,9.003888369E-1,-1.496575773E-1,5.199837089E-1
6.200694532E0,9.785773158E-1,-4.795151055E-1,6.812474132E-1
6.210408855E0,1.050657272E0,-8.680139780E-1,7.521057129E-1
6.220122293E0,1.127624035E0,-1.268729806E0,6.763606071E-1
6.229835001E0,1.222916245E0,-1.603474021E0,4.686725736E-1
6.239548595E0,1.341420531E0,-1.802610278E0,2.182251811E-1
6.249262866E0,1.455038190E0,-1.806275368E0,-2.901524538E-3
6.258976407E0,1.518566251E0,-1.563158154E0,-2.057028115E-1
6.268689063E0,1.483137131E0,-1.081810474E0,-3.767400384E-1
6.278402605E0,1.343863964E0,-4.746283293E-1,-4.915793240E-1
6.288116928E0,1.130067468E0,9.223793447E-2,-5.392253995E-1
6.297830366E0,8.857285380E-1,4.721849263E-1,-5.367820263E-1
6.307543126E0,6.462764144E-1,6.163448691E-1,-5.013529062E-1
6.317256668E0,4.471401870E-1,5.845808387E-1,-4.512633979E-1
6.326970991E0,2.932066917E-1,4.294256270E-1,-4.158342779E-1
6.336684428E0,1.930277348E-1,1.960819662E-1,-3.962871730E-1
6.346397136E0,1.612636745E-1,-8.979454637E-2,-3.889569938E-1
6.356110730E0,2.089097649E-1,-3.976615667E-1,-3.901786804E-1
6.365825001E0,3.298575282E-1,-6.737645268E-1,-3.865135908E-1
6.375538543E0,4.801259339E-1,-8.582404256E-1,-3.633013964E-1
6.385251199E0,6.071822047E-1,-9.242119193E-1,-3.205420971E-1
6.394964793E0,6.951441765E-1,-8.826742768E-1,-2.777827978E-1
6.404679063E0,7.611156702E-1,-7.421793938E-1,-2.521272004E-1
6.414392605E0,8.283088803E-1,-5.210527182E-1,-2.435753495E-1
6.424105261E0,8.967237473E-1,-2.425063550E-1,-2.374668717E-1
6.433818855E0,9.541434050E-1,4.825693369E-2,-2.289150059E-1
6.443533126E0,9.907942414E-1,2.913741469E-1,-2.264716178E-1
6.453246668E0,1.011563063E0,4.477510452E-1,-2.325800955E-1
6.462959324E0,1.023779988E0,5.039489865E-1,-2.435753495E-1
6.472672918E0,1.033553600E0,4.721849263E-1,-2.594573796E-1
6.482387241E0,1.040883780E0,3.903313875E-1,-2.667875290E-1
6.492100678E0,1.029888511E0,3.060344756E-1,-2.570139766E-1
6.501813438E0,9.932376146E-1,2.498365343E-1,-2.325800955E-1
6.511526980E0,9.248227477E-1,2.437280566E-1,-1.959292591E-1
6.521241303E0,8.197570443E-1,3.035911024E-1,-1.482831687E-1
6.530954741E0,6.902574301E-1,4.147652984E-1,-8.842013776E-2
6.540667501E0,5.558710098E-1,5.247178078E-1,-3.344388679E-2
6.550381043E0,4.459185004E-1,5.784723759E-1,6.872031838E-3
6.560095366E0,3.701734245E-1,5.650337338E-1,2.886253223E-2
6.569808907E0,3.078670204E-1,5.149442554E-1,5.573981255E-2
6.579521563E0,2.370087355E-1,4.660764635E-1,1.033858955E-1
6.589235157E0,1.453816444E-1,4.208737612E-1,1.705790907E-1
6.598949480E0,4.642439261E-2,3.341334462E-1,2.255553454E-1
6.608662918E0,-2.443389036E-2,1.899735034E-1,2.585411072E-1
6.618375678E0,-4.764608666E-2,9.162709117E-3,2.817533016E-1
6.628089220E0,-2.321219631E-2,-2.021904439E-1,3.049654961E-1
6.637803543E0,3.298575059E-2,-4.220954478E-1,3.074088693E-1
6.647517084E0,8.551861346E-2,-6.212316751E-1,2.597627938E-1
6.657229741E0,1.087308154E-1,-7.629482150E-1,1.559187621E-1
6.666943334E0,1.282779276E-1,-8.301414251E-1,-1.267508045E-2
6.676657657E0,1.685938388E-1,-8.020424247E-1,-2.399102598E-1
6.686371095E0,1.734806150E-1,-6.762079000E-1,-5.037962794E-1
6.696083855E0,5.741964281E-2,-4.905103445E-1,-7.273663878E-1
6.705797449E0,-2.076880634E-1,-2.889307439E-1,-7.957812548E-1
6.715511720E0,-5.888567567E-1,-1.130067408E-1,-6.919372082E-1
6.725225261E0,-1.015228152E0,2.382304333E-2,-5.086830258E-1
6.734937918E0,-1.415943980E0,9.712471068E-2,-3.474193811E-1
6.744651511E0,-1.771457076E0,1.044548824E-1,-2.020377368E-1
6.754365834E0,-2.095206022E0,7.269082218E-2,-4.932591692E-2
6.764079376E0,-2.404447556E0,2.504473738E-2,1.168245375E-1
6.773792032E0,-2.687880754E0,-2.137965336E-2,2.854183912E-1
6.783505626E0,-2.916337490E0,-1.282779220E-2,4.393518865E-1
6.793219949E0,-3.037285328E0,1.032331884E-1,5.615213513E-1
6.802933491E0,-3.045837164E0,3.292466700E-1,6.458182931E-1
6.812646147E0,-2.965205193E0,6.273401380E-1,6.824691296E-1
6.822359741E0,-2.814936876E0,9.535325766E-1,6.775823236E-1
6.832074063E0,-2.619465828E0,1.240630746E0,6.299362183E-1
6.841787605E0,-2.406890869E0,1.416554809E0,5.627430081E-1
6.851500261E0,-2.189276695E0,1.448318839E0,5.163186193E-1
6.861213855E0,-1.975480080E0,1.321262598E0,5.150969625E-1
6.870928178E0,-1.776343822E0,1.046381354E0,5.236487985E-1
6.880641720E0,-1.591867924E0,6.884248853E-1,5.199837089E-1
6.890354376E0,-1.437934399E0,3.781144619E-1,5.309789777E-1
6.900067970E0,-1.358524323E0,1.692046970E-1,5.945070982E-1
6.909782293E0,-1.370741248E0,3.848337755E-2,6.946860552E-1
6.919495834E0,-1.370741248E0,-3.255815804E-1,7.850914598E-1
6.929208543E0,-1.354859233E0,-7.556180358E-1,8.034168482E-1
6.938922084E0,-1.369519591E0,-8.472451568E-1,7.423321605E-1
6.948636407E0,-1.382958174E0,-6.676560640E-1,6.226060390E-1
6.958349949E0,-1.422052383E0,-2.706053257E-1,4.369085133E-1
6.968062657E0,-1.472141862E0,2.449497581E-1,2.512109280E-1
6.977776251E0,-1.446486354E0,7.348492742E-1,1.082726792E-1
6.987490574E0,-1.357302666E0,1.048824787E0,2.764083818E-2
6.997204011E0,-1.219251156E0,1.108687758E0,3.741439432E-2
7.006916772E0,-1.010341406E0,8.325847983E-1,6.673506647E-2
7.016630366E0,-7.452336550E-1,3.304683566E-1,8.017370105E-2
7.026344688E0,-4.666872919E-1,-1.887518018E-1,9.239064902E-2
7.036058230E0,-2.260134816E-1,-5.296045542E-1,1.107160673E-1
7.045770938E0,-3.665083647E-2,-6.493306160E-1,1.265980899E-1
7.055484480E0,1.160609797E-1,-6.346703172E-1,1.156028435E-1
7.065198855E0,2.504473627E-1,-5.735855699E-1,5.329642445E-2
7.074912293E0,3.652866483E-1,-4.880669713E-1,-4.077405483E-2
7.084625053E0,4.618005157E-1,-3.927747905E-1,-1.385096163E-1
7.094338647E0,5.570927262E-1,-3.219164908E-1,-2.203631550E-1
7.104052970E0,6.768187881E-1,-3.035911024E-1,-2.728960216E-1
7.113766511E0,8.258655071E-1,-3.487937748E-1,-3.083251417E-1
7.123479220E0,9.944593310E-1,-4.734066129E-1,-3.547495604E-1
7.133192813E0,1.188708782E0,-6.676560640E-1,-4.475983381E-1
7.142907136E0,1.412278891E0,-8.753440976E-1,-5.844281316E-1
7.152620678E0,1.640735745E0,-9.657495022E-1,-7.346965671E-1
7.162333334E0,1.834985137E0,-7.898254991E-1,-8.214368224E-1
7.172046980E0,1.958376288E0,-2.669402659E-1,-7.762341499E-1
7.181761303E0,1.958376288E0,4.917320311E-1,-6.003101468E-1
7.191474845E0,1.740914702E0,1.174659252E0,-3.962871730E-1
7.201187501E0,1.254680276E0,1.456870675E0,-2.863346636E-1
7.210901095E0,6.279509664E-1,1.212531805E0,-3.058817685E-1
7.220615470E0,7.818844914E-2,6.334486008E-1,-3.779617548E-1
7.230329011E0,-2.638860047E-1,1.288887709E-1,-4.256078303E-1
7.240041668E0,-4.202629030E-1,-1.728697717E-1,-4.182776511E-1
7.249755261E0,-4.691306949E-1,-4.697415531E-1,-3.364241421E-1
7.259469584E0,-4.972296655E-1,-9.009997249E-1,-1.995943487E-1
7.269183178E0,-5.375455618E-1,-1.427550077E0,-9.208522737E-2
7.278895834E0,-5.705313683E-1,-1.842926145E0,-8.108997345E-2
7.288609428E0,-5.974085927E-1,-1.918671250E0,-1.152974218E-1
7.298323803E0,-5.546492934E-1,-1.603474021E0,-6.032116711E-2
7.308037345E0,-3.530697227E-1,-1.074480295E0,3.008422814E-2
7.317750001E0,-3.665083647E-2,-4.489727318E-1,3.130592033E-2
7.327463595E0,3.017585576E-1,1.924168915E-1,-6.276455522E-2
7.337177970E0,5.839699507E-1,6.969767213E-1,-1.641651988E-1
7.346891511E0,6.927008033E-1,9.364288449E-1,-1.421747059E-1
7.356604220E0,5.851916671E-1,9.327637553E-1,7.040014863E-2
7.366317813E0,4.117110670E-1,8.081509471E-1,2.377723008E-1
7.376032136E0,3.591781855E-1,6.749862432E-1,2.108950168E-1
7.385745678E0,4.825693369E-1,5.809157491E-1,1.253764033E-1
7.395458386E0,6.902574301E-1,5.100574493E-1,6.673506647E-2
7.405171980E0,8.637380004E-1,4.941754341E-1,6.551336497E-2
7.414886303E0,9.565867782E-1,5.711421967E-1,1.278197914E-1
7.424599845E0,9.895725846E-1,6.676560640E-1,2.267770469E-1
7.434312553E0,9.871291518E-1,6.872031689E-1,3.403946459E-1
7.444026147E0,9.675820470E-1,6.273401380E-1,4.601207078E-1
7.453740522E0,9.541434050E-1,5.369347334E-1,5.993938446E-1
7.463454063E0,9.578084946E-1,4.538595080E-1,7.679877281E-1
7.473166772E0,1.005454540E0,2.877090573E-1,8.938222528E-1
7.482880366E0,1.128845692E0,-6.047387794E-2,9.023740888E-1
7.492594688E0,1.341420531E0,-5.234960914E-1,7.802046537E-1
7.502308230E0,1.590646267E0,-9.498674870E-1,5.480827093E-1
7.512020938E0,1.762905240E0,-1.189319611E0,2.683146596E-1
7.521734532E0,1.800777674E0,-1.142895222E0,1.664558798E-2
7.531448907E0,1.694490314E0,-7.922688723E-1,-1.812689304E-1
7.541162449E0,1.467255116E0,-2.339545041E-1,-3.242071867E-1
7.550875157E0,1.181378603E0,3.280249834E-1,-4.243861437E-1
7.560588751E0,9.126058221E-1,7.360709310E-1,-4.928010404E-1
7.570303074E0,6.853706241E-1,8.814526200E-1,-5.294518471E-1
7.580016616E0,4.947862923E-1,7.507312894E-1,-5.184566379E-1
7.589729324E0,3.445178568E-1,4.563029110E-1,-4.573718905E-1
7.599442970E0,2.431172132E-1,8.124268800E-2,-3.779617548E-1
7.609157293E0,2.003578991E-1,-3.414636254E-1,-3.168770075E-1
7.618870834E0,2.260134816E-1,-7.531746626E-1,-2.692309320E-1
7.628583543E0,3.090887070E-1,-1.094027400E0,-2.240282297E-1
7.638297136E0,4.104893506E-1,-1.288276911E0,-1.763821393E-1
7.648011511E0,5.008947253E-1,-1.300493836E0,-1.262926757E-1
7.657725053E0,5.693096519E-1,-1.153890491E0,-8.964183182E-2
7.667437761E0,6.132906675E-1,-9.132166505E-1,-8.108997345E-2
7.677151355E0,6.474980712E-1,-6.420004964E-1,-9.452861547E-2
7.686865730E0,6.951441765E-1,-3.915531039E-1,-1.201841980E-1
7.696579272E0,7.745543122E-1,-1.789782494E-1,-1.507265568E-1
7.706291980E0,8.820634484E-1,4.275931045E-3,-1.837123185E-1
7.716005574E0,1.000567794E0,1.630962193E-1,-2.142546773E-1
7.725719949E0,1.100746751E0,2.852656841E-1,-2.460187376E-1
7.735433491E0,1.166718245E0,3.658975065E-1,-2.814478874E-1
7.745146199E0,1.197260618E0,4.111002088E-1,-3.156553209E-1
7.754859793E0,1.218029380E0,4.196520746E-1,-3.437542915E-1
7.764574168E0,1.236354828E0,4.013266563E-1,-3.620797098E-1
7.774287709E0,1.232689738E0,3.793361485E-1,-3.571929336E-1
7.784000418E0,1.164274931E0,3.866663277E-1,-3.180987239E-1
7.793714011E0,9.981244206E-1,4.416425824E-1,-2.435753495E-1
7.803428386E0,7.354601026E-1,5.296045542E-1,-1.543916464E-1
7.813141928E0,4.202629030E-1,5.894675851E-1,-6.887302548E-2
7.822854688E0,1.172826737E-1,5.735855699E-1,-2.901524538E-3
7.832568282E0,-1.404948682E-1,5.027272701E-1,6.306997687E-2
7.842282605E0,-3.530697227E-1,4.086568058E-1,1.449235082E-1
7.851996199E0,-5.204418898E-1,2.779355049E-1,2.218902707E-1
7.861708907E0,-5.925218463E-1,3.237490356E-2,2.536543310E-1
7.871422501E0,-5.741963983E-1,-2.290677279E-1,2.438807636E-1
7.881136876E0,-5.008947253E-1,-3.952181637E-1,2.316638231E-1
7.890850418E0,-3.897205591E-1,-5.442649126E-1,1.998997629E-1
7.900563126E0,-2.675510943E-1,-6.774296165E-1,1.290414780E-1
7.910276772E0,-1.600419879E-1,-7.372926474E-1,1.542389300E-2
7.919991095E0,-5.864133686E-2,-7.140804529E-1,-1.397313178E-1
7.929704636E0,8.307522535E-2,-6.053496599E-1,-3.400892019E-1
7.939417397E0,2.809897363E-1,-4.379774928E-1,-5.770979524E-1
7.949130991E0,4.801259339E-1,-2.718270421E-1,-8.079982400E-1
7.958845366E0,5.790832043E-1,-1.264453828E-1,-9.362761378E-1
7.968558907E0,5.021164417E-1,2.748812735E-2,-8.812998533E-1
7.978271616E0,2.431172132E-1,1.472141892E-1,-7.408050299E-1
7.987985261E0,-1.710372269E-1,1.899735034E-1,-6.064186096E-1
7.997699584E0,-6.878139973E-1,1.630962193E-1,-4.732539058E-1
8.007413178E0,-1.264453769E0,1.227803007E-1,-2.985515893E-1
8.017125886E0,-1.858197331E0,1.447708011E-1,-9.452861547E-2
8.026839480E0,-2.373905182E0,2.461714447E-1,9.483403713E-2
8.036553855E0,-2.719644785E0,3.671191931E-1,2.402156889E-1
8.046267397E0,-2.923667669E0,5.748072863E-1,3.355078697E-1
8.055980105E0,-3.028733492E0,8.496885300E-1,3.782671690E-1
8.065693751E0,-3.032398462E0,1.087918997E0,3.904841244E-1
8.075408074E0,-2.939549685E0,1.246739268E0,4.051444530E-1
8.085121668E0,-2.779507637E0,1.322484374E0,4.588989913E-1
8.094834376E0,-2.585258245E0,1.304158926E0,5.664080977E-1
8.104548022E0,-2.384900331E0,1.196649790E0,6.751389503E-1
8.114262345E0,-2.173394442E0,1.054933190E0,7.203416228E-1
8.123975938E0,-1.949824452E0,8.948912621E-1,7.227849960E-1
8.133688647E0,-1.738471270E0,6.859814525E-1,7.288935184E-1
8.143402293E0,-1.525896430E0,3.536805511E-1,7.459971905E-1
8.153116616E0,-1.269340634E0,-2.706053257E-1,7.618792653E-1
8.162830209E0,-1.143506050E0,-8.606837988E-1,7.948650122E-1
8.172542918E0,-1.214364409E0,-1.383569002E0,8.608365059E-1
8.182256563E0,-1.461146593E0,-1.623021126E0,9.206995368E-1
8.191970886E0,-1.747023106E0,-1.437323570E0,9.243646264E-1
8.201684480E0,-1.866749167E0,-9.901834130E-1,8.803836107E-1
8.211397188E0,-1.793447495E0,-3.866663277E-1,7.899782062E-1
8.221110834E0,-1.586981177E0,2.302894145E-1,6.213843822E-1
8.230825157E0,-1.340198874E0,7.006418109E-1,4.393518865E-1
8.240538751E0,-1.144727707E0,1.073258638E0,2.976353168E-1
8.250251459E0,-1.009119630E0,1.294385314E0,2.218902707E-1
8.259965105E0,-9.040539265E-1,1.271173120E0,2.145601064E-1
8.269679428E0,-7.904363275E-1,9.865183234E-1,2.292204350E-1
8.279393022E0,-6.621584296E-1,5.186093450E-1,2.267770469E-1
8.289105730E0,-5.412106514E-1,4.275931045E-3,2.133384049E-1
8.298819376E0,-4.373666346E-1,-4.001049399E-1,1.815743446E-1
8.308533751E0,-3.335226178E-1,-6.126797795E-1,1.204896197E-1
8.318247293E0,-2.211267054E-1,-6.371136904E-1,2.275406010E-2
8.327960053E0,-9.040539712E-2,-5.503733754E-1,-8.719844371E-2
8.337673647E0,7.452336699E-2,-4.465293586E-1,-1.837123185E-1
8.347388022E0,2.724378705E-1,-3.830012381E-1,-2.496838123E-1
8.357101563E0,4.984513521E-1,-3.744493723E-1,-2.826695740E-1
8.366814324E0,7.403468490E-1,-4.269822240E-1,-2.899997234E-1
8.376527970E0,9.822424054E-1,-4.929537475E-1,-2.851129472E-1
8.386242293E0,1.193595529E0,-5.015056133E-1,-2.863346636E-1
8.395955886E0,1.358524323E0,-4.269822240E-1,-3.046600819E-1
8.405668595E0,1.481915474E0,-3.084778786E-1,-3.486410677E-1
8.415382241E0,1.577207565E0,-1.801999360E-1,-4.243861437E-1
8.425096616E0,1.656617761E0,-4.825693369E-2,-5.147915483E-1
8.434810157E0,1.706707239E0,8.735115826E-2,-5.819846988E-1
8.444522918E0,1.689603567E0,2.192941606E-1,-5.832064152E-1
8.454236511E0,1.596754789E0,3.048127890E-1,-5.001311898E-1
8.463950886E0,1.403727055E0,3.561239541E-1,-3.730749488E-1
8.473664480E0,1.093416572E0,3.988832533E-1,-3.119902313E-1
8.483377188E0,7.269082665E-1,4.172086716E-1,-3.791834414E-1
8.493090834E0,3.933856487E-1,4.233171642E-1,-5.111264586E-1
8.502805209E0,1.221694499E-1,4.269822240E-1,-6.259657145E-1
8.512518751E0,-9.162709117E-2,3.805578351E-1,-6.442911625E-1
8.522231511E0,-2.370087355E-1,1.911951900E-1,-5.587725043E-1
8.531945157E0,-3.188622594E-1,-1.826433241E-1,-4.500417113E-1
8.541659480E0,-3.616215885E-1,-7.104153633E-1,-3.840702176E-1
8.551373074E0,-3.982724249E-1,-1.232078910E0,-3.058817685E-1
8.561085834E0,-3.897205591E-1,-1.572931647E0,-1.104106456E-1
8.570799428E0,-2.944283783E-1,-1.627907991E0,8.506047726E-2
8.580513803E0,-1.979145110E-1,-1.343253136E0,1.119377613E-1
8.590227397E0,-1.551551968E-1,-7.995990515E-1,-5.299099907E-2
8.599940157E0,-6.719319522E-2,-9.956810623E-2,-2.350234836E-1
8.609653751E0,1.356080920E-1,6.175665855E-1,-2.545706034E-1
8.619368126E0,3.151971996E-1,1.058598280E0,-1.043021679E-1
8.629081720E0,3.310792148E-1,9.828532338E-1,7.895200700E-2
8.638794428E0,3.591781855E-1,7.336275578E-1,1.571404636E-1
8.648508074E0,5.644228458E-1,7.104153633E-1,1.705790907E-1
8.658222449E0,8.185353279E-1,8.399149776E-1,1.913478971E-1
8.667936043E0,9.590302110E-1,1.024390817E0,2.121167034E-1
8.677648751E0,9.688037634E-1,1.218640327E0,2.585411072E-1
8.687362397E0,9.052756429E-1,1.365243673E0,3.403946459E-1
8.697076772E0,8.185353279E-1,1.406781197E0,4.540122151E-1
8.706790366E0,7.501204610E-1,1.326149344E0,5.786250830E-1
8.716503074E0,7.330167294E-1,1.124569774E0,6.788040400E-1
8.726216720E0,7.598940134E-1,8.325847983E-1,7.447755337E-1
8.735931095E0,8.539644480E-1,4.013266563E-1,7.777612805E-1
8.745644688E0,1.068982720E0,-2.107423097E-1,7.753179073E-1
8.755357397E0,1.400061965E0,-9.315420985E-1,7.007945180E-1
8.765071043E0,1.769013643E0,-1.588813663E0,5.236487985E-1
8.774785418E0,2.100092888E0,-1.979755998E0,2.805316150E-1
8.784499011E0,2.313889503E0,-1.896680713E0,3.741439432E-2
8.794211720E0,2.310224295E0,-1.232078910E0,-1.727170646E-1
8.803925366E0,2.020682812E0,-1.789782494E-1,-3.425326049E-1
8.813639741E0,1.532004952E0,7.751652002E-1,-4.659237564E-1
8.823353334E0,1.011563063E0,1.294385314E0,-5.392253995E-1
8.833066095E0,5.888567567E-1,1.421441555E0,-5.722111464E-1
8.842779688E0,2.968717813E-1,1.357913494E0,-5.563291311E-1
8.852494063E0,9.407047927E-2,1.162442327E0,-4.915793240E-1
8.862207657E0,-3.054236248E-2,8.386932611E-1,-4.231644273E-1
8.871920418E0,-4.275930673E-2,4.135435820E-1,-3.852919042E-1
8.881634063E0,7.696675509E-2,-1.081199646E-1,-3.669664860E-1
8.891348438E0,2.565558553E-1,-6.175665855E-1,-3.474193811E-1
8.901062032E0,3.933856487E-1,-9.633061290E-1,-3.156553209E-1
8.910774741E0,4.434750974E-1,-1.078145385E0,-2.741177082E-1
8.920488386E0,4.508052766E-1,-1.019504070E0,-2.264716178E-1
8.930202761E0,4.813476503E-1,-8.582404256E-1,-1.788255423E-1
8.939916355E0,5.705313683E-1,-6.346703172E-1,-1.470614821E-1
8.949629116E0,7.036960125E-1,-3.683409095E-1,-1.446180940E-1
8.959342761E0,8.380824327E-1,-7.635590434E-2,-1.617218107E-1
8.969057136E0,9.431481957E-1,2.082989216E-1,-1.788255423E-1
8.978770678E0,1.009119630E0,4.538595080E-1,-1.873773932E-1
8.988483438E0,1.056765795E0,6.236750484E-1,-1.910424829E-1
8.998197084E0,1.110520363E0,7.091936469E-1,-1.959292591E-1
9.007911459E0,1.165496588E0,7.201889157E-1,-2.020377368E-1
9.017625053E0,1.176491857E0,6.762079000E-1,-1.971509457E-1
9.027337813E0,1.110520363E0,5.967977643E-1,-1.678302884E-1
9.037051459E0,9.639169574E-1,5.015056133E-1,-1.104106456E-1
9.046765834E0,7.574505806E-1,4.233171642E-1,-3.344388679E-2
9.056479428E0,5.241069198E-1,3.549022675E-1,3.985778242E-2
9.066192136E0,3.237490356E-1,2.669402659E-1,7.040014863E-2
9.075905782E0,2.040229887E-1,1.667613089E-1,4.230117425E-2
9.085620157E0,1.685938388E-1,9.223793447E-2,-1.878355257E-2
9.095333751E0,1.856975704E-1,9.101624042E-2,-7.498150319E-2
9.105046511E0,2.015796006E-1,1.936385781E-1,-8.353336155E-2
9.114760157E0,1.832541823E-1,3.646758199E-1,-4.443913698E-2
9.124474532E0,1.258345395E-1,5.234960914E-1,2.153236605E-2
9.134188126E0,3.298575059E-2,6.187883019E-1,1.021642014E-1
9.143900886E0,-8.063183725E-2,6.297835112E-1,1.815743446E-1
9.153614532E0,-1.649287641E-1,5.381564498E-1,2.255553454E-1
9.163328907E0,-1.539335102E-1,3.451287150E-1,1.937913001E-1
9.173042501E0,-5.253286287E-2,1.056765765E-1,5.207473040E-2
9.182755261E0,8.307522535E-2,-8.246438205E-2,-1.824906170E-1
9.192468907E0,2.504473627E-1,-1.569877416E-1,-4.585935771E-1
9.202183282E0,4.446968138E-1,-1.191152185E-1,-7.249229550E-1
9.211896876E0,6.328377724E-1,-1.038440317E-2,-9.399412274E-1
9.221609636E0,7.647807598E-1,1.337755471E-1,-1.043785214E0
9.231323230E0,8.087617755E-1,2.852656841E-1,-1.003469348E0
9.241037657E0,7.366818190E-1,4.062134326E-1,-8.776348233E-1
9.250751251E0,4.813476503E-1,4.782933891E-1,-7.395833135E-1
9.260464011E0,-3.665083647E-2,5.283828974E-1,-5.893148780E-1
9.270177657E0,-7.562289238E-1,6.139014959E-1,-3.889569938E-1
9.279892032E0,-1.522231340E0,7.568397522E-1,-1.507265568E-1
9.289605626E0,-2.185611486E0,9.339854717E-1,8.139539510E-2
9.299318386E0,-2.663446665E0,1.135565042E0,2.683146596E-1
9.309032032E0,-2.945658207E0,1.346918225E0,4.039227366E-1
9.318746407E0,-3.076379538E0,1.550941229E0,5.004366040E-1
9.328460001E0,-3.104478598E0,1.723200083E0,5.639647245E-1
9.338172761E0,-3.061719179E0,1.844147921E0,5.932853818E-1
9.347886407E0,-2.955431700E0,1.913784504E0,5.896202922E-1
9.357600782E0,-2.801498175E0,1.908897638E0,5.871769190E-1
9.367314376E0,-2.630460978E0,1.818492293E0,5.896202922E-1
9.377027136E0,-2.437433243E0,1.636459827E0,5.627430081E-1
9.386740782E0,-2.196606636E0,1.401894450E0,5.285356045E-1
9.396455157E0,-1.931499004E0,1.200314879E0,5.578562617E-1
9.406168751E0,-1.671278119E0,1.075702071E0,6.775823236E-1
9.415881511E0,-1.434269309E0,1.030499339E0,8.083036542E-1
9.425595157E0,-1.253458619E0,9.791881442E-1,9.060391784E-1
9.435309532E0,-1.152057886E0,7.910472155E-1,9.683456421E-1
9.445023178E0,-1.149614573E0,4.184303582E-1,1.008661509E0
9.454735886E0,-1.229024649E0,-5.925218388E-2,1.041647315E0
9.464449584E0,-1.334090471E0,-3.976615667E-1,1.067302823E0
9.474163959E0,-1.409835458E0,-4.123218954E-1,1.064859509E0
9.483877553E0,-1.371962905E0,-8.857285231E-2,9.988879561E-1
9.493590313E0,-1.216807723E0,4.416425824E-1,8.657232523E-1
9.503303959E0,-1.016449809E0,9.400939345E-1,6.836907864E-1
9.513018334E0,-8.099834919E-1,1.145338655E0,4.796678126E-1
9.522731928E0,-6.365028620E-1,1.079367161E0,3.232909143E-1
9.532444688E0,-5.289937258E-1,8.167027831E-1,2.463241518E-1
9.542158334E0,-4.923428893E-1,5.809157491E-1,2.475458533E-1
9.551872761E0,-5.216635466E-1,4.538595080E-1,2.903051674E-1
9.561586355E0,-5.815265775E-1,3.781144619E-1,3.355078697E-1
9.571299116E0,-6.218425035E-1,3.096995652E-1,3.574983478E-1
9.581012761E0,-6.022953987E-1,2.046338320E-1,3.452814221E-1
9.590727136E0,-5.143333673E-1,6.291726977E-2,3.232909143E-1
9.600440730E0,-3.677300513E-1,-1.178935245E-1,2.976353168E-1
9.610153491E0,-1.685938388E-1,-3.231382072E-1,2.597627938E-1
9.619867136E0,8.185353130E-2,-5.112791657E-1,1.913478971E-1
9.629581563E0,3.726168275E-1,-6.175665855E-1,1.033858955E-1
9.639295157E0,6.902574301E-1,-5.894675851E-1,1.420219894E-2
9.649007918E0,1.023779988E0,-4.428642690E-1,-7.742489129E-2
9.658721563E0,1.364632726E0,-2.363978922E-1,-1.788255423E-1
9.668435938E0,1.674943209E0,2.137965336E-2,-2.741177082E-1
9.678149584E0,1.905843496E0,3.500154912E-1,-3.400892019E-1
9.687862345E0,2.030456305E0,7.262973785E-1,-3.779617548E-1
9.697575991E0,2.039008141E0,1.135565042E0,-3.730749488E-1
9.707290366E0,1.931499004E0,1.537502527E0,-3.046600819E-1
9.717003959E0,1.744579792E0,1.838039398E0,-1.861557066E-1
9.726716720E0,1.569877505E0,1.983421087E0,-6.398624927E-2
9.736430366E0,1.490467310E0,2.051836014E0,2.031067200E-2
9.746144793E0,1.495354056E0,2.185000658E0,3.130592033E-2
9.755858386E0,1.536891699E0,2.474542141E0,-4.321744293E-2
9.765571147E0,1.528339863E0,2.596711636E0,-1.690519750E-1
9.775284793E0,1.301104665E0,2.122694254E0,-2.570139766E-1
9.784999168E0,7.867712975E-1,1.266286373E0,-2.814478874E-1
9.794712813E0,1.612636745E-1,3.353551328E-1,-2.533488870E-1
9.804425574E0,-3.054236174E-1,-5.210527182E-1,-1.861557066E-1
9.814139220E0,-5.326588154E-1,-1.069593549E0,-8.842013776E-2
9.823853595E0,-5.925218463E-1,-1.090362310E0,7.773031294E-2
9.833567188E0,-5.534276366E-1,-7.214106321E-1,2.487675399E-1
9.843279949E0,-5.131117105E-1,-2.535016239E-1,3.196258247E-1
9.852993595E0,-5.265503526E-1,1.985253543E-1,2.353289127E-1
9.862708022E0,-4.862344265E-1,4.624113739E-1,-4.581354442E-4
9.872421616E0,-2.993151546E-1,4.990622103E-1,-2.362451702E-1
9.882134376E0,2.443389036E-3,6.004628539E-1,-3.180987239E-1
9.891848022E0,3.261924386E-1,8.154810667E-1,-2.924431264E-1
9.901562449E0,6.255075932E-1,1.062263370E0,-2.692309320E-1
9.911276043E0,8.429692388E-1,1.306602240E0,-1.690519750E-1
9.920988803E0,9.345963001E-1,1.515512109E0,7.635590737E-4
9.930702449E0,9.394831061E-1,1.688992620E0,1.656923145E-1
9.940416824E0,9.199360013E-1,1.816048861E0,2.964136302E-1
9.950130470E0,9.003888369E-1,1.908897638E0,4.063661397E-1
9.959843230E0,9.016105533E-1,1.969982386E0,5.089884996E-1
9.969556876E0,9.309312105E-1,1.951656938E0,6.213843822E-1
9.979271251E0,9.932376146E-1,1.835595965E0,7.386670709E-1
9.988984845E0,1.090973258E0,1.585148692E0,8.620582223E-1
9.998697657E0,1.197260618E0,1.208866715E0,9.463551044E-1
1.000841130E1,1.273005724E0,7.849387527E-1,9.292513728E-1
1.001812568E1,1.334090471E0,4.001049399E-1,7.838697433E-1
1.002783927E1,1.417165637E0,6.902574003E-2,5.590779781E-1
1.003755203E1,1.560103893E0,-2.583884001E-1,3.355078697E-1
1.004726568E1,1.764126897E0,-5.112791657E-1,1.546970755E-1
1.005698011E1,1.936385870E0,-4.538595080E-1,8.093725890E-3
1.006669370E1,1.941272616E0,5.925218388E-2,-1.250709742E-1
1.007640646E1,1.739693046E0,8.826742768E-1,-2.289150059E-1
1.008612011E1,1.418387294E0,1.631573081E0,-2.948864996E-1
1.009583453E1,1.079977989E0,2.049392462E0,-3.168770075E-1
1.010554813E1,7.855495811E-1,2.101925373E0,-2.924431264E-1
1.011526089E1,5.546492934E-1,1.850256324E0,-2.411319613E-1
1.012497453E1,3.958290219E-1,1.371352077E0,-1.812689304E-1
1.013468891E1,3.139754832E-1,7.763868570E-1,-1.067455560E-1
1.014440255E1,3.090887070E-1,1.594311297E-1,-2.489202656E-2
1.015411531E1,3.775036037E-1,-3.817795515E-1,3.985778242E-2
1.016382896E1,4.935645759E-1,-7.482879162E-1,7.773031294E-2
1.017354333E1,6.230642200E-1,-8.961129189E-1,8.872556686E-2
1.018325693E1,7.415685654E-1,-8.093726039E-1,7.406523079E-2
1.019296969E1,8.283088803E-1,-5.076140761E-1,3.985778242E-2
1.020268339E1,8.698465228E-1,-3.970507160E-2,7.635590737E-4
1.021239776E1,8.698465228E-1,4.905103445E-1,-3.222219273E-2
1.022211136E1,8.588512540E-1,9.352071285E-1,-5.665608495E-2
1.023182412E1,8.551861644E-1,1.223527074E0,-7.864658535E-2
1.024153776E1,8.600729704E-1,1.365243673E0,-9.697200358E-2
1.025125219E1,8.710681796E-1,1.383569002E0,-1.140757278E-1
1.026096578E1,8.893936276E-1,1.312710762E0,-1.238492802E-1
1.027067854E1,9.211576581E-1,1.183211088E0,-1.262926757E-1
1.028039219E1,9.578084946E-1,1.026834249E0,-1.262926757E-1
1.029010656E1,9.859074950E-1,8.851176500E-1,-1.250709742E-1
1.029982021E1,9.907942414E-1,7.861604095E-1,-1.201841980E-1
1.030953297E1,9.651386738E-1,7.421793938E-1,-1.091889441E-1
1.031924662E1,9.126058221E-1,7.495095730E-1,-9.452861547E-2
1.032896099E1,8.417475224E-1,7.898254991E-1,-7.009471953E-2
1.033867458E1,7.513421178E-1,8.435800672E-1,-3.466558084E-2
1.034838734E1,6.389462352E-1,8.838959932E-1,1.175880991E-2
1.035810099E1,5.241069198E-1,8.875610828E-1,4.840964451E-2
1.036781542E1,4.324798584E-1,8.704573512E-1,5.818320066E-2
1.037752901E1,3.713951409E-1,8.680139780E-1,4.230117425E-2
1.038724177E1,3.200839758E-1,9.168817401E-1,2.764083818E-2
1.039695542E1,2.357870489E-1,1.019504070E0,3.863608837E-2
1.040666979E1,8.185353130E-2,1.109909415E0,6.184828654E-2
1.041638339E1,-1.148392856E-1,1.127013206E0,7.040014863E-2
1.042609615E1,-2.980934680E-1,1.068371892E0,7.528692484E-2
1.043580979E1,-4.275930822E-1,9.413156509E-1,8.628217876E-2
1.044552422E1,-4.764608741E-1,7.434011102E-1,8.506047726E-2
1.045523781E1,-4.239279926E-1,4.819584787E-1,3.252761811E-2
1.046495057E1,-2.699944973E-1,1.899735034E-1,-1.104106456E-1
1.047466422E1,-7.452336699E-2,-3.115320951E-2,-3.095468581E-1
1.048437860E1,1.038440317E-1,-9.834641218E-2,-5.111264586E-1
1.049409219E1,2.712161839E-1,-2.382304333E-2,-6.968240142E-1
1.050380495E1,4.666872919E-1,1.557660550E-1,-8.532009125E-1
1.051351865E1,7.232431769E-1,4.257605374E-1,-9.631534219E-1
1.052323302E1,9.553651214E-1,8.044858575E-1,-9.753703475E-1
1.053294662E1,9.236010313E-1,1.313932419E0,-8.580876589E-1
1.054265938E1,5.253286362E-1,1.863695025E0,-6.736118197E-1
1.055237302E1,-1.417165697E-1,2.253415585E0,-4.818057716E-1
1.056208740E1,-9.199360013E-1,2.337712526E0,-2.753393948E-1
1.057180099E1,-1.640735745E0,2.126359224E0,-4.077405483E-2
1.058151375E1,-2.216153860E0,1.802610278E0,2.023431510E-1
1.059122740E1,-2.639012814E0,1.509403586E0,4.063661397E-1
1.060094182E1,-2.922446012E0,1.285833478E0,5.444176197E-1
1.061065542E1,-3.084931374E0,1.096470833E0,6.348230243E-1
1.062036818E1,-3.143572807E0,8.936695457E-1,6.861341596E-1
1.063008182E1,-3.139907598E0,6.456655264E-1,7.215633392E-1
1.063979620E1,-3.093483210E0,3.781144619E-1,7.679877281E-1
1.064950979E1,-2.977422237E0,2.535016239E-1,8.290724158E-1
1.065922255E1,-2.767290831E0,3.939964771E-1,8.791618943E-1
1.066893620E1,-2.499739647E0,7.458444834E-1,9.060391784E-1
1.067865057E1,-2.227149010E0,1.191763043E0,9.292513728E-1
1.068836417E1,-1.971814990E0,1.599808931E0,9.463551044E-1
1.069807693E1,-1.703042150E0,1.895459056E0,9.622371197E-1
1.070779063E1,-1.414722204E0,2.064052820E0,1.018435121E0
1.071750500E1,-1.187487125E0,2.054279327E0,1.074633002E0
1.072721860E1,-1.064095974E0,1.680440784E0,1.102732062E0
1.073693136E1,-1.097081661E0,1.098914266E0,1.108840466E0
1.074664500E1,-1.230246425E0,6.041279435E-1,1.125944257E0
1.075635938E1,-1.382958174E0,2.999260128E-1,1.117392302E0
1.076607297E1,-1.442821264E0,2.144073844E-1,1.018435121E0
1.077578573E1,-1.418387294E0,3.255815804E-1,8.412894011E-1
1.078549938E1,-1.299883008E0,4.074351192E-1,6.336013079E-1
1.079521375E1,-1.112963676E0,3.561239541E-1,4.051444530E-1
1.080492735E1,-9.236010313E-1,2.058555335E-1,2.231119573E-1
1.081464010E1,-7.855495811E-1,3.481829539E-2,1.473668963E-1
1.082435375E1,-7.281299233E-1,-1.325538605E-1,1.766875684E-1
1.083406813E1,-7.195780873E-1,-2.254026383E-1,2.707580328E-1
1.084378172E1,-7.122479081E-1,-1.716480851E-1,3.648285270E-1
1.085349448E1,-7.036960125E-1,-4.092676565E-2,4.112529159E-1
1.086320813E1,-7.036960125E-1,3.603998944E-2,3.831539452E-1
1.087292250E1,-6.988092661E-1,-3.726168349E-2,2.841966748E-1
1.088263610E1,-6.658235192E-1,-2.412846684E-1,1.559187621E-1
1.089234886E1,-5.632011890E-1,-4.648547769E-1,3.741439432E-2
1.090206250E1,-3.689517379E-1,-6.713211536E-1,-6.154286116E-2
1.091177693E1,-8.185353130E-2,-8.741224408E-1,-1.482831687E-1
1.092149052E1,2.932066917E-1,-1.056154966E0,-2.240282297E-1
1.093120323E1,7.305732965E-1,-1.166107416E0,-2.924431264E-1
1.094091688E1,1.174048424E0,-1.169772506E0,-3.559712470E-1
1.095063130E1,1.566212416E0,-1.054933190E0,-4.121691883E-1
1.096034490E1,1.854532242E0,-8.142594099E-1,-4.475983381E-1
1.097005761E1,2.015795946E0,-4.477510452E-1,-4.732539058E-1
1.097977125E1,2.068328857E0,3.054236295E-3,-5.037962794E-1
1.098948568E1,2.021904469E0,4.953971207E-1,-5.331169367E-1
1.099919922E1,1.883852959E0,9.962918758E-1,-5.270084739E-1
1.100891198E1,1.688381791E0,1.426328301E0,-4.732539058E-1
1.101862563E1,1.486802220E0,1.685327530E0,-3.706315756E-1
1.102834000E1,1.325538516E0,1.714648247E0,-2.484621257E-1
1.103805360E1,1.237576604E0,1.421441555E0,-1.385096163E-1
1.104776636E1,1.188708782E0,8.472451568E-1,-6.765133142E-2
1.105748000E1,1.117850542E0,2.754921019E-1,-4.566083103E-2
1.106719438E1,9.407047629E-1,-5.436540768E-2,-7.131642103E-2
1.107690797E1,6.157340407E-1,-1.203369126E-1,-1.006370857E-1
1.108662073E1,2.284568697E-1,-6.108472589E-4,-1.091889441E-1
1.109633438E1,-1.172826737E-1,1.606528312E-1,-9.819369763E-2
1.110604875E1,-3.872771561E-1,1.801999360E-1,-9.086353332E-2
1.111576234E1,-5.632011890E-1,-6.291726977E-2,-1.116323397E-1
1.112547511E1,-6.193991303E-1,-5.405998230E-1,-1.275143623E-1
1.113518875E1,-5.008947253E-1,-1.079367161E0,-9.452861547E-2
1.114490313E1,-1.954711229E-1,-1.371352077E0,-6.032116711E-2
1.115461672E1,9.895725548E-2,-1.190541267E0,-1.409530044E-1
1.116432948E1,1.820324808E-1,-6.297835112E-1,-3.339807391E-1
1.117404313E1,1.282779276E-1,1.227803007E-1,-4.793623984E-1
1.118375750E1,6.108472496E-2,8.154810667E-1,-5.050179958E-1
1.119347110E1,8.551862091E-3,1.092805743E0,-4.341596961E-1
1.120318380E1,-6.108472589E-3,7.348492742E-1,-3.217637837E-1
1.121289745E1,3.787253052E-2,6.413896382E-2,-2.166980654E-1
1.122261188E1,1.734806150E-1,-3.329117596E-1,-1.336228400E-1
1.123232542E1,3.775036037E-1,-3.377985358E-1,-7.620319724E-2
1.124203818E1,5.766398311E-1,-1.557660550E-1,-4.810422286E-2
1.125175182E1,7.317950130E-1,1.093416587E-1,-2.122694254E-2
1.126146620E1,8.490777016E-1,4.172086716E-1,4.474456236E-2
1.127117979E1,9.663603902E-1,7.470661998E-1,1.449235082E-1
1.128089255E1,1.095860004E0,1.040272832E0,2.487675399E-1
1.129060620E1,1.215586066E0,1.219861984E0,3.281776905E-1
1.130032057E1,1.325538516E0,1.214975238E0,3.990359604E-1
1.131003417E1,1.434269309E0,1.081810474E0,5.163186193E-1
1.131974688E1,1.500240922E0,9.498674870E-1,6.897992492E-1
1.132946052E1,1.469698548E0,8.448017836E-1,8.058602214E-1
1.133917490E1,1.346307397E0,7.140804529E-1,7.643226385E-1
1.134888849E1,1.196038961E0,5.051707029E-1,6.213843822E-1
1.135860125E1,1.101968408E0,2.327328026E-1,4.857762754E-1
1.136831490E1,1.109298587E0,-8.368607610E-2,4.124746025E-1
1.137802927E1,1.213142633E0,-4.330907166E-1,4.149180055E-1
1.138774287E1,1.368297815E0,-7.495095730E-1,4.344651103E-1
1.139745557E1,1.491688967E0,-9.132166505E-1,4.088095427E-1
1.140716922E1,1.513679504E0,-8.533536196E-1,3.049654961E-1
1.141688360E1,1.393953443E0,-5.992411375E-1,1.241547018E-1
1.142659719E1,1.148392797E0,-2.730487287E-1,-1.152974218E-1
1.143630995E1,8.600729704E-1,-1.832541777E-3,-3.620797098E-1
1.144602360E1,6.169557571E-1,1.826433241E-1,-5.380037427E-1
1.145573792E1,4.410317242E-1,2.632751763E-1,-5.905365944E-1
1.146545151E1,3.042019308E-1,2.058555335E-1,-5.367820263E-1
1.147516427E1,2.125748396E-1,8.124268800E-2,-4.317162931E-1
1.148487792E1,1.820324808E-1,-4.703523964E-2,-3.290939629E-1
1.149459229E1,2.174616307E-1,-1.618745178E-1,-2.606790662E-1
1.150430589E1,3.054236174E-1,-2.510582209E-1,-2.289150059E-1
1.151401860E1,4.019374847E-1,-3.023693860E-1,-2.069245130E-1
1.152373224E1,4.776825607E-1,-2.742704153E-1,-1.788255423E-1
1.153344662E1,5.253286362E-1,-1.728697717E-1,-1.543916464E-1
1.154316021E1,5.534276366E-1,-4.825693369E-2,-1.470614821E-1
1.155287297E1,5.851916671E-1,6.902574003E-2,-1.592784226E-1
1.156258656E1,6.255075932E-1,1.484358907E-1,-1.849340051E-1
1.157230094E1,6.682668924E-1,1.765348613E-1,-2.179197669E-1
1.158201453E1,7.036960125E-1,1.618745178E-1,-2.484621257E-1
1.159172729E1,7.293516397E-1,1.276670843E-1,-2.704526186E-1
1.160144089E1,7.488987446E-1,1.117850468E-1,-2.814478874E-1
1.161115526E1,7.672241330E-1,1.215586066E-1,-2.790044844E-1
1.162086886E1,7.965448499E-1,1.472141892E-1,-2.728960216E-1
1.163058162E1,8.417475224E-1,1.887518018E-1,-2.594573796E-1
1.164029526E1,8.906152844E-1,2.620534599E-1,-2.313583940E-1
1.165000958E1,9.077190161E-1,3.671191931E-1,-1.947075576E-1
1.165972318E1,8.771766424E-1,4.966188073E-1,-1.531699449E-1
1.166943594E1,8.026533127E-1,6.420004964E-1,-1.152974218E-1
1.167914958E1,7.146912813E-1,7.702783942E-1,-1.079672500E-1
1.168886391E1,6.438329816E-1,8.448017836E-1,-1.385096163E-1
1.169857750E1,6.022953987E-1,8.753440976E-1,-1.837123185E-1
1.170829026E1,5.778614879E-1,8.851176500E-1,-2.118112892E-1
1.171800391E1,5.448757410E-1,8.985562921E-1,-1.947075576E-1
1.172771823E1,4.618005157E-1,9.193251133E-1,-1.189625040E-1
1.173743182E1,3.176405728E-1,9.205468297E-1,-1.267508045E-2
1.174714458E1,1.404948682E-1,8.936695457E-1,1.021642014E-1
1.175685823E1,-3.420744836E-2,8.154810667E-1,2.035648525E-1
1.176657255E1,-1.783674061E-1,6.542174220E-1,2.732014358E-1
1.177628615E1,-2.809897363E-1,4.123218954E-1,2.890834510E-1
1.178599891E1,-3.567348123E-1,1.472141892E-1,2.231119573E-1
1.179571250E1,-4.056025743E-1,-7.513421029E-2,3.497100621E-2
1.180542688E1,-3.836120665E-1,-2.046338320E-1,-2.631224692E-1
1.181514047E1,-2.577775419E-1,-2.217375487E-1,-6.235223413E-1
1.182485323E1,-3.665083647E-2,-1.459924877E-1,-9.814788103E-1
1.183456682E1,2.015796006E-1,1.893626526E-2,-1.231926203E0
1.184428120E1,3.567348123E-1,2.913741469E-1,-1.235591292E0
1.185399479E1,3.933856487E-1,6.652126908E-1,-1.052337170E0
1.186370750E1,3.066453338E-1,1.062263370E0,-8.556442857E-1
1.187342115E1,1.954711229E-2,1.344474792E0,-7.065975666E-1
1.188313552E1,-5.485408306E-1,1.444653749E0,-5.331169367E-1
1.189284912E1,-1.356080890E0,1.532615781E0,-2.814478874E-1
1.190256182E1,-2.181946516E0,1.778176427E0,1.175880991E-2
1.191227547E1,-2.770955801E0,2.092151880E0,2.475458533E-1
1.192198984E1,-3.056832314E0,2.340155840E0,4.198047817E-1
1.193170339E1,-3.181445122E0,2.514858246E0,5.945070982E-1
1.194141615E1,-3.216874361E0,2.555174112E0,7.069029808E-1
1.195112979E1,-3.168006659E0,2.434226274E0,7.459971905E-1
1.196084417E1,-3.037285328E0,2.165453434E0,7.423321605E-1
1.197055771E1,-2.866248131E0,1.763516068E0,7.496622801E-1
1.198027047E1,-2.651229858E0,1.370130420E0,8.266290426E-1
1.198998412E1,-2.403225899E0,1.089140654E0,9.439117312E-1
1.199969844E1,-2.137965441E0,9.877400398E-1,1.046534061E0
1.200941203E1,-1.881409526E0,1.056154966E0,1.118614078E0
1.201912474E1,-1.639514089E0,1.166107416E0,1.155264854E0
1.202883839E1,-1.390288353E0,1.072036982E0,1.145491362E0
1.203855276E1,-1.132510781E0,5.992411375E-1,1.100288630E0
1.204826636E1,-9.578084946E-1,-1.496575773E-1,1.064859509E0
1.205797906E1,-9.468132257E-1,-9.364288449E-1,1.064859509E0
1.206769271E1,-1.098303318E0,-1.416554809E0,1.075854778E0
1.207740708E1,-1.304769754E0,-1.274838209E0,1.047755718E0
1.208712063E1,-1.406170368E0,-5.589252710E-1,9.439117312E-1
1.209683339E1,-1.343863964E0,3.854446113E-1,7.459971905E-1
1.210654698E1,-1.101968408E0,1.147781968E0,4.882196784E-1
1.211626136E1,-7.635591030E-1,1.477639556E0,2.609844804E-1
1.212597495E1,-4.153761268E-1,1.364021897E0,1.094943732E-1
1.213568766E1,-1.368297935E-1,9.755230546E-1,6.306997687E-2
1.214540130E1,1.710372418E-2,6.029062271E-1,1.327065676E-1
1.215511568E1,4.275930673E-2,3.781144619E-1,2.316638231E-1
1.216482922E1,-2.687728032E-2,2.583884001E-1,2.866400778E-1
1.217454198E1,-1.380514801E-1,1.899735034E-1,2.732014358E-1
1.218425557E1,-2.382304370E-1,1.203369126E-1,1.986780763E-1
1.219396995E1,-2.797680497E-1,4.825693369E-2,1.046075895E-1
1.220368354E1,-2.516690791E-1,-1.527118124E-2,3.008422814E-2
1.221339625E1,-1.404948682E-1,-1.056765765E-1,-2.000524849E-2
1.222310990E1,7.207997888E-2,-2.254026383E-1,-5.421269313E-2
1.223282427E1,3.946073353E-1,-3.439069986E-1,-9.330692142E-2
1.224253781E1,7.928797603E-1,-4.196520746E-1,-1.446180940E-1
1.225225057E1,1.221694469E0,-4.098785222E-1,-2.105895877E-1
1.226196417E1,1.628518820E0,-3.170297146E-1,-2.802261710E-1
1.227167854E1,1.966928124E0,-1.569877416E-1,-3.364241421E-1
1.228139214E1,2.208823681E0,8.979454637E-2,-3.669664860E-1
1.229110485E1,2.334658146E0,4.514161348E-1,-3.755183518E-1
1.230081849E1,2.344431877E0,8.838959932E-1,-3.669664860E-1
1.231053287E1,2.236922741E0,1.285833478E0,-3.290939629E-1
1.232024641E1,2.002357244E0,1.565601468E0,-2.533488870E-1
1.232995917E1,1.659061193E0,1.717091680E0,-1.507265568E-1
1.233967276E1,1.262010455E0,1.798945189E0,-4.810422286E-2
1.234938714E1,8.674030900E-1,1.901567459E0,2.886253223E-2
1.235910073E1,5.803049207E-1,2.035953999E0,9.239064902E-2
1.236881344E1,4.373666346E-1,2.105590582E0,1.302631795E-1
1.237852708E1,2.968717813E-1,1.869803429E0,9.361234307E-2
1.238824141E1,1.001789495E-1,1.324927688E0,7.635590737E-4
1.239795500E1,-9.040539712E-2,6.529957056E-1,-4.321744293E-2
1.240766771E1,-2.284568697E-1,-1.301104724E-1,-7.788302377E-3
1.241738136E1,-2.761029601E-1,-8.521319032E-1,6.062658876E-2
1.242709573E1,-2.663294077E-1,-1.225970507E0,1.620272398E-1
1.243680927E1,-2.162399292E-1,-1.199093223E0,2.499892414E-1
1.244652203E1,-1.600419879E-1,-8.338065147E-1,2.341072112E-1
1.245623563E1,-1.856975704E-1,-2.278460264E-1,8.628217876E-2
1.246595000E1,-2.822114229E-1,4.172086716E-1,-1.433963925E-1
1.247566354E1,-2.895416021E-1,8.313631415E-1,-3.339807391E-1
1.248537630E1,-1.856975704E-1,8.863393664E-1,-3.730749488E-1
1.249508990E1,-6.108472496E-2,6.029062271E-1,-2.203631550E-1
1.250480427E1,1.014006436E-1,1.801999360E-1,-3.344388679E-2
1.251451787E1,3.555130959E-1,3.726168349E-2,1.664558798E-2
1.252423057E1,6.988092661E-1,4.367557764E-1,6.872031838E-3
1.253394422E1,9.785773158E-1,1.065928459E0,4.428642802E-3
1.254365854E1,1.112963676E0,1.612025857E0,1.908897609E-2
1.255337214E1,1.150836229E0,1.982199311E0,6.917845458E-2
1.256308484E1,1.147171140E0,2.210656166E0,1.559187621E-1
1.257279849E1,1.126402378E0,2.310835123E0,2.622061968E-1
1.258251281E1,1.122737288E0,2.247307062E0,3.758237660E-1
1.259222641E1,1.163053155E0,2.000524759E0,5.004366040E-1
1.260193912E1,1.226581335E0,1.652341843E0,6.580352187E-1
1.261165276E1,1.273005724E0,1.258956194E0,8.107470274E-1
1.262136714E1,1.255901933E0,8.631271720E-1,8.681666851E-1
1.263108068E1,1.183822036E0,5.198310018E-1,7.985301018E-1
1.264079339E1,1.115407109E0,2.290677279E-1,6.507050395E-1
1.265050703E1,1.108076930E0,-5.680879578E-2,4.931064546E-1
1.266022141E1,1.205812454E0,-4.233171642E-1,3.733803928E-1
1.266993495E1,1.424495816E0,-7.983773947E-1,2.793098986E-1
1.267964766E1,1.692046881E0,-9.119949341E-1,1.742441803E-1
1.268936130E1,1.856975675E0,-5.748072863E-1,6.306997687E-2
1.269907568E1,1.842315316E0,9.345962852E-2,-7.009471953E-2
1.270878922E1,1.644400835E0,8.533536196E-1,-2.240282297E-1
1.271850193E1,1.332868695E0,1.443432093E0,-3.510844707E-1
1.272821557E1,1.011563063E0,1.734195352E0,-4.109475017E-1
1.273792990E1,7.452336550E-1,1.707318068E0,-4.060607255E-1
1.274764349E1,5.436540842E-1,1.426328301E0,-3.657447994E-1
1.275735620E1,4.153761268E-1,1.012173891E0,-2.912214398E-1
1.276706984E1,3.616215885E-1,5.320479870E-1,-1.885990947E-1
1.277678417E1,3.823903799E-1,3.115320951E-2,-8.353336155E-2
1.278649776E1,4.446968138E-1,-3.793361485E-1,-1.023169141E-2
1.279621047E1,4.935645759E-1,-6.151232123E-1,3.252761811E-2
1.280592412E1,5.131117105E-1,-6.652126908E-1,4.230117425E-2
1.281563844E1,5.204418898E-1,-5.442649126E-1,3.008422814E-2
1.282535203E1,5.424323678E-1,-2.877090573E-1,5.650337320E-3
1.283506474E1,5.974085927E-1,3.726168349E-2,-3.833066672E-2
1.284477839E1,6.719319820E-1,3.854446113E-1,-9.208522737E-2
1.285449271E1,7.354601026E-1,6.933116317E-1,-1.372879148E-1
1.286420630E1,7.769976854E-1,9.071081877E-1,-1.543916464E-1
1.287391901E1,8.026533127E-1,1.007287145E0,-1.458397806E-1
1.288363260E1,8.246437907E-1,1.008508801E0,-1.275143623E-1
1.289334698E1,8.502993584E-1,9.498674870E-1,-1.067455560E-1
1.290306052E1,8.771766424E-1,8.692356348E-1,-8.597674966E-2
1.291277328E1,8.930587173E-1,7.947123051E-1,-6.276455522E-2
1.292248688E1,8.771766424E-1,7.226322889E-1,-3.588727489E-2
1.293220125E1,8.209787011E-1,6.737645268E-1,-4.581354442E-4
1.294191479E1,7.232431769E-1,6.676560640E-1,4.107947648E-2
1.295162750E1,6.096255779E-1,6.762079000E-1,8.139539510E-2
1.296134115E1,5.106683373E-1,6.749862432E-1,1.107160673E-1
1.297105547E1,4.483618736E-1,6.505523324E-1,1.241547018E-1
1.298076906E1,4.337015450E-1,6.065713167E-1,1.156028435E-1
1.299048177E1,4.642439187E-1,5.601469278E-1,8.383878320E-2
1.300019537E1,5.106683373E-1,5.393781066E-1,4.474456236E-2
1.300990974E1,5.155550838E-1,5.845808387E-1,2.153236605E-2
1.301962333E1,4.300364852E-1,6.908682585E-1,2.031067200E-2
1.302933604E1,2.565558553E-1,7.983773947E-1,2.886253223E-2
1.303904964E1,3.542914242E-2,8.325847983E-1,3.985778242E-2
1.304876401E1,-1.808107942E-1,7.947123051E-1,5.818320066E-2
1.305847755E1,-3.384093940E-1,7.018635273E-1,8.139539510E-2
1.306819026E1,-3.933856487E-1,5.454866290E-1,1.033858955E-1
1.307790391E1,-3.139754832E-1,3.121429384E-1,8.139539510E-2
1.308761823E1,-1.368297935E-1,2.870982140E-2,-4.688252881E-2
1.309733182E1,3.176405653E-2,-1.936385781E-1,-2.948864996E-1
1.310704453E1,1.429382563E-1,-2.816005945E-1,-5.942016840E-1
1.311675813E1,2.504473627E-1,-2.437280566E-1,-8.580876589E-1
1.312647250E1,4.068242610E-1,-9.712471068E-2,-1.048672080E0
1.313618604E1,6.377245188E-1,1.325538605E-1,-1.158624530E0
1.314589875E1,8.356390595E-1,4.575245976E-1,-1.137855768E0
1.315561240E1,8.112051487E-1,8.900044560E-1,-9.888089895E-1
1.316532672E1,4.789042473E-1,1.373795509E0,-8.165500760E-1
1.317504031E1,-7.941014320E-2,1.737860441E0,-6.797202826E-1
1.318475302E1,-7.159129977E-1,1.834374309E0,-5.245651007E-1
1.319446662E1,-1.313321590E0,1.696322799E0,-3.046600819E-1
1.320418099E1,-1.833763480E0,1.453205585E0,-2.367033064E-2
1.321389453E1,-2.282125473E0,1.244295835E0,2.683146596E-1
1.322360724E1,-2.650008202E0,1.125791550E0,5.163186193E-1
1.323332089E1,-2.922446012E0,1.040272832E0,6.971294284E-1
1.324303521E1,-3.108143568E0,9.376505613E-1,7.997517586E-1
1.325274880E1,-3.230313063E0,8.093726039E-1,8.412894011E-1
1.326246151E1,-3.286510944E0,6.896465421E-1,8.498412371E-1
1.327217510E1,-3.246195078E0,6.762079000E-1,8.559496999E-1
1.328188943E1,-3.078822851E0,8.484668136E-1,8.852704167E-1
1.329160302E1,-2.825932026E0,1.156333804E0,9.121476412E-1
1.330131573E1,-2.543720722E0,1.494743228E0,9.536852837E-1
1.331102932E1,-2.273573399E0,1.783063173E0,9.793408513E-1
1.332074370E1,-2.019461155E0,1.985864401E0,9.805625677E-1
1.333045724E1,-1.762905240E0,2.042062283E0,9.988879561E-1
1.334016995E1,-1.511236072E0,1.858808160E0,1.056307673E0
1.334988360E1,-1.301104665E0,1.371352077E0,1.116170645E0
1.335959792E1,-1.172826767E0,5.919110179E-1,1.136939406E0
1.336931146E1,-1.186265349E0,-1.056765765E-1,1.160151601E0
1.337902417E1,-1.288887739E0,-3.329117596E-1,1.194359064E0
1.338873781E1,-1.360967636E0,1.160609815E-2,1.188250661E0
1.339845214E1,-1.294996142E0,6.065713167E-1,1.080741525E0
1.340816573E1,-1.130067468E0,9.523108602E-1,8.266290426E-1
1.341787844E1,-9.126058221E-1,9.474241138E-1,5.102101564E-1
1.342759203E1,-6.951441765E-1,6.957550049E-1,2.365505993E-1
1.343730636E1,-5.741963983E-1,3.622324169E-1,9.849911928E-2
1.344701995E1,-5.937435627E-1,9.101624042E-2,1.400367320E-1
1.345673266E1,-6.768187881E-1,9.162709117E-3,2.951919436E-1
1.346644625E1,-7.379034758E-1,1.105633527E-1,4.405735731E-1
1.347616063E1,-7.696675658E-1,2.522799075E-1,5.016583204E-1
1.348587417E1,-7.855495811E-1,3.219164908E-1,4.747810364E-1
1.349558688E1,-7.843278646E-1,2.706053257E-1,3.758237660E-1
1.350530047E1,-7.476770282E-1,1.093416587E-1,2.365505993E-1
1.351501485E1,-6.572716236E-1,-1.154501289E-1,9.361234307E-2
1.352472839E1,-5.057815313E-1,-3.854446113E-1,-2.611372061E-2
1.353444110E1,-2.834331393E-1,-6.713211536E-1,-1.079672500E-1
1.354415469E1,2.932066843E-2,-9.315420985E-1,-1.568350345E-1
1.355386906E1,4.239279926E-1,-1.107466102E0,-1.922641695E-1
1.356358260E1,8.796200752E-1,-1.159998894E0,-2.435753495E-1
1.357329531E1,1.356080890E0,-1.098914266E0,-3.303156495E-1
1.358300891E1,1.792225838E0,-9.315420985E-1,-4.402681589E-1
1.359272328E1,2.124526739E0,-6.566607952E-1,-5.441122055E-1
1.360243682E1,2.309002638E0,-2.754921019E-1,-6.076403260E-1
1.361214953E1,2.349318504E0,2.082989216E-1,-6.271874309E-1
1.362186313E1,2.241809368E0,7.287407517E-1,-6.113054156E-1
1.363157750E1,1.981588483E0,1.233300567E0,-5.392253995E-1
1.364129104E1,1.621188641E0,1.721978426E0,-4.023956358E-1
1.365100375E1,1.259567022E0,2.066496372E0,-2.362451702E-1
1.366071734E1,9.688037634E-1,1.988307834E0,-9.575030953E-2
1.367043167E1,7.672241330E-1,1.483747959E0,-1.878355257E-2
1.368014526E1,6.120689511E-1,9.107732773E-1,1.420219894E-2
1.368985797E1,4.398100376E-1,5.088357925E-1,2.764083818E-2
1.369957156E1,2.370087355E-1,3.170297146E-1,9.315420873E-3
1.370928589E1,1.832541823E-2,2.315111160E-1,-2.611372061E-2
1.371899948E1,-1.905843467E-1,6.902574003E-2,-3.100049868E-2
1.372871219E1,-3.665083647E-1,-2.730487287E-1,6.872031838E-3
1.373842578E1,-4.813476503E-1,-6.994200945E-1,5.573981255E-2
1.374814011E1,-4.972296655E-1,-1.031720996E0,1.229330078E-1
1.375785365E1,-3.469612300E-1,-1.213753462E0,1.461452097E-1
1.376756636E1,-7.941014320E-2,-1.208866715E0,2.275406010E-2
1.377728000E1,1.270562261E-1,-8.557969928E-1,-2.667875290E-1
1.378699432E1,2.260134816E-1,-1.117850468E-1,-5.868715048E-1
1.379670787E1,3.078670204E-1,7.238540053E-1,-7.713474035E-1
1.380642057E1,4.153761268E-1,1.232078910E0,-7.359182239E-1
1.381613417E1,4.556920528E-1,1.179545999E0,-4.463766217E-1
1.382584854E1,3.713951409E-1,6.175665855E-1,-6.642963737E-2
1.383556208E1,3.249707520E-1,1.814216375E-1,1.290414780E-1
1.384527479E1,4.324798584E-1,3.341334462E-1,1.449235082E-1
1.385498839E1,6.291726828E-1,6.994200945E-1,1.070509851E-1
1.386470271E1,8.393041492E-1,9.474241138E-1,7.895200700E-2
1.387441625E1,1.001789451E0,1.123348117E0,9.361234307E-2
1.388412896E1,1.092194915E0,1.300493836E0,1.522536725E-1
1.389384261E1,1.132510781E0,1.420219898E0,2.316638231E-1
1.390355693E1,1.153279662E0,1.417776465E0,3.122956753E-1
1.391327047E1,1.191152096E0,1.257734537E0,4.063661397E-1
1.392298318E1,1.266897202E0,9.486457705E-1,5.370874405E-1
1.393269677E1,1.338977218E0,5.833591223E-1,6.824691296E-1
1.394241110E1,1.354859233E0,2.376195788E-1,7.582141757E-1
1.395212469E1,1.323095202E0,-4.581354558E-2,7.325585485E-1
1.396183740E1,1.281557560E0,-3.158080280E-1,6.409314871E-1
1.397155099E1,1.276670814E0,-6.432221532E-1,5.334223509E-1
1.398126531E1,1.335312128E0,-1.040272832E0,4.417952895E-1
1.399097886E1,1.463590026E0,-1.390899181E0,3.538332880E-1
1.400069156E1,1.582094431E0,-1.517955422E0,2.451024652E-1
1.401040516E1,1.582094431E0,-1.282168388E0,9.361234307E-2
1.402011948E1,1.426939249E0,-7.580614686E-1,-9.208522737E-2
1.402983307E1,1.174048424E0,-1.838650256E-1,-2.680092454E-1
1.403954578E1,9.150491953E-1,2.278460264E-1,-3.975088596E-1
1.404925938E1,6.988092661E-1,3.683409095E-1,-4.659237564E-1
1.405897370E1,5.363239050E-1,2.950392365E-1,-4.732539058E-1
1.406868724E1,4.153761268E-1,1.313321590E-1,-4.366030693E-1
1.407839995E1,3.384093940E-1,-2.137965336E-2,-3.681881726E-1
1.408811354E1,2.944283783E-1,-1.459924877E-1,-2.851129472E-1
1.409782787E1,2.712161839E-1,-2.693836391E-1,-2.179197669E-1
1.410754141E1,2.761029601E-1,-3.952181637E-1,-1.800472289E-1
1.411725412E1,3.151971996E-1,-4.905103445E-1,-1.592784226E-1
1.412696771E1,3.799470067E-1,-5.161659122E-1,-1.519482583E-1
1.413668208E1,4.544703662E-1,-4.624113739E-1,-1.433963925E-1
1.414639563E1,5.424323678E-1,-3.402419090E-1,-1.287360638E-1
1.415610833E1,6.450546980E-1,-1.692046970E-1,-1.226275861E-1
1.416582193E1,7.537854910E-1,2.382304333E-2,-1.324011385E-1
1.417553625E1,8.368607163E-1,2.156290859E-1,-1.568350345E-1
1.418524979E1,8.698465228E-1,3.817795515E-1,-1.837123185E-1
1.419496250E1,8.588512540E-1,4.941754341E-1,-2.069245130E-1
1.420467610E1,8.222004175E-1,5.491516590E-1,-2.215848416E-1
1.421439042E1,7.794411182E-1,5.552601814E-1,-2.289150059E-1
1.422410396E1,7.501204610E-1,5.076140761E-1,-2.350234836E-1
1.423381667E1,7.440119386E-1,4.208737612E-1,-2.423536479E-1
1.424353026E1,7.488987446E-1,3.402419090E-1,-2.447970361E-1
1.425324458E1,7.415685654E-1,3.084778786E-1,-2.313583940E-1
1.426295818E1,7.061394453E-1,3.280249834E-1,-2.118112892E-1
1.427267083E1,6.487197876E-1,3.939964771E-1,-1.885990947E-1
1.428238443E1,5.680879354E-1,5.076140761E-1,-1.605001241E-1
1.429209880E1,4.630222321E-1,6.578825116E-1,-1.262926757E-1
1.430181234E1,3.432961702E-1,7.995990515E-1,-9.452861547E-2
1.431152505E1,2.284568697E-1,8.961129189E-1,-6.520794332E-2
1.432123865E1,1.282779276E-1,9.413156509E-1,-3.833066672E-2
1.433095297E1,4.153761268E-2,9.388722181E-1,-1.023169141E-2
1.434066651E1,-4.153761268E-2,8.997780085E-1,3.252761811E-2
1.435037922E1,-1.417165697E-1,8.191461563E-1,8.139539510E-2
1.436009281E1,-2.565558553E-1,6.920899153E-1,1.327065676E-1
1.436980714E1,-3.665083647E-1,5.173876286E-1,1.815743446E-1
1.437952068E1,-4.495835900E-1,2.913741469E-1,2.279987335E-1
1.438923339E1,-4.813476503E-1,2.015795931E-2,2.597627938E-1
1.439894698E1,-4.446968138E-1,-2.816005945E-1,2.695363462E-1
1.440866130E1,-3.286358118E-1,-5.845808387E-1,2.353289127E-1
1.441837484E1,-1.722589284E-1,-8.289197087E-1,1.327065676E-1
1.442808755E1,-4.398100078E-2,-9.462023973E-1,-3.833066672E-2
1.443780115E1,5.253286287E-2,-9.376505613E-1,-2.350234836E-1
1.444751547E1,1.673721522E-1,-8.496885300E-1,-4.133908749E-1
1.445722901E1,3.335226178E-1,-7.409577370E-1,-5.697677732E-1
1.446694172E1,5.338805318E-1,-6.346703172E-1,-6.919372082E-1
1.447665531E1,7.183563709E-1,-4.953971207E-1,-7.383615971E-1
1.448636964E1,8.075400591E-1,-2.681619525E-1,-6.675033569E-1
1.449608318E1,7.207997441E-1,3.848337755E-2,-5.355603099E-1
1.450579589E1,4.190412164E-1,3.707842827E-1,-3.987305462E-1
1.451550948E1,-6.719319522E-2,6.456655264E-1,-2.802261710E-1
1.452522380E1,-6.340594292E-1,7.702783942E-1,-1.592784226E-1
1.453493735E1,-1.185043693E0,6.920899153E-1,-3.710897267E-2
1.454465005E1,-1.648065925E0,4.929537475E-1,5.085303262E-2
1.455436365E1,-1.971814990E0,3.096995652E-1,9.361234307E-2
1.456407797E1,-2.147738934E0,2.021904439E-1,1.033858955E-1
1.457379151E1,-2.223484039E0,1.594311297E-1,1.119377613E-1
1.458350422E1,-2.295563936E0,1.777565479E-1,1.510319859E-1
1.459321781E1,-2.365353346E0,2.412846684E-1,2.060082406E-1
1.460293214E1,-2.417886257E0,3.561239541E-1,2.670929730E-1
1.461264568E1,-2.436211586E0,5.112791657E-1,3.416163325E-1
1.462235833E1,-2.405669212E0,7.079719901E-1,4.283566475E-1
1.463207193E1,-2.321219683E0,9.535325766E-1,5.089884996E-1
1.464178630E1,-2.214932203E0,1.200314879E0,5.554128885E-1
1.465149974E1,-2.108644724E0,1.393342614E0,5.505260825E-1
1.466121250E1,-1.999913931E0,1.481304646E0,5.016583204E-1
1.467092610E1,-1.889961362E0,1.408002973E0,4.540122151E-1
1.468064042E1,-1.787339091E0,1.116017938E0,4.430169761E-1
1.469035396E1,-1.706707239E0,5.992411375E-1,4.845545888E-1
1.470006667E1,-1.639514089E0,-8.002099395E-2,5.688515306E-1
1.470978026E1,-1.549108624E0,-8.900044560E-1,6.678087711E-1
1.471949458E1,-1.479472041E0,-1.543611050E0,7.643226385E-1
1.472920813E1,-1.491688967E0,-1.752520800E0,8.107470274E-1
1.473892083E1,-1.553995371E0,-1.528950691E0,7.960866690E-1
1.474863443E1,-1.591867924E0,-1.020725727E0,7.069029808E-1
1.475834875E1,-1.606528282E0,-3.671191931E-1,5.395308137E-1
1.476806229E1,-1.521009684E0,2.388412803E-1,3.684936166E-1
1.477777495E1,-1.337755442E0,6.725428104E-1,2.267770469E-1
1.478748854E1,-1.115407109E0,8.997780085E-1,1.290414780E-1
1.479720287E1,-8.661814332E-1,9.315420985E-1,8.261708915E-2
1.480691641E1,-6.242858768E-1,8.643488884E-1,1.009425074E-1
1.481662912E1,-4.288147688E-1,7.666133046E-1,1.534753740E-1
1.482634271E1,-2.834331393E-1,6.297835112E-1,1.913478971E-1
1.483605703E1,-1.612636745E-1,4.001049399E-1,1.742441803E-1
1.484577057E1,-4.642439261E-2,4.947862774E-2,1.021642014E-1
1.485548328E1,3.298575059E-2,-2.681619525E-1,3.252761811E-2
1.486519682E1,8.796200156E-2,-4.611896873E-1,-1.511846948E-2
1.487491115E1,1.429382563E-1,-5.442649126E-1,-5.054761097E-2
1.488462469E1,2.199050188E-1,-5.467082858E-1,-8.964183182E-2
1.489433740E1,3.335226178E-1,-5.149442554E-1,-1.397313178E-1
1.490405099E1,4.776825607E-1,-5.015056133E-1,-1.910424829E-1
1.491376531E1,6.303943992E-1,-5.222744346E-1,-2.386885732E-1
1.492347886E1,7.769976854E-1,-5.662553906E-1,-2.961082160E-1
1.493319156E1,9.223793745E-1,-6.346703172E-1,-3.914003670E-1
1.494290516E1,1.070204377E0,-7.678350210E-1,-5.392253995E-1
1.495261948E1,1.242463350E0,-9.596410394E-1,-7.175928354E-1
1.496233292E1,1.455038190E0,-1.100135922E0,-8.825215697E-1
1.497204568E1,1.707928896E0,-1.048824787E0,-9.668185115E-1
1.498175927E1,1.987697005E0,-8.167027831E-1,-9.142856598E-1
1.499147360E1,2.206380367E0,-5.051707029E-1,-7.579087615E-1
1.500118714E1,2.178281307E0,-1.068982705E-1,-6.174138784E-1
1.501089984E1,1.761683464E0,3.830012381E-1,-5.929799676E-1
1.502061339E1,1.054322362E0,8.142594099E-1,-6.528429985E-1
1.503032771E1,3.151971996E-1,1.012173891E0,-6.846070886E-1
1.504004125E1,-2.443388999E-1,9.046648145E-1,-6.455128193E-1
1.504975396E1,-5.436540842E-1,5.430431962E-1,-5.343386531E-1
