"Time (s)","Gyroscope x (rad/s)","Gyroscope y (rad/s)","Gyroscope z (rad/s)"
1.837283500E-1,-4.886778072E-3,-2.626643144E-2,1.985253533E-3
1.934418400E-1,-3.665083554E-3,-1.160609815E-2,1.985253533E-3
2.031562670E-1,-4.886778072E-3,5.497625098E-3,7.635590737E-4
2.128697570E-1,-2.443389036E-3,2.626643144E-2,-4.581354442E-4
2.225824650E-1,1.221694518E-3,3.603998944E-2,7.635590737E-4
2.322960590E-1,2.443389036E-3,3.481829539E-2,-4.581354442E-4
2.420103820E-1,3.665083554E-3,2.748812735E-2,1.985253533E-3
2.517238710E-1,2.443389036E-3,1.771457121E-2,1.985253533E-3
2.614366320E-1,-2.443389036E-3,7.941014133E-3,3.206948051E-3
2.711502250E-1,-7.330167107E-3,-6.108472589E-4,3.206948051E-3
2.808645480E-1,-1.221694518E-2,-4.275931045E-3,4.428642802E-3
2.905780380E-1,-1.466033421E-2,-7.941014133E-3,3.206948051E-3
3.002907980E-1,-1.466033421E-2,-7.941014133E-3,3.206948051E-3
3.100043920E-1,-1.221694518E-2,-9.162709117E-3,3.206948051E-3
3.197187150E-1,-7.330167107E-3,-3.054236295E-3,7.635590737E-4
3.294322040E-1,-2.443389036E-3,5.497625098E-3,-4.581354442E-4
3.391449650E-1,2.443389036E-3,1.282779220E-2,-4.581354442E-4
3.488584540E-1,6.108472589E-3,1.527118124E-2,-1.679830020E-3
3.585728290E-1,8.551862091E-3,1.160609815E-2,-2.901524538E-3
3.682863190E-1,7.330167107E-3,6.108472589E-4,-2.901524538E-3
3.779990790E-1,2.443389036E-3,-7.941014133E-3,-4.123218823E-3
3.877126730E-1,-0.000000000E0,-1.893626526E-2,-5.344913341E-3
3.974269960E-1,-3.665083554E-3,-2.993151546E-2,-5.344913341E-3
4.071404860E-1,-8.551862091E-3,-3.848337755E-2,-4.123218823E-3
4.168532460E-1,-1.099525020E-2,-3.970507160E-2,-1.679830020E-3
4.265668400E-1,-1.343864016E-2,-3.481829539E-2,7.635590737E-4
4.362811630E-1,-1.221694518E-2,-2.382304333E-2,-4.581354442E-4
4.459946520E-1,-1.099525020E-2,-9.162709117E-3,-1.679830020E-3
4.557074130E-1,-9.773556143E-3,4.275931045E-3,-4.123218823E-3
4.654210070E-1,-6.108472589E-3,1.527118124E-2,-6.566607859E-3
4.751353290E-1,-1.221694518E-3,1.771457121E-2,-1.023169141E-2
4.848488190E-1,2.443389036E-3,1.771457121E-2,-9.009997360E-3
4.945615790E-1,4.886778072E-3,1.282779220E-2,-7.788302377E-3
5.042751730E-1,4.886778072E-3,9.162709117E-3,-5.344913341E-3
5.139894960E-1,-0.000000000E0,3.054236295E-3,-2.901524538E-3
5.237029860E-1,-4.886778072E-3,-5.497625098E-3,7.635590737E-4
5.334157460E-1,-1.099525020E-2,-1.527118124E-2,3.206948051E-3
5.431293400E-1,-1.710372418E-2,-2.015795931E-2,1.985253533E-3
5.528436630E-1,-2.321219631E-2,-2.015795931E-2,-1.679830020E-3
5.625571520E-1,-2.687728032E-2,-1.282779220E-2,-6.566607859E-3
5.722699130E-1,-2.199050039E-2,-1.832541777E-3,-1.023169141E-2
5.819835070E-1,-1.466033421E-2,4.275931045E-3,-9.009997360E-3
5.916978290E-1,-3.665083554E-3,1.160609815E-2,-6.566607859E-3
6.014113190E-1,6.108472589E-3,1.649287529E-2,-1.679830020E-3
6.111240790E-1,1.221694518E-2,1.649287529E-2,1.985253533E-3
6.208376730E-1,1.221694518E-2,1.404948719E-2,5.650337320E-3
6.305519960E-1,7.330167107E-3,4.275931045E-3,6.872031838E-3
6.402654860E-1,2.443389036E-3,-7.941014133E-3,8.093725890E-3
6.499782460E-1,-4.886778072E-3,-2.260134928E-2,6.872031838E-3
6.596918400E-1,-1.099525020E-2,-2.993151546E-2,5.650337320E-3
6.694061630E-1,-1.099525020E-2,-3.237490356E-2,1.985253533E-3
6.791196520E-1,-7.330167107E-3,-2.748812735E-2,-2.901524538E-3
6.888324130E-1,-2.443389036E-3,-1.893626526E-2,-5.344913341E-3
6.985460070E-1,3.665083554E-3,-1.038440317E-2,-7.788302377E-3
7.082603290E-1,9.773556143E-3,-1.832541777E-3,-7.788302377E-3
7.179738190E-1,9.773556143E-3,4.275931045E-3,-5.344913341E-3
7.276865790E-1,4.886778072E-3,6.719320081E-3,-1.679830020E-3
7.374001730E-1,-1.221694518E-3,9.162709117E-3,7.635590737E-4
7.471144960E-1,-8.551862091E-3,6.719320081E-3,7.635590737E-4
7.568279860E-1,-1.221694518E-2,1.832541777E-3,7.635590737E-4
7.665407460E-1,-1.343864016E-2,-5.497625098E-3,-1.679830020E-3
7.762543400E-1,-1.099525020E-2,-1.160609815E-2,-4.123218823E-3
7.859686630E-1,-4.886778072E-3,-1.282779220E-2,-4.123218823E-3
7.956821520E-1,-0.000000000E0,-1.038440317E-2,-2.901524538E-3
8.053949130E-1,3.665083554E-3,-4.275931045E-3,-1.679830020E-3
8.151085070E-1,3.665083554E-3,-1.832541777E-3,7.635590737E-4
8.248228820E-1,2.443389036E-3,-3.054236295E-3,3.206948051E-3
8.345363710E-1,-1.221694518E-3,-5.497625098E-3,3.206948051E-3
8.442491320E-1,-4.886778072E-3,-9.162709117E-3,1.985253533E-3
8.539627250E-1,-7.330167107E-3,-1.038440317E-2,1.985253533E-3
8.636770480E-1,-7.330167107E-3,-7.941014133E-3,1.985253533E-3
8.733905380E-1,-3.665083554E-3,-1.832541777E-3,-4.581354442E-4
8.831032980E-1,3.665083554E-3,7.941014133E-3,-2.901524538E-3
8.928168920E-1,1.221694518E-2,1.527118124E-2,-4.123218823E-3
9.025312150E-1,1.710372418E-2,2.382304333E-2,-1.679830020E-3
9.122448090E-1,2.076880634E-2,2.748812735E-2,-1.679830020E-3
9.219575170E-1,1.954711229E-2,2.382304333E-2,-4.581354442E-4
9.316711110E-1,1.466033421E-2,1.649287529E-2,3.206948051E-3
9.413854340E-1,6.108472589E-3,9.162709117E-3,5.650337320E-3
9.510989230E-1,-6.108472589E-3,4.275931045E-3,4.428642802E-3
9.608116840E-1,-1.343864016E-2,5.497625098E-3,3.206948051E-3
9.705252770E-1,-1.710372418E-2,4.275931045E-3,1.985253533E-3
9.802396520E-1,-1.710372418E-2,1.832541777E-3,7.635590737E-4
9.899531420E-1,-9.773556143E-3,-3.054236295E-3,-2.901524538E-3
9.996659020E-1,-2.443389036E-3,-7.941014133E-3,-5.344913341E-3
1.009379496E0,3.665083554E-3,-9.162709117E-3,-6.566607859E-3
1.019093819E0,4.886778072E-3,-6.719320081E-3,-6.566607859E-3
1.028807413E0,3.665083554E-3,-6.719320081E-3,-5.344913341E-3
1.038520121E0,-0.000000000E0,-1.282779220E-2,-5.344913341E-3
1.048233715E0,-6.108472589E-3,-1.893626526E-2,-4.123218823E-3
1.057948038E0,-1.343864016E-2,-2.137965336E-2,-2.901524538E-3
1.067661632E0,-1.710372418E-2,-2.137965336E-2,-2.901524538E-3
1.077374340E0,-1.710372418E-2,-2.260134928E-2,-4.581354442E-4
1.087087934E0,-1.343864016E-2,-2.748812735E-2,-4.581354442E-4
1.096802257E0,-9.773556143E-3,-3.970507160E-2,7.635590737E-4
1.106515746E0,-4.886778072E-3,-5.192201585E-2,-2.901524538E-3
1.116228559E0,-2.443389036E-3,-6.169557199E-2,-7.788302377E-3
1.125942152E0,-2.443389036E-3,-6.658235192E-2,-1.145338640E-2
1.135656475E0,-2.443389036E-3,-6.291726977E-2,-1.511846948E-2
1.145370069E0,-2.443389036E-3,-5.070032179E-2,-1.511846948E-2
1.155082777E0,-2.443389036E-3,-3.115320951E-2,-1.756185852E-2
1.164796371E0,-3.665083554E-3,-1.282779220E-2,-1.756185852E-2
1.174510694E0,-4.886778072E-3,1.832541777E-3,-1.634016447E-2
1.184224288E0,-7.330167107E-3,1.038440317E-2,-1.389677543E-2
1.193936996E0,-8.551862091E-3,2.137965336E-2,-1.145338640E-2
1.203650590E0,-8.551862091E-3,2.993151546E-2,-9.009997360E-3
1.213364965E0,-7.330167107E-3,3.359659761E-2,-5.344913341E-3
1.223078454E0,-2.443389036E-3,2.870982140E-2,-2.901524538E-3
1.232791215E0,2.443389036E-3,1.771457121E-2,7.635590737E-4
1.242504861E0,9.773556143E-3,3.054236295E-3,7.635590737E-4
1.252219184E0,1.588202827E-2,-1.160609815E-2,1.985253533E-3
1.261932673E0,2.076880634E-2,-2.015795931E-2,4.428642802E-3
1.271645486E0,2.443389036E-2,-2.260134928E-2,4.428642802E-3
1.281359079E0,2.443389036E-2,-1.527118124E-2,3.206948051E-3
1.291073402E0,2.321219631E-2,-6.108472589E-4,5.650337320E-3
1.300786996E0,1.954711229E-2,2.015795931E-2,5.650337320E-3
1.310499704E0,1.588202827E-2,4.459185153E-2,3.206948051E-3
1.320213298E0,1.221694518E-2,7.024743408E-2,3.206948051E-3
1.329927673E0,1.221694518E-2,9.101624042E-2,1.985253533E-3
1.339641163E0,1.343864016E-2,9.712471068E-2,7.635590737E-4
1.349353975E0,1.343864016E-2,9.223793447E-2,1.985253533E-3
1.359067569E0,1.221694518E-2,7.757759839E-2,7.635590737E-4
1.368781944E0,8.551862091E-3,5.558710173E-2,7.635590737E-4
1.378495434E0,2.443389036E-3,2.870982140E-2,-4.581354442E-4
1.388208194E0,-6.108472589E-3,-6.108472589E-4,-4.123218823E-3
1.397921840E0,-1.343864016E-2,-2.748812735E-2,-7.788302377E-3
1.407636163E0,-1.832541823E-2,-4.825693369E-2,-1.267508045E-2
1.417349757E0,-2.076880634E-2,-5.803048983E-2,-1.511846948E-2
1.427062465E0,-1.954711229E-2,-5.925218388E-2,-1.756185852E-2
1.436776059E0,-1.710372418E-2,-5.192201585E-2,-1.756185852E-2
1.446490434E0,-1.343864016E-2,-4.337015375E-2,-1.511846948E-2
1.456204027E0,-1.099525020E-2,-3.481829539E-2,-1.389677543E-2
1.465916736E0,-1.099525020E-2,-2.993151546E-2,-1.267508045E-2
1.475630329E0,-9.773556143E-3,-2.993151546E-2,-1.145338640E-2
1.485344704E0,-1.099525020E-2,-3.115320951E-2,-1.389677543E-2
1.495058194E0,-1.099525020E-2,-3.237490356E-2,-1.634016447E-2
1.504771007E0,-1.221694518E-2,-3.481829539E-2,-2.122694254E-2
1.514484600E0,-9.773556143E-3,-3.359659761E-2,-2.611372061E-2
1.524198975E0,-8.551862091E-3,-2.626643144E-2,-2.855710872E-2
1.533912465E0,-6.108472589E-3,-1.282779220E-2,-3.100049868E-2
1.543625225E0,-2.443389036E-3,1.832541777E-3,-2.977880463E-2
1.553338871E0,2.443389036E-3,9.162709117E-3,-2.611372061E-2
1.563053246E0,3.665083554E-3,6.719320081E-3,-1.634016447E-2
1.572766736E0,1.221694518E-3,-1.832541777E-3,-1.023169141E-2
1.582479548E0,-4.886778072E-3,-1.282779220E-2,-4.123218823E-3
1.592193142E0,-1.466033421E-2,-2.137965336E-2,-4.581354442E-4
1.601907517E0,-2.321219631E-2,-3.237490356E-2,7.635590737E-4
1.611621007E0,-3.054236248E-2,-4.459185153E-2,-4.581354442E-4
1.621333819E0,-3.054236248E-2,-6.047387794E-2,-4.123218823E-3
1.631047413E0,-2.321219631E-2,-7.269082218E-2,-1.023169141E-2
1.640761788E0,-1.221694518E-2,-7.635590434E-2,-1.511846948E-2
1.650475382E0,-0.000000000E0,-6.780404598E-2,-1.634016447E-2
1.660188090E0,9.773556143E-3,-4.947862774E-2,-1.511846948E-2
1.669901684E0,1.466033421E-2,-2.626643144E-2,-1.145338640E-2
1.679616059E0,1.588202827E-2,-7.941014133E-3,-5.344913341E-3
1.689329652E0,9.773556143E-3,3.054236295E-3,-1.679830020E-3
1.699042361E0,-0.000000000E0,9.162709117E-3,7.635590737E-4
1.708756007E0,-9.773556143E-3,1.160609815E-2,1.985253533E-3
1.718470329E0,-1.588202827E-2,1.160609815E-2,1.985253533E-3
1.728183923E0,-1.710372418E-2,1.160609815E-2,-4.581354442E-4
1.737896632E0,-1.099525020E-2,1.160609815E-2,-1.679830020E-3
1.747610277E0,-0.000000000E0,1.038440317E-2,-2.901524538E-3
1.757324652E0,9.773556143E-3,4.275931045E-3,-2.901524538E-3
1.767038142E0,1.588202827E-2,-4.275931045E-3,-1.679830020E-3
1.776750954E0,1.710372418E-2,-2.015795931E-2,7.635590737E-4
1.786464548E0,1.221694518E-2,-4.337015375E-2,4.428642802E-3
1.796178923E0,4.886778072E-3,-6.413896382E-2,4.428642802E-3
1.805892517E0,-6.108472589E-3,-7.513421029E-2,5.650337320E-3
1.815605225E0,-1.466033421E-2,-7.146912813E-2,5.650337320E-3
1.825318871E0,-2.076880634E-2,-5.192201585E-2,5.650337320E-3
1.835033194E0,-2.199050039E-2,-2.382304333E-2,5.650337320E-3
1.844746788E0,-1.710372418E-2,1.038440317E-2,3.206948051E-3
1.854459496E0,-1.099525020E-2,4.214845970E-2,3.206948051E-3
1.864173142E0,-2.443389036E-3,6.780404598E-2,4.428642802E-3
1.873887517E0,4.886778072E-3,8.490777016E-2,4.428642802E-3
1.883601007E0,8.551862091E-3,8.857285231E-2,5.650337320E-3
1.893313819E0,8.551862091E-3,8.002099395E-2,9.315420873E-3
1.903027413E0,6.108472589E-3,5.925218388E-2,1.175880991E-2
1.912741788E0,3.665083554E-3,2.626643144E-2,1.420219894E-2
1.922455382E0,1.221694518E-3,-1.038440317E-2,1.298050396E-2
1.932168090E0,1.221694518E-3,-4.703523964E-2,9.315420873E-3
1.941881736E0,1.221694518E-3,-7.391251624E-2,5.650337320E-3
1.951596111E0,3.665083554E-3,-8.612946421E-2,4.428642802E-3
1.961309600E0,7.330167107E-3,-8.490777016E-2,4.428642802E-3
1.971022413E0,1.099525020E-2,-7.146912813E-2,5.650337320E-3
1.980736007E0,1.588202827E-2,-4.825693369E-2,8.093725890E-3
1.990450382E0,1.710372418E-2,-2.015795931E-2,9.315420873E-3
2.000163975E0,1.466033421E-2,9.162709117E-3,1.053711493E-2
2.009876684E0,1.099525020E-2,3.481829539E-2,9.315420873E-3
2.019590329E0,4.886778072E-3,5.314370990E-2,5.650337320E-3
2.029304704E0,2.443389036E-3,6.047387794E-2,7.635590737E-4
2.039018194E0,-0.000000000E0,6.047387794E-2,-2.901524538E-3
2.048731007E0,2.443389036E-3,4.947862774E-2,-6.566607859E-3
2.058444600E0,2.443389036E-3,3.481829539E-2,-1.023169141E-2
2.068158975E0,3.665083554E-3,1.404948719E-2,-1.267508045E-2
2.077872569E0,7.330167107E-3,-6.719320081E-3,-1.023169141E-2
2.087585277E0,9.773556143E-3,-2.626643144E-2,-6.566607859E-3
2.097298923E0,8.551862091E-3,-3.603998944E-2,-2.901524538E-3
2.107013298E0,7.330167107E-3,-3.848337755E-2,7.635590737E-4
2.116726788E0,6.108472589E-3,-3.359659761E-2,5.650337320E-3
2.126439600E0,4.886778072E-3,-2.382304333E-2,6.872031838E-3
2.136153194E0,6.108472589E-3,-1.404948719E-2,6.872031838E-3
2.145867569E0,9.773556143E-3,-6.108472589E-4,5.650337320E-3
2.155581163E0,9.773556143E-3,9.162709117E-3,4.428642802E-3
2.165293871E0,1.099525020E-2,1.649287529E-2,-4.581354442E-4
2.175007517E0,9.773556143E-3,1.771457121E-2,-4.123218823E-3
2.184721892E0,7.330167107E-3,1.160609815E-2,-9.009997360E-3
2.194435382E0,3.665083554E-3,-1.832541777E-3,-1.389677543E-2
2.204148194E0,-1.221694518E-3,-1.893626526E-2,-1.634016447E-2
2.213861788E0,-6.108472589E-3,-3.603998944E-2,-1.878355257E-2
2.223576163E0,-9.773556143E-3,-4.825693369E-2,-1.511846948E-2
2.233289757E0,-9.773556143E-3,-5.314370990E-2,-1.267508045E-2
2.243002465E0,-1.099525020E-2,-5.070032179E-2,-7.788302377E-3
2.252716111E0,-7.330167107E-3,-4.337015375E-2,-4.123218823E-3
2.262430486E0,-2.443389036E-3,-3.481829539E-2,7.635590737E-4
2.272143975E0,2.443389036E-3,-2.504473738E-2,5.650337320E-3
2.281856788E0,4.886778072E-3,-1.649287529E-2,1.053711493E-2
2.291570434E0,2.443389036E-3,-5.497625098E-3,1.175880991E-2
2.301284757E0,-1.221694518E-3,9.162709117E-3,1.053711493E-2
2.310998350E0,-4.886778072E-3,2.504473738E-2,8.093725890E-3
2.320711059E0,-4.886778072E-3,3.603998944E-2,5.650337320E-3
2.330424704E0,-0.000000000E0,4.092676565E-2,-4.581354442E-4
2.340139079E0,6.108472589E-3,4.092676565E-2,-5.344913341E-3
2.349852673E0,1.466033421E-2,3.481829539E-2,-5.344913341E-3
2.359565382E0,1.954711229E-2,2.015795931E-2,-4.123218823E-3
2.369279027E0,1.954711229E-2,1.832541777E-3,-1.679830020E-3
2.378993350E0,1.588202827E-2,-1.404948719E-2,-4.581354442E-4
2.388706944E0,8.551862091E-3,-2.993151546E-2,1.985253533E-3
2.398419704E0,2.443389036E-3,-4.092676565E-2,1.985253533E-3
2.408133298E0,-0.000000000E0,-4.459185153E-2,5.650337320E-3
2.417847673E0,-2.443389036E-3,-3.848337755E-2,8.093725890E-3
2.427561267E0,-2.443389036E-3,-2.260134928E-2,8.093725890E-3
2.437273975E0,-4.886778072E-3,-4.275931045E-3,8.093725890E-3
2.446987621E0,-8.551862091E-3,1.771457121E-2,6.872031838E-3
2.456701944E0,-1.099525020E-2,3.848337755E-2,4.428642802E-3
2.466415538E0,-1.343864016E-2,5.558710173E-2,3.206948051E-3
2.476128298E0,-1.466033421E-2,7.024743408E-2,4.428642802E-3
2.485841892E0,-1.466033421E-2,8.246438205E-2,4.428642802E-3
2.495556267E0,-1.343864016E-2,8.735115826E-2,5.650337320E-3
2.505269861E0,-7.330167107E-3,8.246438205E-2,5.650337320E-3
2.514982569E0,2.443389036E-3,6.291726977E-2,4.428642802E-3
2.524696215E0,1.466033421E-2,3.237490356E-2,3.206948051E-3
2.534410538E0,2.932066843E-2,-6.719320081E-3,7.635590737E-4
2.544124132E0,3.909422457E-2,-4.581354558E-2,-4.581354442E-4
2.553836892E0,4.398100078E-2,-7.269082218E-2,7.635590737E-4
2.563550486E0,4.520269856E-2,-8.857285231E-2,5.650337320E-3
2.573264861E0,4.153761268E-2,-9.590301663E-2,1.053711493E-2
2.582978454E0,3.054236248E-2,-9.468132257E-2,1.664558798E-2
2.592691163E0,1.343864016E-2,-8.124268800E-2,1.908897609E-2
2.602404809E0,-6.108472589E-3,-5.314370990E-2,1.908897609E-2
2.612119132E0,-2.565558441E-2,-1.404948719E-2,1.542389300E-2
2.621832725E0,-4.031591862E-2,2.993151546E-2,9.315420873E-3
2.631545486E0,-4.642439261E-2,6.902574003E-2,1.985253533E-3
2.641259079E0,-4.275930673E-2,9.956810623E-2,-7.788302377E-3
2.650973454E0,-3.176405653E-2,1.178935245E-1,-1.511846948E-2
2.660687048E0,-1.832541823E-2,1.264453828E-1,-2.000524849E-2
2.670399757E0,-3.665083554E-3,1.252236813E-1,-2.000524849E-2
2.680113402E0,8.551862091E-3,1.093416587E-1,-1.634016447E-2
2.689827777E0,1.466033421E-2,8.124268800E-2,-1.023169141E-2
2.699541267E0,1.466033421E-2,4.459185153E-2,-1.679830020E-3
2.709254079E0,9.773556143E-3,3.054236295E-3,5.650337320E-3
2.718967673E0,2.443389036E-3,-3.726168349E-2,1.175880991E-2
2.728682048E0,-6.108472589E-3,-7.269082218E-2,1.420219894E-2
2.738395642E0,-1.343864016E-2,-9.956810623E-2,1.420219894E-2
2.748108350E0,-1.466033421E-2,-1.093416587E-1,1.053711493E-2
2.757821996E0,-1.221694518E-2,-1.007898003E-1,5.650337320E-3
2.767536319E0,-6.108472589E-3,-7.635590434E-2,-4.581354442E-4
2.777249913E0,2.443389036E-3,-3.848337755E-2,-4.123218823E-3
2.786962673E0,1.343864016E-2,6.108472589E-4,-6.566607859E-3
2.796676267E0,2.321219631E-2,3.481829539E-2,-7.788302377E-3
2.806390642E0,2.565558441E-2,5.192201585E-2,-7.788302377E-3
2.816104236E0,2.809897438E-2,5.314370990E-2,-7.788302377E-3
2.825816944E0,2.321219631E-2,3.970507160E-2,-5.344913341E-3
2.835530590E0,1.466033421E-2,1.649287529E-2,-4.581354442E-4
2.845244913E0,2.443389036E-3,-5.497625098E-3,1.985253533E-3
2.854958507E0,-8.551862091E-3,-1.771457121E-2,6.872031838E-3
2.864671215E0,-1.832541823E-2,-2.382304333E-2,8.093725890E-3
2.874384861E0,-2.199050039E-2,-2.748812735E-2,5.650337320E-3
2.884099236E0,-2.076880634E-2,-2.748812735E-2,4.428642802E-3
2.893812725E0,-1.588202827E-2,-2.626643144E-2,1.985253533E-3
2.903525538E0,-7.330167107E-3,-2.260134928E-2,-1.679830020E-3
2.913239184E0,2.443389036E-3,-2.015795931E-2,-5.344913341E-3
2.922953507E0,8.551862091E-3,-2.137965336E-2,-7.788302377E-3
2.932667100E0,8.551862091E-3,-2.137965336E-2,-9.009997360E-3
2.942379809E0,6.108472589E-3,-2.015795931E-2,-1.145338640E-2
2.952093454E0,-0.000000000E0,-1.404948719E-2,-7.788302377E-3
2.961807829E0,-8.551862091E-3,-5.497625098E-3,-4.123218823E-3
2.971521319E0,-1.832541823E-2,6.108472589E-4,-1.679830020E-3
2.981234132E0,-2.565558441E-2,6.719320081E-3,1.985253533E-3
2.990947725E0,-2.809897438E-2,1.160609815E-2,4.428642802E-3
3.000662100E0,-2.565558441E-2,1.649287529E-2,5.650337320E-3
3.010375694E0,-1.832541823E-2,2.382304333E-2,8.093725890E-3
3.020088402E0,-1.099525020E-2,3.359659761E-2,9.315420873E-3
3.029802048E0,-3.665083554E-3,4.092676565E-2,9.315420873E-3
3.039516371E0,6.108472589E-3,4.214845970E-2,6.872031838E-3
3.049229965E0,1.343864016E-2,3.237490356E-2,5.650337320E-3
3.058942725E0,1.954711229E-2,1.160609815E-2,1.985253533E-3
3.068656319E0,2.443389036E-2,-1.404948719E-2,-4.581354442E-4
3.078370694E0,2.565558441E-2,-3.726168349E-2,-2.901524538E-3
3.088084184E0,2.687728032E-2,-4.947862774E-2,-5.344913341E-3
3.097796996E0,2.565558441E-2,-4.825693369E-2,-5.344913341E-3
3.107510642E0,2.443389036E-2,-3.726168349E-2,-2.901524538E-3
3.117224965E0,2.199050039E-2,-1.893626526E-2,-4.581354442E-4
3.126938559E0,1.832541823E-2,3.054236295E-3,4.428642802E-3
3.136651267E0,1.221694518E-2,2.504473738E-2,9.315420873E-3
3.146364913E0,2.443389036E-3,4.581354558E-2,1.053711493E-2
3.156079288E0,-7.330167107E-3,6.047387794E-2,1.053711493E-2
3.165792777E0,-1.710372418E-2,7.024743408E-2,8.093725890E-3
3.175505590E0,-2.321219631E-2,7.269082218E-2,4.428642802E-3
3.185219184E0,-2.443389036E-2,7.024743408E-2,7.635590737E-4
3.194933559E0,-2.199050039E-2,6.047387794E-2,-2.901524538E-3
3.204647152E0,-1.221694518E-2,4.459185153E-2,-5.344913341E-3
3.214359861E0,-0.000000000E0,2.260134928E-2,-6.566607859E-3
3.224073507E0,1.099525020E-2,-7.941014133E-3,-5.344913341E-3
3.233787829E0,2.076880634E-2,-3.726168349E-2,-2.901524538E-3
3.243501423E0,2.199050039E-2,-6.291726977E-2,-4.581354442E-4
3.253214132E0,1.710372418E-2,-7.879929990E-2,3.206948051E-3
3.262927777E0,6.108472589E-3,-8.368607610E-2,4.428642802E-3
3.272642152E0,-6.108472589E-3,-7.757759839E-2,4.428642802E-3
3.282355642E0,-1.466033421E-2,-6.047387794E-2,5.650337320E-3
3.292068454E0,-1.832541823E-2,-3.726168349E-2,4.428642802E-3
3.301782048E0,-1.343864016E-2,-9.162709117E-3,1.985253533E-3
3.311496423E0,-4.886778072E-3,1.771457121E-2,1.985253533E-3
3.321210017E0,7.330167107E-3,4.214845970E-2,1.985253533E-3
3.330922725E0,1.588202827E-2,5.680879578E-2,1.985253533E-3
3.340636319E0,2.076880634E-2,6.047387794E-2,1.985253533E-3
3.350350694E0,2.199050039E-2,5.436540768E-2,1.985253533E-3
3.360064288E0,1.832541823E-2,4.092676565E-2,7.635590737E-4
3.369776996E0,1.099525020E-2,2.748812735E-2,7.635590737E-4
3.379490642E0,4.886778072E-3,1.282779220E-2,-1.679830020E-3
3.389205017E0,1.221694518E-3,-1.832541777E-3,-4.581354442E-4
3.398918507E0,1.221694518E-3,-1.527118124E-2,-1.679830020E-3
3.408631319E0,3.665083554E-3,-2.626643144E-2,-1.679830020E-3
3.418344913E0,6.108472589E-3,-3.359659761E-2,-1.679830020E-3
3.428059288E0,7.330167107E-3,-3.481829539E-2,-2.901524538E-3
3.437772777E0,8.551862091E-3,-2.993151546E-2,-1.679830020E-3
3.447485590E0,7.330167107E-3,-1.771457121E-2,-1.679830020E-3
3.457199184E0,6.108472589E-3,-6.108472589E-4,1.985253533E-3
3.466913559E0,7.330167107E-3,1.771457121E-2,6.872031838E-3
3.476627152E0,8.551862091E-3,3.237490356E-2,9.315420873E-3
3.486339861E0,8.551862091E-3,4.703523964E-2,1.175880991E-2
3.496053507E0,7.330167107E-3,5.925218388E-2,1.175880991E-2
3.505767829E0,8.551862091E-3,6.658235192E-2,1.053711493E-2
3.515481423E0,1.221694518E-2,6.536065787E-2,9.315420873E-3
3.525194132E0,1.710372418E-2,5.436540768E-2,8.093725890E-3
3.534907777E0,2.076880634E-2,3.603998944E-2,4.428642802E-3
3.544622100E0,2.199050039E-2,1.404948719E-2,3.206948051E-3
3.554335694E0,2.199050039E-2,-6.719320081E-3,3.206948051E-3
3.564048402E0,2.199050039E-2,-2.748812735E-2,3.206948051E-3
3.573762048E0,1.954711229E-2,-4.459185153E-2,4.428642802E-3
3.583476423E0,1.466033421E-2,-5.436540768E-2,4.428642802E-3
3.593189913E0,9.773556143E-3,-5.314370990E-2,5.650337320E-3
3.602902725E0,1.221694518E-3,-4.214845970E-2,4.428642802E-3
3.612616319E0,-3.665083554E-3,-2.137965336E-2,3.206948051E-3
3.622330694E0,-8.551862091E-3,5.497625098E-3,7.635590737E-4
3.632044184E0,-8.551862091E-3,3.726168349E-2,-4.581354442E-4
3.641756996E0,-7.330167107E-3,6.536065787E-2,-1.679830020E-3
3.651470590E0,-3.665083554E-3,8.368607610E-2,-4.123218823E-3
3.661184965E0,2.443389036E-3,8.979454637E-2,-5.344913341E-3
3.670898559E0,4.886778072E-3,8.368607610E-2,-5.344913341E-3
3.680611267E0,4.886778072E-3,7.269082218E-2,-2.901524538E-3
3.690324913E0,2.443389036E-3,5.803048983E-2,-1.679830020E-3
3.700039236E0,1.221694518E-3,3.970507160E-2,7.635590737E-4
3.709752829E0,1.221694518E-3,1.893626526E-2,4.428642802E-3
3.719465538E0,4.886778072E-3,-4.275931045E-3,6.872031838E-3
3.729179184E0,9.773556143E-3,-2.626643144E-2,8.093725890E-3
3.738893507E0,1.221694518E-2,-4.337015375E-2,8.093725890E-3
3.748607100E0,1.221694518E-2,-5.192201585E-2,8.093725890E-3
3.758319809E0,1.099525020E-2,-5.070032179E-2,5.650337320E-3
3.768033454E0,9.773556143E-3,-4.092676565E-2,3.206948051E-3
3.777747829E0,7.330167107E-3,-2.137965336E-2,3.206948051E-3
3.787461319E0,6.108472589E-3,-6.108472589E-4,7.635590737E-4
3.797174079E0,3.665083554E-3,1.771457121E-2,7.635590737E-4
3.806887725E0,6.108472589E-3,2.870982140E-2,-4.581354442E-4
3.816602048E0,7.330167107E-3,2.993151546E-2,-2.901524538E-3
3.826315642E0,7.330167107E-3,2.748812735E-2,-4.123218823E-3
3.836028350E0,3.665083554E-3,2.382304333E-2,-2.901524538E-3
3.845741996E0,-0.000000000E0,1.893626526E-2,7.635590737E-4
3.855456371E0,-4.886778072E-3,1.404948719E-2,3.206948051E-3
3.865169861E0,-8.551862091E-3,5.497625098E-3,3.206948051E-3
3.874882621E0,-9.773556143E-3,-3.054236295E-3,4.428642802E-3
3.884596267E0,-8.551862091E-3,-9.162709117E-3,5.650337320E-3
3.894310642E0,-3.665083554E-3,-1.649287529E-2,4.428642802E-3
3.904024132E0,1.221694518E-3,-2.137965336E-2,1.985253533E-3
3.913736892E0,2.443389036E-3,-2.504473738E-2,-4.581354442E-4
3.923450538E0,2.443389036E-3,-2.382304333E-2,-1.679830020E-3
3.933164913E0,-0.000000000E0,-1.649287529E-2,-2.901524538E-3
3.942878402E0,-2.443389036E-3,-4.275931045E-3,-2.901524538E-3
3.952591163E0,-4.886778072E-3,6.719320081E-3,-1.679830020E-3
3.962304809E0,-6.108472589E-3,1.160609815E-2,-4.581354442E-4
3.972019184E0,-6.108472589E-3,1.282779220E-2,-1.679830020E-3
3.981732673E0,-4.886778072E-3,1.282779220E-2,-4.581354442E-4
3.991445486E0,-0.000000000E0,1.404948719E-2,1.985253533E-3
4.001159079E0,3.665083554E-3,1.649287529E-2,3.206948051E-3
4.010873454E0,6.108472589E-3,1.771457121E-2,5.650337320E-3
4.020586944E0,4.886778072E-3,1.649287529E-2,8.093725890E-3
4.030299704E0,6.108472589E-3,1.038440317E-2,9.315420873E-3
4.040013350E0,6.108472589E-3,-4.275931045E-3,1.175880991E-2
4.049727725E0,4.886778072E-3,-2.015795931E-2,1.053711493E-2
4.059441215E0,1.221694518E-3,-2.870982140E-2,9.315420873E-3
4.069153975E0,-1.221694518E-3,-2.993151546E-2,8.093725890E-3
4.078867621E0,-3.665083554E-3,-2.015795931E-2,5.650337320E-3
4.088581996E0,-6.108472589E-3,-1.832541777E-3,3.206948051E-3
4.098295486E0,-4.886778072E-3,2.015795931E-2,1.985253533E-3
4.108008246E0,-0.000000000E0,4.092676565E-2,-4.581354442E-4
4.117721892E0,6.108472589E-3,5.436540768E-2,-4.581354442E-4
4.127436267E0,1.221694518E-2,5.925218388E-2,-4.581354442E-4
4.137149757E0,1.710372418E-2,5.192201585E-2,-1.679830020E-3
4.146862517E0,1.710372418E-2,3.603998944E-2,-4.581354442E-4
4.156576163E0,9.773556143E-3,1.404948719E-2,7.635590737E-4
4.166290486E0,-0.000000000E0,-5.497625098E-3,3.206948051E-3
4.176004079E0,-1.099525020E-2,-2.137965336E-2,3.206948051E-3
4.185716788E0,-2.199050039E-2,-3.115320951E-2,3.206948051E-3
4.195430434E0,-2.932066843E-2,-3.237490356E-2,1.985253533E-3
4.205144757E0,-3.054236248E-2,-2.626643144E-2,1.985253533E-3
4.214858350E0,-3.054236248E-2,-1.282779220E-2,1.985253533E-3
4.224571059E0,-2.687728032E-2,4.275931045E-3,7.635590737E-4
4.234284704E0,-1.954711229E-2,2.504473738E-2,3.206948051E-3
4.243999027E0,-1.343864016E-2,4.092676565E-2,6.872031838E-3
4.253712621E0,-6.108472589E-3,5.192201585E-2,1.053711493E-2
4.263425329E0,-1.221694518E-3,5.436540768E-2,1.420219894E-2
4.273138975E0,1.221694518E-3,4.947862774E-2,1.786728203E-2
4.282853298E0,3.665083554E-3,3.848337755E-2,1.786728203E-2
4.292566892E0,4.886778072E-3,1.893626526E-2,1.542389300E-2
4.302279600E0,7.330167107E-3,6.108472589E-4,1.175880991E-2
4.311993246E0,7.330167107E-3,-1.160609815E-2,4.428642802E-3
4.321707569E0,7.330167107E-3,-1.527118124E-2,-1.679830020E-3
4.331421163E0,9.773556143E-3,-9.162709117E-3,-4.123218823E-3
4.341133871E0,9.773556143E-3,5.497625098E-3,-4.123218823E-3
4.350847517E0,9.773556143E-3,2.382304333E-2,-1.679830020E-3
4.360561840E0,6.108472589E-3,4.214845970E-2,7.635590737E-4
4.370275434E0,2.443389036E-3,5.070032179E-2,1.985253533E-3
4.379988142E0,-0.000000000E0,4.825693369E-2,5.650337320E-3
4.389701788E0,-2.443389036E-3,3.848337755E-2,9.315420873E-3
4.399416111E0,-3.665083554E-3,3.115320951E-2,9.315420873E-3
4.409129704E0,-1.221694518E-3,2.993151546E-2,8.093725890E-3
4.418842413E0,3.665083554E-3,3.359659761E-2,4.428642802E-3
4.428556059E0,7.330167107E-3,3.848337755E-2,3.206948051E-3
4.438270382E0,9.773556143E-3,4.337015375E-2,1.985253533E-3
4.447983975E0,9.773556143E-3,4.703523964E-2,1.985253533E-3
4.457696684E0,6.108472589E-3,4.214845970E-2,-4.581354442E-4
4.467410329E0,-0.000000000E0,3.115320951E-2,-1.679830020E-3
4.477124652E0,-8.551862091E-3,1.527118124E-2,-2.901524538E-3
4.486838246E0,-1.710372418E-2,-1.832541777E-3,-5.344913341E-3
4.496550954E0,-2.199050039E-2,-1.527118124E-2,-6.566607859E-3
4.506264600E0,-2.199050039E-2,-2.626643144E-2,-6.566607859E-3
4.515978923E0,-1.588202827E-2,-3.481829539E-2,-4.123218823E-3
4.525692517E0,-7.330167107E-3,-3.848337755E-2,-4.123218823E-3
4.535405225E0,2.443389036E-3,-3.848337755E-2,-4.123218823E-3
4.545118871E0,9.773556143E-3,-3.848337755E-2,-1.679830020E-3
4.554833194E0,1.221694518E-2,-3.237490356E-2,1.985253533E-3
4.564546788E0,9.773556143E-3,-1.893626526E-2,5.650337320E-3
4.574259496E0,3.665083554E-3,6.108472589E-4,8.093725890E-3
4.583973142E0,-3.665083554E-3,2.137965336E-2,1.053711493E-2
4.593687465E0,-9.773556143E-3,3.726168349E-2,1.175880991E-2
4.603401059E0,-1.343864016E-2,4.459185153E-2,1.298050396E-2
4.613113767E0,-1.221694518E-2,4.459185153E-2,1.053711493E-2
4.622827413E0,-8.551862091E-3,3.726168349E-2,8.093725890E-3
4.632541736E0,-1.221694518E-3,2.626643144E-2,4.428642802E-3
4.642255329E0,7.330167107E-3,7.941014133E-3,1.985253533E-3
4.651968038E0,1.466033421E-2,-1.038440317E-2,7.635590737E-4
4.661681684E0,2.321219631E-2,-2.870982140E-2,7.635590737E-4
4.671396007E0,2.687728032E-2,-3.848337755E-2,-4.581354442E-4
4.681109600E0,2.443389036E-2,-4.092676565E-2,-1.679830020E-3
4.690822309E0,1.710372418E-2,-3.359659761E-2,-2.901524538E-3
4.700535954E0,7.330167107E-3,-1.649287529E-2,-4.581354442E-4
4.710250277E0,-1.221694518E-3,3.054236295E-3,7.635590737E-4
4.719963871E0,-6.108472589E-3,1.893626526E-2,5.650337320E-3
4.729676579E0,-8.551862091E-3,2.382304333E-2,8.093725890E-3
4.739390225E0,-8.551862091E-3,2.870982140E-2,9.315420873E-3
4.749104548E0,-6.108472589E-3,3.481829539E-2,8.093725890E-3
4.758818142E0,-3.665083554E-3,4.337015375E-2,5.650337320E-3
4.768530850E0,2.443389036E-3,5.314370990E-2,5.650337320E-3
4.778244496E0,9.773556143E-3,5.925218388E-2,4.428642802E-3
4.787958819E0,1.588202827E-2,5.925218388E-2,5.650337320E-3
4.797672413E0,2.076880634E-2,4.581354558E-2,5.650337320E-3
4.807385173E0,2.199050039E-2,2.260134928E-2,1.985253533E-3
4.817098767E0,1.710372418E-2,-4.275931045E-3,-2.901524538E-3
4.826813142E0,1.099525020E-2,-2.748812735E-2,-6.566607859E-3
4.836526632E0,2.443389036E-3,-4.581354558E-2,-9.009997360E-3
4.846239444E0,-3.665083554E-3,-6.047387794E-2,-1.023169141E-2
4.855953038E0,-6.108472589E-3,-6.780404598E-2,-6.566607859E-3
4.865667413E0,-4.886778072E-3,-6.413896382E-2,-2.901524538E-3
4.875380902E0,-2.443389036E-3,-5.192201585E-2,7.635590737E-4
4.885093715E0,-0.000000000E0,-2.993151546E-2,4.428642802E-3
4.894807309E0,2.443389036E-3,-7.941014133E-3,5.650337320E-3
4.904521684E0,3.665083554E-3,9.162709117E-3,6.872031838E-3
4.914235173E0,3.665083554E-3,1.893626526E-2,4.428642802E-3
4.923947986E0,4.886778072E-3,2.626643144E-2,1.985253533E-3
4.933661579E0,4.886778072E-3,3.115320951E-2,1.985253533E-3
4.943375954E0,7.330167107E-3,2.993151546E-2,-4.581354442E-4
4.953089548E0,9.773556143E-3,2.748812735E-2,7.635590737E-4
4.962802257E0,1.099525020E-2,2.260134928E-2,3.206948051E-3
4.972515850E0,1.221694518E-2,1.893626526E-2,4.428642802E-3
4.982230225E0,1.099525020E-2,1.649287529E-2,8.093725890E-3
4.991943819E0,1.099525020E-2,1.038440317E-2,1.175880991E-2
5.001656527E0,1.099525020E-2,6.719320081E-3,1.420219894E-2
5.011370173E0,1.221694518E-2,4.275931045E-3,1.542389300E-2
5.021084496E0,1.221694518E-2,3.054236295E-3,1.298050396E-2
5.030798090E0,1.588202827E-2,5.497625098E-3,5.650337320E-3
5.040510798E0,1.954711229E-2,1.282779220E-2,-1.679830020E-3
5.050224444E0,1.954711229E-2,2.382304333E-2,-9.009997360E-3
5.059938819E0,1.954711229E-2,3.115320951E-2,-1.389677543E-2
5.069652309E0,1.832541823E-2,3.359659761E-2,-1.145338640E-2
5.079365121E0,1.710372418E-2,3.115320951E-2,-5.344913341E-3
5.089078715E0,1.343864016E-2,2.626643144E-2,3.206948051E-3
5.098793090E0,8.551862091E-3,2.015795931E-2,1.175880991E-2
5.108506579E0,2.443389036E-3,1.771457121E-2,1.786728203E-2
5.118219392E0,-2.443389036E-3,1.404948719E-2,2.031067200E-2
5.127932986E0,-2.443389036E-3,5.497625098E-3,2.031067200E-2
5.137647361E0,-0.000000000E0,-6.719320081E-3,1.786728203E-2
5.147360954E0,6.108472589E-3,-1.893626526E-2,1.420219894E-2
5.157073663E0,1.099525020E-2,-2.626643144E-2,6.872031838E-3
5.166787309E0,1.343864016E-2,-2.504473738E-2,1.985253533E-3
5.176501632E0,1.343864016E-2,-1.771457121E-2,-5.344913341E-3
5.186215225E0,1.221694518E-2,-4.275931045E-3,-1.023169141E-2
5.195927934E0,1.466033421E-2,7.941014133E-3,-1.389677543E-2
5.205641579E0,1.710372418E-2,1.160609815E-2,-1.389677543E-2
5.215355902E0,1.954711229E-2,4.275931045E-3,-1.145338640E-2
5.225069496E0,1.832541823E-2,-9.162709117E-3,-6.566607859E-3
5.234782204E0,1.466033421E-2,-2.382304333E-2,-4.581354442E-4
5.244495850E0,6.108472589E-3,-3.359659761E-2,4.428642802E-3
5.254210225E0,-1.221694518E-3,-3.359659761E-2,6.872031838E-3
5.263923715E0,-7.330167107E-3,-2.626643144E-2,9.315420873E-3
5.273636527E0,-9.773556143E-3,-1.771457121E-2,8.093725890E-3
5.283350121E0,-7.330167107E-3,-1.038440317E-2,5.650337320E-3
5.293064496E0,-2.443389036E-3,-4.275931045E-3,4.428642802E-3
5.302777986E0,6.108472589E-3,3.054236295E-3,7.635590737E-4
5.312490798E0,1.099525020E-2,1.038440317E-2,-1.679830020E-3
5.322204392E0,1.343864016E-2,1.893626526E-2,-4.581354442E-4
5.331918767E0,1.099525020E-2,2.626643144E-2,-4.581354442E-4
5.341632361E0,7.330167107E-3,3.115320951E-2,-1.679830020E-3
5.351345069E0,3.665083554E-3,2.993151546E-2,7.635590737E-4
5.361058715E0,-0.000000000E0,2.137965336E-2,3.206948051E-3
5.370773038E0,-2.443389036E-3,1.404948719E-2,5.650337320E-3
5.380486632E0,-4.886778072E-3,9.162709117E-3,8.093725890E-3
5.390199340E0,-4.886778072E-3,1.160609815E-2,1.053711493E-2
5.399912986E0,-4.886778072E-3,1.527118124E-2,1.053711493E-2
5.409627361E0,-1.221694518E-3,1.893626526E-2,8.093725890E-3
5.419340850E0,2.443389036E-3,1.527118124E-2,8.093725890E-3
5.429053611E0,8.551862091E-3,9.162709117E-3,6.872031838E-3
5.438767257E0,1.099525020E-2,3.054236295E-3,5.650337320E-3
5.448481632E0,9.773556143E-3,-6.108472589E-4,3.206948051E-3
5.458195121E0,8.551862091E-3,-4.275931045E-3,1.985253533E-3
5.467907934E0,4.886778072E-3,-6.719320081E-3,1.985253533E-3
5.477621527E0,-0.000000000E0,-7.941014133E-3,7.635590737E-4
5.487335902E0,-2.443389036E-3,-7.941014133E-3,-4.581354442E-4
5.497049392E0,-3.665083554E-3,-7.941014133E-3,7.635590737E-4
5.506762204E0,-2.443389036E-3,-6.719320081E-3,7.635590737E-4
5.516475798E0,1.221694518E-3,-5.497625098E-3,1.985253533E-3
5.526190173E0,3.665083554E-3,-1.832541777E-3,4.428642802E-3
5.535903767E0,4.886778072E-3,3.054236295E-3,6.872031838E-3
5.545616475E0,2.443389036E-3,1.404948719E-2,6.872031838E-3
5.555330121E0,-1.221694518E-3,2.137965336E-2,4.428642802E-3
5.565044444E0,-4.886778072E-3,2.382304333E-2,4.428642802E-3
5.574758038E0,-6.108472589E-3,1.771457121E-2,1.985253533E-3
5.584470746E0,-4.886778072E-3,9.162709117E-3,1.985253533E-3
5.594184392E0,-0.000000000E0,4.275931045E-3,1.985253533E-3
5.603898715E0,4.886778072E-3,1.832541777E-3,1.985253533E-3
5.613612309E0,8.551862091E-3,3.054236295E-3,1.985253533E-3
5.623325017E0,1.221694518E-2,5.497625098E-3,4.428642802E-3
5.633038663E0,1.343864016E-2,5.497625098E-3,4.428642802E-3
5.642753038E0,1.099525020E-2,1.832541777E-3,5.650337320E-3
5.652466527E0,7.330167107E-3,-5.497625098E-3,4.428642802E-3
5.662179288E0,2.443389036E-3,-1.771457121E-2,4.428642802E-3
5.671892934E0,-2.443389036E-3,-2.748812735E-2,1.985253533E-3
5.681607309E0,-6.108472589E-3,-3.115320951E-2,-1.679830020E-3
5.691320798E0,-7.330167107E-3,-2.504473738E-2,-1.679830020E-3
5.701033611E0,-8.551862091E-3,-1.893626526E-2,-5.344913341E-3
5.710747204E0,-7.330167107E-3,-1.404948719E-2,-4.123218823E-3
5.720461579E0,-3.665083554E-3,-1.160609815E-2,-2.901524538E-3
5.730175069E0,-3.665083554E-3,-5.497625098E-3,-1.679830020E-3
5.739887882E0,-4.886778072E-3,5.497625098E-3,7.635590737E-4
5.749601475E0,-6.108472589E-3,1.893626526E-2,1.985253533E-3
5.759315850E0,-7.330167107E-3,2.626643144E-2,3.206948051E-3
5.769029340E0,-7.330167107E-3,2.504473738E-2,3.206948051E-3
5.778742152E0,-6.108472589E-3,1.527118124E-2,1.985253533E-3
5.788455746E0,-6.108472589E-3,3.054236295E-3,1.985253533E-3
5.798170121E0,-7.330167107E-3,-6.719320081E-3,1.985253533E-3
5.807883611E0,-4.886778072E-3,-1.160609815E-2,-4.581354442E-4
5.817596423E0,-2.443389036E-3,-1.282779220E-2,-4.581354442E-4
5.827310017E0,1.221694518E-3,-1.404948719E-2,-4.581354442E-4
5.837024392E0,4.886778072E-3,-1.527118124E-2,7.635590737E-4
5.846737986E0,8.551862091E-3,-2.137965336E-2,1.985253533E-3
5.856450694E0,9.773556143E-3,-2.748812735E-2,4.428642802E-3
5.866164288E0,7.330167107E-3,-2.870982140E-2,8.093725890E-3
5.875878663E0,2.443389036E-3,-2.015795931E-2,1.298050396E-2
5.885592257E0,-2.443389036E-3,-3.054236295E-3,1.420219894E-2
5.895304965E0,-8.551862091E-3,1.893626526E-2,1.420219894E-2
5.905018559E0,-8.551862091E-3,3.726168349E-2,1.298050396E-2
5.914732934E0,-3.665083554E-3,4.703523964E-2,1.053711493E-2
5.924446527E0,3.665083554E-3,4.825693369E-2,6.872031838E-3
5.934159236E0,1.221694518E-2,3.970507160E-2,1.985253533E-3
5.943872882E0,1.954711229E-2,2.748812735E-2,-1.679830020E-3
5.953587204E0,2.199050039E-2,1.404948719E-2,-4.123218823E-3
5.963300798E0,2.076880634E-2,1.832541777E-3,-4.123218823E-3
5.973013507E0,1.343864016E-2,-7.941014133E-3,-5.344913341E-3
5.982727100E0,3.665083554E-3,-1.404948719E-2,-5.344913341E-3
5.992441475E0,-6.108472589E-3,-1.771457121E-2,-4.123218823E-3
6.002155069E0,-1.466033421E-2,-2.137965336E-2,-2.901524538E-3
6.011867777E0,-1.710372418E-2,-2.260134928E-2,-1.679830020E-3
6.021581371E0,-1.710372418E-2,-1.893626526E-2,-4.581354442E-4
6.031295746E0,-1.588202827E-2,-1.160609815E-2,7.635590737E-4
6.041009340E0,-1.466033421E-2,6.108472589E-4,-1.679830020E-3
6.050722048E0,-1.343864016E-2,1.282779220E-2,-5.344913341E-3
6.060435642E0,-1.221694518E-2,2.137965336E-2,-7.788302377E-3
6.070150017E0,-1.099525020E-2,2.015795931E-2,-7.788302377E-3
6.079863611E0,-7.330167107E-3,1.282779220E-2,-7.788302377E-3
6.089576319E0,-6.108472589E-3,3.054236295E-3,-5.344913341E-3
6.099289913E0,-3.665083554E-3,-7.941014133E-3,-4.123218823E-3
6.109004288E0,-2.443389036E-3,-1.893626526E-2,-4.123218823E-3
6.118717882E0,1.221694518E-3,-3.115320951E-2,-1.679830020E-3
6.128430590E0,3.665083554E-3,-4.092676565E-2,7.635590737E-4
6.138144184E0,3.665083554E-3,-5.192201585E-2,1.985253533E-3
6.147858559E0,3.665083554E-3,-6.169557199E-2,7.635590737E-4
6.157572048E0,-0.000000000E0,-6.658235192E-2,7.635590737E-4
6.167284861E0,-4.886778072E-3,-6.536065787E-2,-4.581354442E-4
6.176998454E0,-8.551862091E-3,-5.803048983E-2,-4.123218823E-3
6.186712829E0,-1.343864016E-2,-4.214845970E-2,-5.344913341E-3
6.196426319E0,-1.588202827E-2,-2.015795931E-2,-5.344913341E-3
6.206139132E0,-1.710372418E-2,5.497625098E-3,-4.123218823E-3
6.215852725E0,-1.588202827E-2,2.993151546E-2,-2.901524538E-3
6.225567100E0,-1.221694518E-2,4.947862774E-2,-1.679830020E-3
6.235280590E0,-7.330167107E-3,6.169557199E-2,7.635590737E-4
6.244993350E0,-4.886778072E-3,6.536065787E-2,5.650337320E-3
6.254706996E0,-0.000000000E0,6.291726977E-2,8.093725890E-3
6.264421371E0,1.221694518E-3,5.436540768E-2,1.175880991E-2
6.274134861E0,2.443389036E-3,3.848337755E-2,9.315420873E-3
6.283847621E0,1.221694518E-3,1.893626526E-2,5.650337320E-3
6.293561267E0,1.221694518E-3,-1.832541777E-3,3.206948051E-3
6.303275590E0,2.443389036E-3,-2.015795931E-2,-4.581354442E-4
6.312989184E0,3.665083554E-3,-3.237490356E-2,-4.123218823E-3
6.322701892E0,3.665083554E-3,-3.481829539E-2,-6.566607859E-3
6.332415538E0,3.665083554E-3,-3.237490356E-2,-7.788302377E-3
6.342129861E0,2.443389036E-3,-2.626643144E-2,-7.788302377E-3
6.351843454E0,-0.000000000E0,-2.015795931E-2,-6.566607859E-3
6.361556163E0,-3.665083554E-3,-1.282779220E-2,-4.123218823E-3
6.371269757E0,-7.330167107E-3,-1.832541777E-3,-2.901524538E-3
6.380984132E0,-1.343864016E-2,1.282779220E-2,-1.679830020E-3
6.390697621E0,-1.832541823E-2,2.870982140E-2,-1.679830020E-3
6.400410434E0,-2.076880634E-2,4.092676565E-2,7.635590737E-4
6.410124027E0,-2.199050039E-2,4.703523964E-2,-1.679830020E-3
6.419838402E0,-2.076880634E-2,4.703523964E-2,-4.123218823E-3
6.429551892E0,-1.588202827E-2,4.459185153E-2,-6.566607859E-3
6.439264704E0,-1.221694518E-2,3.603998944E-2,-4.123218823E-3
6.448978298E0,-8.551862091E-3,2.015795931E-2,-5.344913341E-3
6.458692673E0,-7.330167107E-3,1.832541777E-3,-6.566607859E-3
6.468406163E0,-6.108472589E-3,-1.649287529E-2,-5.344913341E-3
6.478118923E0,-7.330167107E-3,-3.237490356E-2,-2.901524538E-3
6.487832569E0,-7.330167107E-3,-4.337015375E-2,1.985253533E-3
6.497546892E0,-4.886778072E-3,-4.337015375E-2,4.428642802E-3
6.507260486E0,-1.221694518E-3,-3.359659761E-2,6.872031838E-3
6.516973194E0,2.443389036E-3,-1.038440317E-2,9.315420873E-3
6.526686788E0,7.330167107E-3,1.527118124E-2,1.053711493E-2
6.536401163E0,1.221694518E-2,3.481829539E-2,8.093725890E-3
6.546114652E0,1.710372418E-2,4.703523964E-2,5.650337320E-3
6.555827465E0,1.954711229E-2,4.337015375E-2,4.428642802E-3
6.565541059E0,1.710372418E-2,3.115320951E-2,3.206948051E-3
6.575255434E0,9.773556143E-3,1.282779220E-2,1.985253533E-3
6.584968923E0,2.443389036E-3,-7.941014133E-3,7.635590737E-4
6.594681684E0,-4.886778072E-3,-3.359659761E-2,1.985253533E-3
6.604395329E0,-9.773556143E-3,-5.803048983E-2,1.985253533E-3
6.614109652E0,-1.343864016E-2,-7.635590434E-2,-4.581354442E-4
6.623823246E0,-1.710372418E-2,-8.735115826E-2,-1.679830020E-3
6.633535954E0,-2.076880634E-2,-8.368607610E-2,-4.123218823E-3
6.643249548E0,-2.199050039E-2,-6.536065787E-2,-2.901524538E-3
6.652963923E0,-2.076880634E-2,-3.481829539E-2,-2.901524538E-3
6.662677413E0,-1.954711229E-2,5.497625098E-3,-4.123218823E-3
6.672390225E0,-1.588202827E-2,4.214845970E-2,-5.344913341E-3
6.682103819E0,-9.773556143E-3,6.780404598E-2,-4.123218823E-3
6.691818142E0,-2.443389036E-3,7.757759839E-2,-4.123218823E-3
6.701531736E0,2.443389036E-3,6.902574003E-2,-2.901524538E-3
6.711244444E0,4.886778072E-3,5.070032179E-2,-1.679830020E-3
6.720958090E0,4.886778072E-3,3.603998944E-2,-4.581354442E-4
6.730672413E0,3.665083554E-3,2.382304333E-2,7.635590737E-4
6.740385902E0,2.443389036E-3,1.160609815E-2,1.985253533E-3
6.750098715E0,4.886778072E-3,-4.275931045E-3,1.985253533E-3
6.759812309E0,9.773556143E-3,-2.504473738E-2,3.206948051E-3
6.769526684E0,1.466033421E-2,-4.214845970E-2,4.428642802E-3
6.779240173E0,1.832541823E-2,-5.314370990E-2,4.428642802E-3
6.788952934E0,1.710372418E-2,-5.436540768E-2,3.206948051E-3
6.798666579E0,1.343864016E-2,-4.947862774E-2,3.206948051E-3
6.808380902E0,8.551862091E-3,-4.337015375E-2,1.985253533E-3
6.818094496E0,2.443389036E-3,-3.237490356E-2,1.985253533E-3
6.827807204E0,-6.108472589E-3,-1.893626526E-2,3.206948051E-3
6.837520798E0,-1.221694518E-2,6.108472589E-4,3.206948051E-3
6.847235173E0,-1.588202827E-2,2.015795931E-2,7.635590737E-4
6.856948663E0,-1.343864016E-2,3.481829539E-2,-1.679830020E-3
6.866661423E0,-8.551862091E-3,4.581354558E-2,-4.581354442E-4
6.876375069E0,-1.221694518E-3,5.314370990E-2,-1.679830020E-3
6.886089392E0,4.886778072E-3,5.314370990E-2,-4.581354442E-4
6.895802986E0,8.551862091E-3,4.581354558E-2,7.635590737E-4
6.905515694E0,9.773556143E-3,3.359659761E-2,7.635590737E-4
6.915229288E0,8.551862091E-3,1.649287529E-2,-4.581354442E-4
6.924943663E0,4.886778072E-3,-3.054236295E-3,-1.679830020E-3
6.934657152E0,2.443389036E-3,-2.504473738E-2,-1.679830020E-3
6.944369913E0,-3.665083554E-3,-4.337015375E-2,-1.679830020E-3
6.954083559E0,-7.330167107E-3,-5.192201585E-2,-2.901524538E-3
6.963797882E0,-9.773556143E-3,-4.825693369E-2,-2.901524538E-3
6.973511371E0,-1.099525020E-2,-3.726168349E-2,-4.123218823E-3
6.983224184E0,-7.330167107E-3,-1.771457121E-2,-2.901524538E-3
6.992937777E0,-1.221694518E-3,4.275931045E-3,-4.581354442E-4
7.002652152E0,6.108472589E-3,2.137965336E-2,1.985253533E-3
7.012365642E0,1.099525020E-2,3.237490356E-2,4.428642802E-3
7.022078402E0,1.343864016E-2,3.603998944E-2,4.428642802E-3
7.031791996E0,1.466033421E-2,3.237490356E-2,4.428642802E-3
7.041506371E0,1.343864016E-2,2.382304333E-2,5.650337320E-3
7.051219861E0,1.099525020E-2,1.282779220E-2,6.872031838E-3
7.060932673E0,7.330167107E-3,4.275931045E-3,5.650337320E-3
7.070646267E0,3.665083554E-3,-6.108472589E-4,5.650337320E-3
7.080360590E0,2.443389036E-3,-3.054236295E-3,5.650337320E-3
7.090074184E0,1.221694518E-3,-3.054236295E-3,4.428642802E-3
7.099786892E0,1.221694518E-3,-1.832541777E-3,1.985253533E-3
7.109500486E0,1.221694518E-3,-1.832541777E-3,-2.901524538E-3
7.119214861E0,-0.000000000E0,-6.108472589E-4,-2.901524538E-3
7.128928350E0,-0.000000000E0,-1.832541777E-3,-6.566607859E-3
7.138641111E0,1.221694518E-3,-4.275931045E-3,-9.009997360E-3
7.148354757E0,2.443389036E-3,-1.160609815E-2,-7.788302377E-3
7.158069079E0,4.886778072E-3,-2.137965336E-2,-6.566607859E-3
7.167782569E0,4.886778072E-3,-2.748812735E-2,-1.679830020E-3
7.177495382E0,2.443389036E-3,-2.748812735E-2,4.428642802E-3
7.187208975E0,-2.443389036E-3,-2.260134928E-2,5.650337320E-3
7.196923298E0,-8.551862091E-3,-1.038440317E-2,6.872031838E-3
7.206636892E0,-1.099525020E-2,-6.108472589E-4,6.872031838E-3
7.216349600E0,-1.099525020E-2,6.719320081E-3,5.650337320E-3
7.226063194E0,-7.330167107E-3,1.282779220E-2,3.206948051E-3
7.235777569E0,-2.443389036E-3,1.404948719E-2,7.635590737E-4
7.245491059E0,2.443389036E-3,1.649287529E-2,-1.679830020E-3
7.255203819E0,6.108472589E-3,1.771457121E-2,-2.901524538E-3
7.264917413E0,8.551862091E-3,1.649287529E-2,-1.679830020E-3
7.274631788E0,8.551862091E-3,7.941014133E-3,-4.581354442E-4
7.284345277E0,7.330167107E-3,-3.054236295E-3,7.635590737E-4
7.294058038E0,7.330167107E-3,-1.771457121E-2,1.985253533E-3
7.303771684E0,4.886778072E-3,-2.626643144E-2,3.206948051E-3
7.313486007E0,2.443389036E-3,-2.870982140E-2,3.206948051E-3
7.323199600E0,1.221694518E-3,-2.504473738E-2,7.635590737E-4
7.332912309E0,2.443389036E-3,-1.527118124E-2,7.635590737E-4
7.342625902E0,4.886778072E-3,-3.054236295E-3,7.635590737E-4
7.352340225E0,9.773556143E-3,9.162709117E-3,7.635590737E-4
7.362053819E0,1.343864016E-2,1.771457121E-2,-4.581354442E-4
7.371766527E0,1.466033421E-2,2.015795931E-2,1.985253533E-3
7.381480121E0,1.221694518E-2,1.771457121E-2,3.206948051E-3
7.391194496E0,1.099525020E-2,1.038440317E-2,1.985253533E-3
7.400907986E0,8.551862091E-3,4.275931045E-3,4.428642802E-3
7.410620746E0,4.886778072E-3,6.108472589E-4,4.428642802E-3
7.420334340E0,4.886778072E-3,-1.832541777E-3,4.428642802E-3
7.430048715E0,8.551862091E-3,-3.054236295E-3,3.206948051E-3
7.439762204E0,1.343864016E-2,-3.054236295E-3,3.206948051E-3
7.449474965E0,1.832541823E-2,-5.497625098E-3,7.635590737E-4
7.459188559E0,2.076880634E-2,-3.054236295E-3,-4.581354442E-4
7.468902934E0,1.954711229E-2,1.832541777E-3,7.635590737E-4
7.478616423E0,1.466033421E-2,5.497625098E-3,1.985253533E-3
7.488329184E0,9.773556143E-3,9.162709117E-3,7.635590737E-4
7.498042829E0,4.886778072E-3,9.162709117E-3,7.635590737E-4
7.507757152E0,2.443389036E-3,5.497625098E-3,1.985253533E-3
7.517470642E0,6.108472589E-3,-1.832541777E-3,7.635590737E-4
7.527183454E0,1.221694518E-2,-7.941014133E-3,3.206948051E-3
7.536897048E0,2.199050039E-2,-1.282779220E-2,4.428642802E-3
7.546611371E0,3.176405653E-2,-1.771457121E-2,6.872031838E-3
7.556324861E0,3.909422457E-2,-2.015795931E-2,1.053711493E-2
7.566037673E0,4.275930673E-2,-2.015795931E-2,1.298050396E-2
7.575751267E0,4.275930673E-2,-1.527118124E-2,1.420219894E-2
7.585465590E0,3.665083647E-2,-3.054236295E-3,1.542389300E-2
7.595179184E0,2.687728032E-2,1.527118124E-2,1.298050396E-2
7.604891892E0,1.588202827E-2,3.603998944E-2,9.315420873E-3
7.614605486E0,6.108472589E-3,5.314370990E-2,4.428642802E-3
7.624319809E0,-1.221694518E-3,6.413896382E-2,-4.581354442E-4
7.634033402E0,-3.665083554E-3,6.658235192E-2,-7.788302377E-3
7.643746111E0,-0.000000000E0,6.169557199E-2,-1.267508045E-2
7.653459704E0,7.330167107E-3,4.947862774E-2,-1.511846948E-2
7.663174027E0,1.343864016E-2,3.237490356E-2,-1.389677543E-2
7.672887621E0,1.832541823E-2,1.160609815E-2,-9.009997360E-3
7.682600329E0,2.076880634E-2,-1.160609815E-2,-4.123218823E-3
7.692313923E0,1.588202827E-2,-3.115320951E-2,4.428642802E-3
7.702028246E0,8.551862091E-3,-4.337015375E-2,1.053711493E-2
7.711741840E0,-2.443389036E-3,-4.092676565E-2,1.420219894E-2
7.721454548E0,-1.099525020E-2,-2.382304333E-2,1.542389300E-2
7.731168142E0,-1.343864016E-2,3.054236295E-3,1.298050396E-2
7.740882465E0,-1.099525020E-2,3.359659761E-2,8.093725890E-3
7.750596059E0,-1.221694518E-3,5.680879578E-2,3.206948051E-3
7.760308767E0,1.221694518E-2,6.902574003E-2,-4.123218823E-3
7.770022361E0,2.687728032E-2,6.902574003E-2,-1.023169141E-2
7.779736736E0,3.909422457E-2,5.558710173E-2,-1.267508045E-2
7.789450225E0,4.764608666E-2,2.870982140E-2,-1.267508045E-2
7.799162986E0,5.008947477E-2,-5.497625098E-3,-1.023169141E-2
7.808876579E0,4.642439261E-2,-4.092676565E-2,-5.344913341E-3
7.818590902E0,3.542914242E-2,-7.269082218E-2,-4.581354442E-4
7.828304496E0,2.199050039E-2,-9.834641218E-2,4.428642802E-3
7.838017204E0,7.330167107E-3,-1.142284349E-1,9.315420873E-3
7.847730798E0,-7.330167107E-3,-1.191152185E-1,1.298050396E-2
7.857445121E0,-1.710372418E-2,-1.142284349E-1,1.298050396E-2
7.867158715E0,-2.321219631E-2,-9.834641218E-2,1.053711493E-2
7.876871423E0,-2.199050039E-2,-7.269082218E-2,6.872031838E-3
7.886585017E0,-1.832541823E-2,-3.848337755E-2,3.206948051E-3
7.896299340E0,-1.221694518E-2,-3.054236295E-3,-1.679830020E-3
7.906012934E0,-4.886778072E-3,2.870982140E-2,-6.566607859E-3
7.915725642E0,1.221694518E-3,5.192201585E-2,-9.009997360E-3
7.925439236E0,7.330167107E-3,6.169557199E-2,-1.145338640E-2
7.935153559E0,9.773556143E-3,5.680879578E-2,-1.145338640E-2
7.944867048E0,1.099525020E-2,4.092676565E-2,-1.023169141E-2
7.954579861E0,1.099525020E-2,1.649287529E-2,-6.566607859E-3
7.964293454E0,9.773556143E-3,-1.527118124E-2,-1.679830020E-3
7.974007777E0,4.886778072E-3,-4.947862774E-2,1.985253533E-3
7.983721267E0,-1.221694518E-3,-7.635590434E-2,4.428642802E-3
7.993434027E0,-8.551862091E-3,-9.101624042E-2,3.206948051E-3
8.003147673E0,-1.466033421E-2,-9.590301663E-2,3.206948051E-3
8.012861996E0,-1.588202827E-2,-8.612946421E-2,1.985253533E-3
8.022575486E0,-1.466033421E-2,-6.413896382E-2,-4.581354442E-4
8.032288246E0,-8.551862091E-3,-3.359659761E-2,-1.679830020E-3
8.042001892E0,-1.221694518E-3,1.832541777E-3,-2.901524538E-3
8.051716215E0,6.108472589E-3,3.481829539E-2,-5.344913341E-3
8.061429704E0,1.221694518E-2,5.803048983E-2,-4.123218823E-3
8.071142465E0,1.588202827E-2,6.780404598E-2,-4.123218823E-3
8.080856059E0,1.343864016E-2,6.536065787E-2,-2.901524538E-3
8.090570434E0,9.773556143E-3,5.192201585E-2,-4.581354442E-4
8.100283923E0,3.665083554E-3,3.359659761E-2,1.985253533E-3
8.109996684E0,-2.443389036E-3,1.404948719E-2,4.428642802E-3
8.119710277E0,-6.108472589E-3,-4.275931045E-3,6.872031838E-3
8.129424652E0,-7.330167107E-3,-1.649287529E-2,5.650337320E-3
8.139138142E0,-7.330167107E-3,-2.015795931E-2,5.650337320E-3
8.148850902E0,-6.108472589E-3,-1.649287529E-2,4.428642802E-3
8.158564496E0,-1.221694518E-3,-6.719320081E-3,1.985253533E-3
8.168278819E0,6.108472589E-3,1.832541777E-3,-4.581354442E-4
8.177992413E0,1.343864016E-2,6.719320081E-3,-2.901524538E-3
8.187705121E0,1.954711229E-2,9.162709117E-3,-6.566607859E-3
8.197418715E0,2.076880634E-2,6.719320081E-3,-9.009997360E-3
8.207133038E0,1.588202827E-2,3.054236295E-3,-9.009997360E-3
8.216846527E0,7.330167107E-3,6.108472589E-4,-5.344913341E-3
8.226559288E0,-3.665083554E-3,-1.832541777E-3,-1.679830020E-3
8.236272934E0,-1.221694518E-2,-1.832541777E-3,-4.581354442E-4
8.245987257E0,-1.588202827E-2,-1.832541777E-3,7.635590737E-4
8.255700746E0,-1.466033421E-2,-6.108472589E-4,7.635590737E-4
8.265413507E0,-1.099525020E-2,6.108472589E-4,7.635590737E-4
8.275127100E0,-3.665083554E-3,3.054236295E-3,7.635590737E-4
8.284841475E0,4.886778072E-3,6.719320081E-3,-1.679830020E-3
8.294554965E0,1.221694518E-2,1.038440317E-2,-4.581354442E-4
8.304267725E0,1.832541823E-2,9.162709117E-3,-4.581354442E-4
8.313981319E0,1.832541823E-2,5.497625098E-3,-4.581354442E-4
8.323695642E0,1.466033421E-2,-6.108472589E-4,-4.581354442E-4
8.333409236E0,8.551862091E-3,-7.941014133E-3,7.635590737E-4
8.343121944E0,2.443389036E-3,-1.649287529E-2,-4.581354442E-4
8.352835538E0,-3.665083554E-3,-2.504473738E-2,-4.581354442E-4
8.362549861E0,-3.665083554E-3,-3.237490356E-2,-4.581354442E-4
8.372263350E0,-2.443389036E-3,-3.603998944E-2,-4.581354442E-4
8.381976111E0,-0.000000000E0,-3.237490356E-2,-4.581354442E-4
8.391689757E0,2.443389036E-3,-1.893626526E-2,7.635590737E-4
8.401404079E0,4.886778072E-3,-6.108472589E-4,1.985253533E-3
8.411117569E0,4.886778072E-3,1.893626526E-2,4.428642802E-3
8.420830329E0,6.108472589E-3,3.359659761E-2,4.428642802E-3
8.430543923E0,3.665083554E-3,3.970507160E-2,4.428642802E-3
8.440258246E0,1.221694518E-3,4.092676565E-2,4.428642802E-3
8.449971840E0,-1.221694518E-3,3.359659761E-2,1.985253533E-3
8.459684548E0,-2.443389036E-3,2.260134928E-2,1.985253533E-3
8.469398142E0,-3.665083554E-3,6.719320081E-3,-1.679830020E-3
8.479112465E0,-2.443389036E-3,-6.719320081E-3,-2.901524538E-3
8.488825954E0,-2.443389036E-3,-1.649287529E-2,-5.344913341E-3
8.498538715E0,1.221694518E-3,-2.382304333E-2,-6.566607859E-3
8.508252309E0,4.886778072E-3,-2.870982140E-2,-5.344913341E-3
8.517966684E0,9.773556143E-3,-3.115320951E-2,-1.679830020E-3
8.527680173E0,1.343864016E-2,-2.993151546E-2,4.428642802E-3
8.537392934E0,1.466033421E-2,-2.626643144E-2,6.872031838E-3
8.547106527E0,1.466033421E-2,-2.015795931E-2,1.053711493E-2
8.556820850E0,1.099525020E-2,-1.282779220E-2,1.298050396E-2
8.566534444E0,6.108472589E-3,-6.719320081E-3,1.175880991E-2
8.576247100E0,-0.000000000E0,6.108472589E-4,9.315420873E-3
8.585960746E0,-2.443389036E-3,7.941014133E-3,4.428642802E-3
8.595675069E0,-1.221694518E-3,1.404948719E-2,-1.679830020E-3
8.605388559E0,1.221694518E-3,1.771457121E-2,-4.123218823E-3
8.615101319E0,7.330167107E-3,1.893626526E-2,-7.788302377E-3
8.624814913E0,1.343864016E-2,1.771457121E-2,-6.566607859E-3
8.634529236E0,1.343864016E-2,1.649287529E-2,-6.566607859E-3
8.644242829E0,1.099525020E-2,1.160609815E-2,-2.901524538E-3
8.653955538E0,4.886778072E-3,3.054236295E-3,7.635590737E-4
8.663669132E0,-3.665083554E-3,-5.497625098E-3,3.206948051E-3
8.673383454E0,-9.773556143E-3,-1.404948719E-2,4.428642802E-3
8.683096944E0,-9.773556143E-3,-1.771457121E-2,5.650337320E-3
8.692809704E0,-6.108472589E-3,-1.404948719E-2,5.650337320E-3
8.702523298E0,-0.000000000E0,-5.497625098E-3,5.650337320E-3
8.712237673E0,7.330167107E-3,9.162709117E-3,6.872031838E-3
8.721951163E0,1.710372418E-2,2.504473738E-2,4.428642802E-3
8.731663923E0,2.199050039E-2,3.237490356E-2,3.206948051E-3
8.741377517E0,2.687728032E-2,3.237490356E-2,1.985253533E-3
8.751091840E0,2.809897438E-2,1.893626526E-2,-4.581354442E-4
8.760805329E0,2.443389036E-2,6.108472589E-4,-2.901524538E-3
8.770518090E0,1.832541823E-2,-1.771457121E-2,-4.123218823E-3
8.780231684E0,1.221694518E-2,-3.115320951E-2,-4.123218823E-3
8.789946059E0,4.886778072E-3,-3.970507160E-2,-2.901524538E-3
8.799659548E0,1.221694518E-3,-4.092676565E-2,-2.901524538E-3
8.809372309E0,-2.443389036E-3,-3.237490356E-2,-4.581354442E-4
8.819085902E0,-3.665083554E-3,-1.771457121E-2,1.985253533E-3
8.828800225E0,-3.665083554E-3,-6.108472589E-4,4.428642802E-3
8.838513715E0,-1.221694518E-3,1.404948719E-2,5.650337320E-3
8.848226475E0,-0.000000000E0,2.015795931E-2,5.650337320E-3
8.857940069E0,2.443389036E-3,2.260134928E-2,4.428642802E-3
8.867654444E0,6.108472589E-3,2.260134928E-2,3.206948051E-3
8.877367934E0,7.330167107E-3,2.504473738E-2,1.985253533E-3
8.887080694E0,9.773556143E-3,2.993151546E-2,-4.581354442E-4
8.896794288E0,1.221694518E-2,3.237490356E-2,-1.679830020E-3
8.906508611E0,1.588202827E-2,2.626643144E-2,-1.679830020E-3
8.916222100E0,1.954711229E-2,7.941014133E-3,-2.901524538E-3
8.925934861E0,2.199050039E-2,-1.527118124E-2,-2.901524538E-3
8.935648454E0,1.954711229E-2,-3.603998944E-2,-2.901524538E-3
8.945362777E0,1.221694518E-2,-4.825693369E-2,-4.581354442E-4
8.955076371E0,1.221694518E-3,-5.192201585E-2,-1.679830020E-3
8.964789079E0,-6.108472589E-3,-4.459185153E-2,-4.581354442E-4
8.974502569E0,-1.221694518E-2,-3.359659761E-2,7.635590737E-4
8.984216996E0,-1.221694518E-2,-2.015795931E-2,1.985253533E-3
8.993930486E0,-9.773556143E-3,-1.160609815E-2,3.206948051E-3
9.003643246E0,-6.108472589E-3,-6.719320081E-3,3.206948051E-3
9.013356840E0,-4.886778072E-3,-4.275931045E-3,3.206948051E-3
9.023071163E0,-3.665083554E-3,-5.497625098E-3,-4.581354442E-4
9.032784652E0,-6.108472589E-3,-6.719320081E-3,-1.679830020E-3
9.042497413E0,-9.773556143E-3,-6.719320081E-3,-4.123218823E-3
9.052211007E0,-1.221694518E-2,-4.275931045E-3,-4.123218823E-3
9.061925382E0,-1.099525020E-2,1.832541777E-3,-2.901524538E-3
9.071638871E0,-4.886778072E-3,4.275931045E-3,-2.901524538E-3
9.081351579E0,3.665083554E-3,-6.108472589E-4,7.635590737E-4
9.091065225E0,1.343864016E-2,-7.941014133E-3,1.985253533E-3
9.100779548E0,1.832541823E-2,-1.038440317E-2,3.206948051E-3
9.110493038E0,1.588202827E-2,-6.719320081E-3,4.428642802E-3
9.120205798E0,1.343864016E-2,6.108472589E-4,3.206948051E-3
9.129919392E0,9.773556143E-3,4.275931045E-3,1.985253533E-3
9.139633715E0,7.330167107E-3,3.054236295E-3,3.206948051E-3
9.149347204E0,9.773556143E-3,-6.108472589E-4,1.985253533E-3
9.159059965E0,9.773556143E-3,-6.719320081E-3,1.985253533E-3
9.168773559E0,9.773556143E-3,-7.941014133E-3,3.206948051E-3
9.178487934E0,4.886778072E-3,-4.275931045E-3,4.428642802E-3
9.188201423E0,-0.000000000E0,5.497625098E-3,4.428642802E-3
9.197914184E0,-6.108472589E-3,1.893626526E-2,5.650337320E-3
9.207627777E0,-9.773556143E-3,3.359659761E-2,6.872031838E-3
9.217342100E0,-8.551862091E-3,4.337015375E-2,6.872031838E-3
9.227055590E0,-3.665083554E-3,4.947862774E-2,4.428642802E-3
9.236768350E0,3.665083554E-3,4.825693369E-2,7.635590737E-4
9.246481944E0,1.099525020E-2,3.970507160E-2,-1.679830020E-3
9.256196267E0,1.710372418E-2,2.504473738E-2,-5.344913341E-3
9.265909757E0,1.954711229E-2,7.941014133E-3,-6.566607859E-3
9.275622517E0,1.710372418E-2,-7.941014133E-3,-5.344913341E-3
9.285336111E0,1.343864016E-2,-2.015795931E-2,-5.344913341E-3
9.295050434E0,7.330167107E-3,-2.993151546E-2,-2.901524538E-3
9.304764027E0,2.443389036E-3,-3.970507160E-2,-4.581354442E-4
9.314476684E0,-0.000000000E0,-4.459185153E-2,1.985253533E-3
9.324190329E0,-0.000000000E0,-4.581354558E-2,1.985253533E-3
9.333904652E0,-2.443389036E-3,-4.092676565E-2,-4.581354442E-4
9.343618142E0,-4.886778072E-3,-2.993151546E-2,7.635590737E-4
9.353330902E0,-6.108472589E-3,-1.893626526E-2,-4.581354442E-4
9.363044496E0,-4.886778072E-3,-7.941014133E-3,-1.679830020E-3
9.372758819E0,-3.665083554E-3,4.275931045E-3,-1.679830020E-3
9.382472309E0,-0.000000000E0,1.649287529E-2,-1.679830020E-3
9.392185069E0,4.886778072E-3,2.748812735E-2,-1.679830020E-3
9.401898663E0,6.108472589E-3,3.359659761E-2,-2.901524538E-3
9.411612986E0,6.108472589E-3,3.115320951E-2,-2.901524538E-3
9.421326475E0,3.665083554E-3,2.015795931E-2,-4.123218823E-3
9.431039236E0,-0.000000000E0,6.719320081E-3,-5.344913341E-3
9.440752829E0,-3.665083554E-3,-1.160609815E-2,-5.344913341E-3
9.450467204E0,-7.330167107E-3,-3.237490356E-2,-4.123218823E-3
9.460180694E0,-9.773556143E-3,-4.703523964E-2,-2.901524538E-3
9.469893402E0,-1.099525020E-2,-5.192201585E-2,-4.123218823E-3
9.479606996E0,-1.343864016E-2,-5.192201585E-2,-1.679830020E-3
9.489321371E0,-1.343864016E-2,-4.459185153E-2,-4.581354442E-4
9.499034861E0,-1.343864016E-2,-3.115320951E-2,3.206948051E-3
9.508747621E0,-1.343864016E-2,-1.282779220E-2,4.428642802E-3
9.518461215E0,-1.221694518E-2,6.719320081E-3,6.872031838E-3
9.528175538E0,-8.551862091E-3,2.137965336E-2,5.650337320E-3
9.537889027E0,-4.886778072E-3,2.748812735E-2,5.650337320E-3
9.547601788E0,-2.443389036E-3,2.870982140E-2,4.428642802E-3
9.557315382E0,-0.000000000E0,2.993151546E-2,-4.581354442E-4
9.567029704E0,1.221694518E-3,3.359659761E-2,-4.123218823E-3
9.576743194E0,1.221694518E-3,3.970507160E-2,-9.009997360E-3
9.586455954E0,3.665083554E-3,4.459185153E-2,-1.145338640E-2
9.596169548E0,9.773556143E-3,4.459185153E-2,-1.145338640E-2
9.605883871E0,1.832541823E-2,3.115320951E-2,-1.023169141E-2
9.615597361E0,2.687728032E-2,7.941014133E-3,-6.566607859E-3
9.625310121E0,3.176405653E-2,-2.137965336E-2,-2.901524538E-3
9.635023715E0,2.932066843E-2,-4.703523964E-2,7.635590737E-4
9.644738038E0,1.954711229E-2,-6.291726977E-2,5.650337320E-3
9.654451527E0,6.108472589E-3,-6.780404598E-2,6.872031838E-3
9.664164288E0,-4.886778072E-3,-5.925218388E-2,6.872031838E-3
9.673877882E0,-1.343864016E-2,-3.970507160E-2,4.428642802E-3
9.683592204E0,-1.466033421E-2,-1.282779220E-2,7.635590737E-4
9.693305694E0,-9.773556143E-3,1.649287529E-2,-2.901524538E-3
9.703018454E0,-1.221694518E-3,4.337015375E-2,-6.566607859E-3
9.712732048E0,6.108472589E-3,5.925218388E-2,-9.009997360E-3
9.722446423E0,1.221694518E-2,6.413896382E-2,-9.009997360E-3
9.732159913E0,1.343864016E-2,5.803048983E-2,-1.023169141E-2
9.741872621E0,1.099525020E-2,4.825693369E-2,-7.788302377E-3
9.751586267E0,4.886778072E-3,3.359659761E-2,-6.566607859E-3
9.761300590E0,-0.000000000E0,1.893626526E-2,-4.123218823E-3
9.771014079E0,-3.665083554E-3,4.275931045E-3,-1.679830020E-3
9.780726788E0,-2.443389036E-3,-1.038440317E-2,-1.679830020E-3
9.790440434E0,-1.221694518E-3,-2.748812735E-2,-1.679830020E-3
9.800154757E0,3.665083554E-3,-4.214845970E-2,-1.679830020E-3
9.809868246E0,7.330167107E-3,-5.192201585E-2,-4.123218823E-3
9.819581007E0,1.099525020E-2,-5.680879578E-2,-4.123218823E-3
9.829294600E0,1.099525020E-2,-5.680879578E-2,-2.901524538E-3
9.839008923E0,7.330167107E-3,-5.070032179E-2,-2.901524538E-3
9.848722413E0,1.221694518E-3,-3.726168349E-2,-2.901524538E-3
9.858435173E0,-4.886778072E-3,-2.015795931E-2,-2.901524538E-3
9.868148767E0,-9.773556143E-3,-3.054236295E-3,-1.679830020E-3
9.877863090E0,-9.773556143E-3,1.038440317E-2,-1.679830020E-3
9.887576579E0,-7.330167107E-3,2.015795931E-2,-4.581354442E-4
9.897289340E0,-2.443389036E-3,2.626643144E-2,-4.581354442E-4
9.907002934E0,1.221694518E-3,2.993151546E-2,-4.581354442E-4
9.916717257E0,2.443389036E-3,3.115320951E-2,-4.581354442E-4
9.926430746E0,1.221694518E-3,3.115320951E-2,7.635590737E-4
9.936143507E0,-1.221694518E-3,2.993151546E-2,-1.679830020E-3
9.945857100E0,-4.886778072E-3,2.504473738E-2,-1.679830020E-3
9.955571423E0,-6.108472589E-3,1.282779220E-2,-2.901524538E-3
9.965284913E0,-3.665083554E-3,-1.832541777E-3,-4.123218823E-3
9.974997673E0,-1.221694518E-3,-1.893626526E-2,-5.344913341E-3
9.984711267E0,2.443389036E-3,-3.359659761E-2,-4.123218823E-3
9.994425590E0,4.886778072E-3,-4.214845970E-2,-4.123218823E-3
1.000413908E1,6.108472589E-3,-4.214845970E-2,-1.679830020E-3
1.001385184E1,6.108472589E-3,-3.115320951E-2,1.985253533E-3
1.002356543E1,6.108472589E-3,-1.038440317E-2,3.206948051E-3
1.003327976E1,3.665083554E-3,1.527118124E-2,5.650337320E-3
1.004299325E1,3.665083554E-3,3.603998944E-2,6.872031838E-3
1.005270601E1,4.886778072E-3,4.581354558E-2,5.650337320E-3
1.006241960E1,6.108472589E-3,4.459185153E-2,1.985253533E-3
1.007213392E1,7.330167107E-3,3.359659761E-2,7.635590737E-4
1.008184741E1,4.886778072E-3,2.137965336E-2,-4.581354442E-4
1.009156017E1,1.221694518E-3,1.160609815E-2,-4.123218823E-3
1.010127377E1,-2.443389036E-3,5.497625098E-3,-4.123218823E-3
1.011098809E1,-4.886778072E-3,3.054236295E-3,-2.901524538E-3
1.012070158E1,-4.886778072E-3,3.054236295E-3,-1.679830020E-3
1.013041434E1,-4.886778072E-3,3.054236295E-3,1.985253533E-3
1.014012793E1,-2.443389036E-3,4.275931045E-3,4.428642802E-3
1.014984226E1,1.221694518E-3,1.832541777E-3,5.650337320E-3
1.015955575E1,3.665083554E-3,-5.497625098E-3,5.650337320E-3
1.016926851E1,3.665083554E-3,-1.893626526E-2,4.428642802E-3
1.017898210E1,2.443389036E-3,-3.237490356E-2,1.985253533E-3
1.018869642E1,-3.665083554E-3,-3.970507160E-2,-4.581354442E-4
1.019840991E1,-7.330167107E-3,-3.726168349E-2,-2.901524538E-3
1.020812267E1,-1.221694518E-2,-3.115320951E-2,-5.344913341E-3
1.021783616E1,-1.588202827E-2,-2.015795931E-2,-4.123218823E-3
1.022755059E1,-1.466033421E-2,-6.719320081E-3,-4.123218823E-3
1.023726408E1,-1.343864016E-2,5.497625098E-3,-2.901524538E-3
1.024697684E1,-1.221694518E-2,1.282779220E-2,-4.123218823E-3
1.025669033E1,-1.221694518E-2,1.282779220E-2,-2.901524538E-3
1.026640476E1,-1.343864016E-2,7.941014133E-3,-1.679830020E-3
1.027611825E1,-1.466033421E-2,-3.054236295E-3,-1.679830020E-3
1.028583095E1,-1.343864016E-2,-1.160609815E-2,-2.901524538E-3
1.029554455E1,-1.221694518E-2,-1.649287529E-2,-4.581354442E-4
1.030525887E1,-8.551862091E-3,-1.771457121E-2,-4.581354442E-4
1.031497236E1,-4.886778072E-3,-1.404948719E-2,-4.581354442E-4
1.032468512E1,-0.000000000E0,-9.162709117E-3,1.985253533E-3
1.033439872E1,3.665083554E-3,-9.162709117E-3,1.985253533E-3
1.034411304E1,6.108472589E-3,-1.404948719E-2,1.985253533E-3
1.035382653E1,6.108472589E-3,-2.382304333E-2,3.206948051E-3
1.036353929E1,3.665083554E-3,-3.481829539E-2,3.206948051E-3
1.037325288E1,-1.221694518E-3,-4.337015375E-2,1.985253533E-3
1.038296720E1,-4.886778072E-3,-4.459185153E-2,7.635590737E-4
1.039268069E1,-8.551862091E-3,-3.481829539E-2,-4.581354442E-4
1.040239345E1,-9.773556143E-3,-2.137965336E-2,-1.679830020E-3
1.041210705E1,-8.551862091E-3,-5.497625098E-3,-2.901524538E-3
1.042182137E1,-3.665083554E-3,9.162709117E-3,-1.679830020E-3
1.043153486E1,1.221694518E-3,1.771457121E-2,-1.679830020E-3
1.044124762E1,3.665083554E-3,2.137965336E-2,-4.581354442E-4
1.045096122E1,-0.000000000E0,2.382304333E-2,1.985253533E-3
1.046067554E1,-3.665083554E-3,2.504473738E-2,3.206948051E-3
1.047038903E1,-9.773556143E-3,2.137965336E-2,4.428642802E-3
1.048010179E1,-1.343864016E-2,1.404948719E-2,5.650337320E-3
1.048981538E1,-1.466033421E-2,4.275931045E-3,5.650337320E-3
1.049952970E1,-1.466033421E-2,-5.497625098E-3,3.206948051E-3
1.050924319E1,-1.099525020E-2,-1.160609815E-2,-1.679830020E-3
1.051895595E1,-8.551862091E-3,-1.404948719E-2,-2.901524538E-3
1.052866955E1,-6.108472589E-3,-6.719320081E-3,-4.123218823E-3
1.053838387E1,-2.443389036E-3,5.497625098E-3,-4.123218823E-3
1.054809736E1,1.221694518E-3,1.893626526E-2,-1.679830020E-3
1.055781007E1,3.665083554E-3,2.626643144E-2,7.635590737E-4
1.056752366E1,8.551862091E-3,2.748812735E-2,5.650337320E-3
1.057723799E1,9.773556143E-3,2.382304333E-2,8.093725890E-3
1.058695148E1,8.551862091E-3,1.771457121E-2,6.872031838E-3
1.059666424E1,6.108472589E-3,1.160609815E-2,6.872031838E-3
1.060637783E1,6.108472589E-3,6.719320081E-3,4.428642802E-3
1.061609215E1,6.108472589E-3,3.054236295E-3,3.206948051E-3
1.062580564E1,8.551862091E-3,-6.108472589E-4,1.985253533E-3
1.063551840E1,1.099525020E-2,-6.108472589E-4,1.985253533E-3
1.064523200E1,1.221694518E-2,-6.108472589E-4,1.985253533E-3
1.065494632E1,1.099525020E-2,6.108472589E-4,7.635590737E-4
1.066465981E1,4.886778072E-3,1.832541777E-3,7.635590737E-4
1.067437257E1,-1.221694518E-3,6.108472589E-4,7.635590737E-4
1.068408616E1,-7.330167107E-3,-6.108472589E-4,1.985253533E-3
1.069380049E1,-1.221694518E-2,6.108472589E-4,1.985253533E-3
1.070351398E1,-1.221694518E-2,5.497625098E-3,1.985253533E-3
1.071322668E1,-9.773556143E-3,1.404948719E-2,1.985253533E-3
1.072294028E1,-4.886778072E-3,2.260134928E-2,7.635590737E-4
1.073265460E1,-0.000000000E0,2.748812735E-2,-2.901524538E-3
1.074236809E1,2.443389036E-3,2.748812735E-2,-5.344913341E-3
1.075208085E1,6.108472589E-3,2.504473738E-2,-6.566607859E-3
1.076179444E1,4.886778072E-3,1.893626526E-2,-6.566607859E-3
1.077150877E1,-0.000000000E0,1.404948719E-2,-4.123218823E-3
1.078122226E1,-4.886778072E-3,1.038440317E-2,-1.679830020E-3
1.079093502E1,-7.330167107E-3,3.054236295E-3,1.985253533E-3
1.080064861E1,-9.773556143E-3,-7.941014133E-3,4.428642802E-3
1.081036293E1,-6.108472589E-3,-2.137965336E-2,5.650337320E-3
1.082007642E1,-2.443389036E-3,-3.359659761E-2,6.872031838E-3
1.082978918E1,1.221694518E-3,-3.970507160E-2,3.206948051E-3
1.083950267E1,2.443389036E-3,-3.603998944E-2,1.985253533E-3
1.084921710E1,1.221694518E-3,-2.137965336E-2,1.985253533E-3
1.085893054E1,-0.000000000E0,-6.108472589E-4,1.985253533E-3
1.086864330E1,-1.221694518E-3,2.382304333E-2,7.635590737E-4
1.087835689E1,-1.221694518E-3,4.092676565E-2,1.985253533E-3
1.088807122E1,-2.443389036E-3,4.825693369E-2,7.635590737E-4
1.089778470E1,-3.665083554E-3,4.214845970E-2,7.635590737E-4
1.090749746E1,-6.108472589E-3,2.748812735E-2,7.635590737E-4
1.091721106E1,-1.099525020E-2,1.282779220E-2,3.206948051E-3
1.092692538E1,-1.466033421E-2,4.275931045E-3,4.428642802E-3
1.093663887E1,-1.832541823E-2,-6.108472589E-4,5.650337320E-3
1.094635163E1,-1.954711229E-2,-4.275931045E-3,5.650337320E-3
1.095606523E1,-1.710372418E-2,-7.941014133E-3,4.428642802E-3
1.096577955E1,-1.343864016E-2,-1.160609815E-2,4.428642802E-3
1.097549304E1,-7.330167107E-3,-1.282779220E-2,5.650337320E-3
1.098520575E1,-1.221694518E-3,-9.162709117E-3,6.872031838E-3
1.099491934E1,3.665083554E-3,-1.832541777E-3,6.872031838E-3
1.100463366E1,7.330167107E-3,5.497625098E-3,6.872031838E-3
1.101434715E1,7.330167107E-3,9.162709117E-3,5.650337320E-3
1.102405991E1,7.330167107E-3,9.162709117E-3,3.206948051E-3
1.103377351E1,7.330167107E-3,5.497625098E-3,3.206948051E-3
1.104348783E1,4.886778072E-3,3.054236295E-3,4.428642802E-3
1.105320132E1,3.665083554E-3,-6.108472589E-4,3.206948051E-3
1.106291408E1,1.221694518E-3,-1.832541777E-3,4.428642802E-3
1.107262767E1,-0.000000000E0,-5.497625098E-3,3.206948051E-3
1.108234200E1,-2.443389036E-3,-1.282779220E-2,7.635590737E-4
1.109205549E1,-4.886778072E-3,-2.015795931E-2,-4.581354442E-4
1.110176819E1,-7.330167107E-3,-2.748812735E-2,-4.581354442E-4
1.111148179E1,-8.551862091E-3,-3.237490356E-2,-4.581354442E-4
1.112119611E1,-9.773556143E-3,-3.603998944E-2,-1.679830020E-3
1.113090960E1,-9.773556143E-3,-3.481829539E-2,-2.901524538E-3
1.114062236E1,-7.330167107E-3,-2.870982140E-2,-5.344913341E-3
1.115033595E1,-4.886778072E-3,-2.382304333E-2,-4.123218823E-3
1.116005028E1,1.221694518E-3,-2.137965336E-2,-5.344913341E-3
1.116976377E1,4.886778072E-3,-2.382304333E-2,-6.566607859E-3
1.117947653E1,6.108472589E-3,-2.626643144E-2,-2.901524538E-3
1.118919002E1,4.886778072E-3,-2.504473738E-2,-4.581354442E-4
1.119890444E1,-1.221694518E-3,-1.893626526E-2,7.635590737E-4
1.120861788E1,-8.551862091E-3,-9.162709117E-3,1.985253533E-3
1.121833064E1,-1.466033421E-2,-3.054236295E-3,3.206948051E-3
1.122804424E1,-1.710372418E-2,-6.108472589E-4,3.206948051E-3
1.123775856E1,-1.588202827E-2,4.275931045E-3,1.985253533E-3
1.124747205E1,-1.099525020E-2,9.162709117E-3,-4.581354442E-4
1.125718481E1,-4.886778072E-3,1.649287529E-2,-2.901524538E-3
1.126689840E1,4.886778072E-3,2.015795931E-2,-4.123218823E-3
1.127661273E1,1.466033421E-2,1.527118124E-2,-4.123218823E-3
1.128632622E1,1.954711229E-2,6.108472589E-4,-2.901524538E-3
1.129603892E1,1.954711229E-2,-1.404948719E-2,7.635590737E-4
1.130575252E1,1.710372418E-2,-2.504473738E-2,3.206948051E-3
1.131546684E1,9.773556143E-3,-3.115320951E-2,4.428642802E-3
1.132518033E1,4.886778072E-3,-2.870982140E-2,4.428642802E-3
1.133489309E1,-1.221694518E-3,-1.893626526E-2,4.428642802E-3
1.134460668E1,-4.886778072E-3,-3.054236295E-3,3.206948051E-3
1.135432101E1,-4.886778072E-3,9.162709117E-3,3.206948051E-3
1.136403450E1,-2.443389036E-3,1.771457121E-2,1.985253533E-3
1.137374720E1,-0.000000000E0,2.260134928E-2,7.635590737E-4
1.138346080E1,-1.221694518E-3,2.748812735E-2,-2.901524538E-3
1.139317512E1,-6.108472589E-3,3.603998944E-2,-2.901524538E-3
1.140288861E1,-1.099525020E-2,4.459185153E-2,-2.901524538E-3
1.141260137E1,-1.221694518E-2,4.947862774E-2,-2.901524538E-3
1.142231496E1,-1.221694518E-2,4.703523964E-2,-2.901524538E-3
1.143202929E1,-7.330167107E-3,3.603998944E-2,-1.679830020E-3
1.144174278E1,-0.000000000E0,1.771457121E-2,-4.581354442E-4
1.145145549E1,6.108472589E-3,-3.054236295E-3,-4.581354442E-4
1.146116908E1,1.099525020E-2,-2.382304333E-2,1.985253533E-3
1.147088345E1,1.221694518E-2,-3.726168349E-2,1.985253533E-3
1.148059689E1,8.551862091E-3,-4.337015375E-2,4.428642802E-3
1.149030965E1,6.108472589E-3,-4.092676565E-2,5.650337320E-3
1.150002325E1,3.665083554E-3,-3.603998944E-2,6.872031838E-3
1.150973757E1,2.443389036E-3,-2.993151546E-2,5.650337320E-3
1.151945106E1,3.665083554E-3,-2.382304333E-2,1.985253533E-3
1.152916382E1,4.886778072E-3,-1.527118124E-2,-1.679830020E-3
1.153887731E1,7.330167107E-3,-1.832541777E-3,-4.123218823E-3
1.154859168E1,6.108472589E-3,1.404948719E-2,-5.344913341E-3
1.155830517E1,4.886778072E-3,2.748812735E-2,-4.123218823E-3
1.156801793E1,-0.000000000E0,2.993151546E-2,-1.679830020E-3
1.157773153E1,-2.443389036E-3,2.382304333E-2,-4.581354442E-4
1.158744585E1,-7.330167107E-3,1.282779220E-2,-4.581354442E-4
1.159715934E1,-1.221694518E-2,4.275931045E-3,3.206948051E-3
1.160687210E1,-1.710372418E-2,-6.108472589E-4,4.428642802E-3
1.161658559E1,-2.076880634E-2,-4.275931045E-3,5.650337320E-3
1.162629997E1,-2.076880634E-2,-5.497625098E-3,5.650337320E-3
1.163601345E1,-1.710372418E-2,-6.108472589E-4,4.428642802E-3
1.164572622E1,-9.773556143E-3,5.497625098E-3,7.635590737E-4
1.165543981E1,-1.221694518E-3,1.282779220E-2,-4.581354442E-4
1.166515413E1,8.551862091E-3,1.282779220E-2,-1.679830020E-3
1.167486762E1,1.588202827E-2,9.162709117E-3,-1.679830020E-3
1.168458038E1,1.954711229E-2,1.832541777E-3,-4.581354442E-4
1.169429387E1,1.710372418E-2,-6.719320081E-3,-1.679830020E-3
1.170400825E1,1.221694518E-2,-1.527118124E-2,-4.581354442E-4
1.171372174E1,7.330167107E-3,-2.626643144E-2,7.635590737E-4
1.172343450E1,3.665083554E-3,-3.359659761E-2,1.985253533E-3
1.173314809E1,-0.000000000E0,-3.481829539E-2,3.206948051E-3
1.174286241E1,-3.665083554E-3,-2.626643144E-2,4.428642802E-3
1.175257590E1,-4.886778072E-3,-1.282779220E-2,1.985253533E-3
1.176228861E1,-6.108472589E-3,3.054236295E-3,4.428642802E-3
1.177200220E1,-4.886778072E-3,1.527118124E-2,5.650337320E-3
1.178171653E1,-4.886778072E-3,2.626643144E-2,5.650337320E-3
1.179143002E1,-3.665083554E-3,3.603998944E-2,4.428642802E-3
1.180114278E1,-3.665083554E-3,4.703523964E-2,3.206948051E-3
1.181085637E1,-1.221694518E-3,5.436540768E-2,3.206948051E-3
1.182057069E1,2.443389036E-3,5.436540768E-2,1.985253533E-3
1.183028418E1,4.886778072E-3,4.337015375E-2,-1.679830020E-3
1.183999689E1,8.551862091E-3,2.382304333E-2,-2.901524538E-3
1.184971049E1,9.773556143E-3,-1.832541777E-3,-4.123218823E-3
1.185942481E1,7.330167107E-3,-2.504473738E-2,-6.566607859E-3
1.186913830E1,2.443389036E-3,-3.970507160E-2,-7.788302377E-3
1.187885106E1,-2.443389036E-3,-4.581354558E-2,-5.344913341E-3
1.188856465E1,-7.330167107E-3,-4.703523964E-2,-4.123218823E-3
1.189827898E1,-9.773556143E-3,-3.848337755E-2,-4.581354442E-4
1.190799241E1,-1.221694518E-2,-2.260134928E-2,1.985253533E-3
1.191770517E1,-1.221694518E-2,-1.832541777E-3,1.985253533E-3
1.192741877E1,-9.773556143E-3,1.771457121E-2,1.985253533E-3
1.193713309E1,-7.330167107E-3,3.115320951E-2,1.985253533E-3
1.194684658E1,-4.886778072E-3,3.726168349E-2,7.635590737E-4
1.195655934E1,-2.443389036E-3,3.481829539E-2,-4.581354442E-4
1.196627283E1,-0.000000000E0,2.504473738E-2,-1.679830020E-3
1.197598726E1,1.221694518E-3,7.941014133E-3,-1.679830020E-3
1.198570069E1,2.443389036E-3,-9.162709117E-3,-4.581354442E-4
1.199541345E1,3.665083554E-3,-2.382304333E-2,-1.679830020E-3
1.200512705E1,3.665083554E-3,-2.993151546E-2,7.635590737E-4
1.201484137E1,2.443389036E-3,-3.237490356E-2,1.985253533E-3
1.202455486E1,-1.221694518E-3,-3.115320951E-2,1.985253533E-3
1.203426757E1,-2.443389036E-3,-3.237490356E-2,1.985253533E-3
1.204398116E1,-3.665083554E-3,-3.115320951E-2,1.985253533E-3
1.205369549E1,-4.886778072E-3,-2.748812735E-2,-4.581354442E-4
1.206340898E1,-4.886778072E-3,-2.260134928E-2,-4.581354442E-4
1.207312174E1,-4.886778072E-3,-1.527118124E-2,-4.581354442E-4
1.208283522E1,-3.665083554E-3,-6.719320081E-3,-4.581354442E-4
1.209254960E1,-1.221694518E-3,1.832541777E-3,-1.679830020E-3
1.210226309E1,1.221694518E-3,1.038440317E-2,-4.581354442E-4
1.211197585E1,4.886778072E-3,1.649287529E-2,7.635590737E-4
1.212168944E1,7.330167107E-3,1.893626526E-2,1.985253533E-3
1.213140377E1,8.551862091E-3,1.771457121E-2,7.635590737E-4
1.214111726E1,8.551862091E-3,1.282779220E-2,1.985253533E-3
1.215082997E1,6.108472589E-3,4.275931045E-3,1.985253533E-3
1.216054356E1,-0.000000000E0,-3.054236295E-3,1.985253533E-3
1.217025788E1,-4.886778072E-3,-7.941014133E-3,3.206948051E-3
1.217997137E1,-7.330167107E-3,-7.941014133E-3,1.985253533E-3
1.218968413E1,-9.773556143E-3,-4.275931045E-3,7.635590737E-4
1.219939762E1,-9.773556143E-3,6.108472589E-4,-4.581354442E-4
1.220911205E1,-4.886778072E-3,6.719320081E-3,-4.581354442E-4
1.221882549E1,-0.000000000E0,1.404948719E-2,-4.581354442E-4
1.222853825E1,4.886778072E-3,2.015795931E-2,-4.581354442E-4
1.223825184E1,9.773556143E-3,2.382304333E-2,-4.581354442E-4
1.224796616E1,1.221694518E-2,2.260134928E-2,7.635590737E-4
1.225767965E1,1.099525020E-2,1.649287529E-2,7.635590737E-4
1.226739236E1,4.886778072E-3,9.162709117E-3,7.635590737E-4
1.227710595E1,-1.221694518E-3,-6.108472589E-4,-4.581354442E-4
1.228682028E1,-6.108472589E-3,-9.162709117E-3,7.635590737E-4
1.229653377E1,-8.551862091E-3,-1.282779220E-2,1.985253533E-3
1.230624653E1,-9.773556143E-3,-1.404948719E-2,7.635590737E-4
1.231596012E1,-7.330167107E-3,-7.941014133E-3,-4.581354442E-4
1.232567444E1,-3.665083554E-3,-1.832541777E-3,7.635590737E-4
1.233538788E1,2.443389036E-3,4.275931045E-3,7.635590737E-4
1.234510064E1,7.330167107E-3,5.497625098E-3,7.635590737E-4
1.235481424E1,8.551862091E-3,6.719320081E-3,7.635590737E-4
1.236452856E1,7.330167107E-3,6.719320081E-3,-4.581354442E-4
1.237424205E1,2.443389036E-3,9.162709117E-3,-4.581354442E-4
1.238395476E1,-1.221694518E-3,1.160609815E-2,-4.581354442E-4
1.239366835E1,-3.665083554E-3,1.282779220E-2,-1.679830020E-3
1.240338267E1,-4.886778072E-3,9.162709117E-3,7.635590737E-4
1.241309616E1,-3.665083554E-3,4.275931045E-3,-4.581354442E-4
1.242280892E1,-3.665083554E-3,-3.054236295E-3,-1.679830020E-3
1.243252241E1,-4.886778072E-3,-9.162709117E-3,-2.901524538E-3
1.244223679E1,-7.330167107E-3,-1.160609815E-2,-1.679830020E-3
1.245195028E1,-8.551862091E-3,-1.038440317E-2,-2.901524538E-3
1.246166304E1,-1.099525020E-2,-4.275931045E-3,-4.123218823E-3
1.247137663E1,-1.099525020E-2,5.497625098E-3,-2.901524538E-3
1.248109095E1,-9.773556143E-3,1.771457121E-2,-4.581354442E-4
1.249080439E1,-4.886778072E-3,2.504473738E-2,3.206948051E-3
1.250051715E1,1.221694518E-3,2.626643144E-2,5.650337320E-3
1.251023075E1,4.886778072E-3,2.260134928E-2,9.315420873E-3
1.251994507E1,4.886778072E-3,1.771457121E-2,8.093725890E-3
1.252965856E1,3.665083554E-3,1.160609815E-2,6.872031838E-3
1.253937127E1,-1.221694518E-3,5.497625098E-3,5.650337320E-3
1.254908486E1,-4.886778072E-3,6.108472589E-4,1.985253533E-3
1.255879918E1,-7.330167107E-3,-6.719320081E-3,-4.581354442E-4
1.256851267E1,-4.886778072E-3,-1.527118124E-2,-5.344913341E-3
1.257822543E1,1.221694518E-3,-2.626643144E-2,-7.788302377E-3
1.258793892E1,4.886778072E-3,-3.970507160E-2,-1.023169141E-2
1.259765330E1,6.108472589E-3,-4.947862774E-2,-7.788302377E-3
1.260736679E1,4.886778072E-3,-5.680879578E-2,-5.344913341E-3
1.261707955E1,-1.221694518E-3,-5.925218388E-2,-1.679830020E-3
1.262679314E1,-9.773556143E-3,-5.558710173E-2,3.206948051E-3
1.263650747E1,-1.466033421E-2,-4.459185153E-2,5.650337320E-3
1.264622090E1,-1.954711229E-2,-2.870982140E-2,5.650337320E-3
1.265593366E1,-1.954711229E-2,-1.038440317E-2,3.206948051E-3
1.266564726E1,-1.466033421E-2,4.275931045E-3,7.635590737E-4
1.267536158E1,-9.773556143E-3,1.649287529E-2,-2.901524538E-3
1.268507507E1,-3.665083554E-3,2.504473738E-2,-6.566607859E-3
1.269478778E1,-1.221694518E-3,3.115320951E-2,-9.009997360E-3
1.270450137E1,-0.000000000E0,3.359659761E-2,-9.009997360E-3
1.271421569E1,-1.221694518E-3,3.237490356E-2,-9.009997360E-3
1.272392918E1,-1.221694518E-3,2.504473738E-2,-6.566607859E-3
1.273364189E1,-3.665083554E-3,1.038440317E-2,-2.901524538E-3
1.274335549E1,-1.221694518E-3,-1.404948719E-2,-2.901524538E-3
1.275306981E1,1.221694518E-3,-4.459185153E-2,7.635590737E-4
1.276278330E1,1.221694518E-3,-7.146912813E-2,4.428642802E-3
1.277249606E1,-3.665083554E-3,-8.490777016E-2,4.428642802E-3
1.278220965E1,-1.221694518E-2,-7.879929990E-2,7.635590737E-4
1.279192392E1,-1.832541823E-2,-5.803048983E-2,-2.901524538E-3
1.280163741E1,-2.076880634E-2,-3.237490356E-2,-6.566607859E-3
1.281135017E1,-1.832541823E-2,-4.275931045E-3,-6.566607859E-3
1.282106377E1,-9.773556143E-3,2.260134928E-2,-9.009997360E-3
1.283077809E1,-0.000000000E0,3.970507160E-2,-7.788302377E-3
1.284049153E1,8.551862091E-3,5.192201585E-2,-5.344913341E-3
1.285020429E1,1.343864016E-2,5.680879578E-2,-1.679830020E-3
1.285991788E1,1.221694518E-2,5.314370990E-2,-4.581354442E-4
1.286963220E1,4.886778072E-3,4.092676565E-2,7.635590737E-4
1.287934569E1,-1.221694518E-3,2.260134928E-2,1.985253533E-3
1.288905840E1,-3.665083554E-3,6.719320081E-3,1.985253533E-3
1.289877200E1,-3.665083554E-3,-6.719320081E-3,4.428642802E-3
1.290848632E1,1.221694518E-3,-1.527118124E-2,1.985253533E-3
1.291819981E1,8.551862091E-3,-1.893626526E-2,7.635590737E-4
1.292791252E1,1.466033421E-2,-1.893626526E-2,-4.581354442E-4
1.293762611E1,1.832541823E-2,-1.771457121E-2,-1.679830020E-3
1.294734043E1,1.832541823E-2,-1.282779220E-2,-4.581354442E-4
1.295705392E1,9.773556143E-3,-4.275931045E-3,1.985253533E-3
1.296676668E1,-0.000000000E0,7.941014133E-3,3.206948051E-3
1.297648017E1,-9.773556143E-3,2.015795931E-2,1.985253533E-3
1.298619455E1,-1.343864016E-2,2.626643144E-2,7.635590737E-4
1.299590804E1,-1.221694518E-2,2.626643144E-2,-4.581354442E-4
1.300562080E1,-7.330167107E-3,2.504473738E-2,-1.679830020E-3
1.301533429E1,-1.221694518E-3,2.626643144E-2,-4.581354442E-4
1.302504866E1,4.886778072E-3,2.993151546E-2,-1.679830020E-3
1.303476215E1,7.330167107E-3,3.359659761E-2,-2.901524538E-3
1.304447491E1,7.330167107E-3,3.237490356E-2,-1.679830020E-3
1.305418851E1,6.108472589E-3,2.260134928E-2,-1.679830020E-3
1.306390278E1,2.443389036E-3,6.719320081E-3,7.635590737E-4
1.307361627E1,-0.000000000E0,-1.282779220E-2,7.635590737E-4
1.308332903E1,-1.221694518E-3,-2.870982140E-2,1.985253533E-3
1.309304262E1,-3.665083554E-3,-3.726168349E-2,7.635590737E-4
1.310275694E1,-7.330167107E-3,-3.603998944E-2,-4.581354442E-4
1.311247038E1,-8.551862091E-3,-2.504473738E-2,-1.679830020E-3
1.312218314E1,-8.551862091E-3,-6.719320081E-3,-2.901524538E-3
1.313189674E1,-4.886778072E-3,1.282779220E-2,-2.901524538E-3
1.314161106E1,-1.221694518E-3,2.626643144E-2,-4.123218823E-3
1.315132455E1,2.443389036E-3,2.993151546E-2,-5.344913341E-3
1.316103726E1,7.330167107E-3,2.626643144E-2,-6.566607859E-3
1.317075085E1,7.330167107E-3,1.649287529E-2,-5.344913341E-3
1.318046517E1,6.108472589E-3,5.497625098E-3,-4.123218823E-3
1.319017866E1,3.665083554E-3,-6.719320081E-3,-1.679830020E-3
1.319989137E1,-1.221694518E-3,-1.404948719E-2,7.635590737E-4
1.320960496E1,-7.330167107E-3,-1.649287529E-2,-4.581354442E-4
1.321931929E1,-1.343864016E-2,-1.282779220E-2,-4.581354442E-4
1.322903278E1,-1.710372418E-2,-1.038440317E-2,-4.581354442E-4
1.323874549E1,-1.710372418E-2,-6.719320081E-3,-2.901524538E-3
1.324845908E1,-1.466033421E-2,6.108472589E-4,-4.123218823E-3
1.325817340E1,-1.099525020E-2,7.941014133E-3,-4.123218823E-3
1.326788689E1,-7.330167107E-3,1.404948719E-2,-4.123218823E-3
1.327759960E1,-2.443389036E-3,1.771457121E-2,-4.123218823E-3
1.328731319E1,1.221694518E-3,1.893626526E-2,-4.123218823E-3
1.329702752E1,3.665083554E-3,1.038440317E-2,-5.344913341E-3
1.330674101E1,6.108472589E-3,-6.108472589E-4,-6.566607859E-3
1.331645372E1,7.330167107E-3,-1.527118124E-2,-6.566607859E-3
1.332616731E1,6.108472589E-3,-2.382304333E-2,-5.344913341E-3
1.333588163E1,3.665083554E-3,-2.626643144E-2,-4.123218823E-3
1.334559512E1,2.443389036E-3,-2.626643144E-2,-1.679830020E-3
1.335530788E1,-2.443389036E-3,-2.260134928E-2,3.206948051E-3
1.336502137E1,-6.108472589E-3,-1.893626526E-2,1.985253533E-3
1.337473575E1,-9.773556143E-3,-1.649287529E-2,1.985253533E-3
1.338444924E1,-1.343864016E-2,-1.038440317E-2,1.985253533E-3
1.339416200E1,-1.343864016E-2,-3.054236295E-3,1.985253533E-3
1.340387549E1,-1.221694518E-2,3.054236295E-3,-4.581354442E-4
1.341358986E1,-6.108472589E-3,7.941014133E-3,-1.679830020E-3
1.342330335E1,2.443389036E-3,1.160609815E-2,-5.344913341E-3
1.343301611E1,9.773556143E-3,1.404948719E-2,-5.344913341E-3
1.344272970E1,1.710372418E-2,1.282779220E-2,-5.344913341E-3
1.345244398E1,1.954711229E-2,5.497625098E-3,-4.123218823E-3
1.346215746E1,1.710372418E-2,-9.162709117E-3,-2.901524538E-3
1.347187022E1,9.773556143E-3,-2.504473738E-2,-4.581354442E-4
1.348158382E1,-0.000000000E0,-3.481829539E-2,7.635590737E-4
1.349129809E1,-8.551862091E-3,-3.726168349E-2,-4.581354442E-4
1.350101158E1,-1.588202827E-2,-3.481829539E-2,-4.581354442E-4
1.351072434E1,-1.588202827E-2,-2.993151546E-2,-1.679830020E-3
1.352043793E1,-1.099525020E-2,-2.260134928E-2,-4.123218823E-3
1.353015226E1,-7.330167107E-3,-1.282779220E-2,-6.566607859E-3
1.353986569E1,-2.443389036E-3,-1.832541777E-3,-6.566607859E-3
1.354957845E1,1.221694518E-3,7.941014133E-3,-4.123218823E-3
1.355929205E1,2.443389036E-3,1.649287529E-2,-2.901524538E-3
1.356900637E1,1.221694518E-3,1.893626526E-2,7.635590737E-4
1.357871981E1,-2.443389036E-3,1.404948719E-2,1.985253533E-3
1.358843257E1,-4.886778072E-3,5.497625098E-3,7.635590737E-4
1.359814616E1,-7.330167107E-3,-1.832541777E-3,7.635590737E-4
1.360786049E1,-9.773556143E-3,-1.038440317E-2,-1.679830020E-3
1.361757392E1,-8.551862091E-3,-1.649287529E-2,-2.901524538E-3
1.362728668E1,-4.886778072E-3,-2.137965336E-2,-5.344913341E-3
1.363700028E1,-1.221694518E-3,-2.504473738E-2,-4.123218823E-3
1.364671460E1,2.443389036E-3,-2.748812735E-2,-5.344913341E-3
1.365642804E1,4.886778072E-3,-2.626643144E-2,-5.344913341E-3
1.366614080E1,6.108472589E-3,-2.137965336E-2,-2.901524538E-3
1.367585439E1,3.665083554E-3,-1.282779220E-2,-4.581354442E-4
1.368556872E1,-0.000000000E0,-4.275931045E-3,1.985253533E-3
1.369528215E1,-2.443389036E-3,5.497625098E-3,1.985253533E-3
1.370499491E1,-4.886778072E-3,1.282779220E-2,3.206948051E-3
1.371470851E1,-6.108472589E-3,1.771457121E-2,1.985253533E-3
1.372442283E1,-6.108472589E-3,2.137965336E-2,1.985253533E-3
1.373413627E1,-3.665083554E-3,2.382304333E-2,-4.581354442E-4
1.374384903E1,-1.221694518E-3,2.137965336E-2,-4.123218823E-3
1.375356262E1,-0.000000000E0,1.649287529E-2,-4.123218823E-3
1.376327694E1,2.443389036E-3,9.162709117E-3,-5.344913341E-3
1.377299038E1,3.665083554E-3,-6.108472589E-4,-6.566607859E-3
1.378270314E1,4.886778072E-3,-1.038440317E-2,-5.344913341E-3
1.379241674E1,3.665083554E-3,-1.649287529E-2,-1.679830020E-3
1.380213106E1,2.443389036E-3,-1.893626526E-2,-4.581354442E-4
1.381184450E1,-0.000000000E0,-1.771457121E-2,1.985253533E-3
1.382155726E1,-1.221694518E-3,-1.893626526E-2,4.428642802E-3
1.383127085E1,-2.443389036E-3,-2.015795931E-2,6.872031838E-3
1.384098512E1,-3.665083554E-3,-1.649287529E-2,6.872031838E-3
1.385069861E1,-6.108472589E-3,-6.719320081E-3,5.650337320E-3
1.386041137E1,-6.108472589E-3,1.038440317E-2,4.428642802E-3
1.387012496E1,-3.665083554E-3,2.748812735E-2,1.985253533E-3
1.387983924E1,1.221694518E-3,3.481829539E-2,-1.679830020E-3
1.388955273E1,7.330167107E-3,2.993151546E-2,-4.123218823E-3
1.389926549E1,1.343864016E-2,1.771457121E-2,-6.566607859E-3
1.390897908E1,1.710372418E-2,3.054236295E-3,-7.788302377E-3
1.391869335E1,1.588202827E-2,-1.282779220E-2,-6.566607859E-3
1.392840684E1,1.343864016E-2,-2.626643144E-2,-5.344913341E-3
1.393811960E1,7.330167107E-3,-3.726168349E-2,-4.123218823E-3
1.394783319E1,1.221694518E-3,-4.459185153E-2,-2.901524538E-3
1.395754747E1,-6.108472589E-3,-4.703523964E-2,-1.679830020E-3
1.396726095E1,-1.221694518E-2,-3.970507160E-2,-1.679830020E-3
1.397697372E1,-1.710372418E-2,-2.748812735E-2,-1.679830020E-3
1.398668720E1,-1.710372418E-2,-9.162709117E-3,-1.679830020E-3
1.399640158E1,-1.466033421E-2,1.160609815E-2,-1.679830020E-3
1.400611507E1,-9.773556143E-3,2.993151546E-2,-1.679830020E-3
1.401582783E1,-3.665083554E-3,4.337015375E-2,-2.901524538E-3
1.402554132E1,-1.221694518E-3,5.192201585E-2,-2.901524538E-3
1.403525569E1,1.221694518E-3,5.192201585E-2,-2.901524538E-3
1.404496918E1,2.443389036E-3,4.825693369E-2,-2.901524538E-3
1.405468194E1,1.221694518E-3,3.848337755E-2,-1.679830020E-3
1.406439543E1,1.221694518E-3,2.504473738E-2,-4.581354442E-4
1.407410981E1,2.443389036E-3,3.054236295E-3,-1.679830020E-3
1.408382330E1,4.886778072E-3,-1.771457121E-2,7.635590737E-4
1.409353601E1,6.108472589E-3,-3.481829539E-2,7.635590737E-4
1.410324960E1,8.551862091E-3,-4.459185153E-2,7.635590737E-4
1.411296392E1,9.773556143E-3,-4.825693369E-2,3.206948051E-3
1.412267741E1,1.099525020E-2,-4.214845970E-2,1.985253533E-3
1.413239012E1,9.773556143E-3,-2.870982140E-2,1.985253533E-3
1.414210372E1,8.551862091E-3,-1.160609815E-2,1.985253533E-3
1.415181804E1,6.108472589E-3,1.038440317E-2,4.428642802E-3
1.416153153E1,4.886778072E-3,2.993151546E-2,5.650337320E-3
1.417124424E1,3.665083554E-3,4.092676565E-2,5.650337320E-3
1.418095783E1,1.221694518E-3,4.337015375E-2,4.428642802E-3
1.419067215E1,-2.443389036E-3,4.214845970E-2,3.206948051E-3
1.420038564E1,-7.330167107E-3,3.848337755E-2,1.985253533E-3
1.421009835E1,-9.773556143E-3,3.115320951E-2,7.635590737E-4
1.421981194E1,-8.551862091E-3,2.260134928E-2,-1.679830020E-3
1.422952627E1,-6.108472589E-3,1.160609815E-2,-2.901524538E-3
1.423923976E1,-0.000000000E0,1.832541777E-3,-4.123218823E-3
1.424895246E1,6.108472589E-3,-5.497625098E-3,-5.344913341E-3
1.425866606E1,1.099525020E-2,-1.160609815E-2,-4.123218823E-3
1.426838038E1,1.221694518E-2,-1.649287529E-2,-2.901524538E-3
1.427809387E1,1.099525020E-2,-2.260134928E-2,-4.581354442E-4
1.428780658E1,7.330167107E-3,-3.115320951E-2,7.635590737E-4
1.429752017E1,1.221694518E-3,-4.092676565E-2,4.428642802E-3
1.430723450E1,-6.108472589E-3,-4.459185153E-2,4.428642802E-3
1.431694793E1,-1.343864016E-2,-4.092676565E-2,4.428642802E-3
1.432666069E1,-1.832541823E-2,-3.115320951E-2,3.206948051E-3
1.433637429E1,-2.076880634E-2,-2.015795931E-2,7.635590737E-4
1.434608861E1,-1.832541823E-2,-1.038440317E-2,-4.581354442E-4
1.435580205E1,-1.466033421E-2,-4.275931045E-3,-1.679830020E-3
1.436551481E1,-9.773556143E-3,4.275931045E-3,-4.123218823E-3
1.437522830E1,-3.665083554E-3,1.160609815E-2,-5.344913341E-3
1.438494267E1,2.443389036E-3,1.771457121E-2,-7.788302377E-3
1.439465616E1,7.330167107E-3,1.893626526E-2,-7.788302377E-3
1.440436892E1,1.099525020E-2,9.162709117E-3,-5.344913341E-3
1.441408252E1,8.551862091E-3,-3.054236295E-3,-2.901524538E-3
1.442379679E1,3.665083554E-3,-1.649287529E-2,-1.679830020E-3
1.443351028E1,-3.665083554E-3,-2.870982140E-2,-4.581354442E-4
1.444322304E1,-9.773556143E-3,-3.359659761E-2,7.635590737E-4
1.445293653E1,-1.343864016E-2,-3.481829539E-2,7.635590737E-4
1.446265090E1,-1.588202827E-2,-3.115320951E-2,1.985253533E-3
1.447236439E1,-1.343864016E-2,-2.137965336E-2,-4.581354442E-4
1.448207710E1,-9.773556143E-3,-9.162709117E-3,-1.679830020E-3
1.449179069E1,-6.108472589E-3,5.497625098E-3,-1.679830020E-3
1.450150502E1,-2.443389036E-3,1.649287529E-2,-1.679830020E-3
1.451121851E1,-1.221694518E-3,2.137965336E-2,-2.901524538E-3
1.452093122E1,-2.443389036E-3,2.260134928E-2,-2.901524538E-3
1.453064481E1,-3.665083554E-3,1.771457121E-2,-4.123218823E-3
1.454035913E1,-4.886778072E-3,1.282779220E-2,-4.123218823E-3
1.455007262E1,-6.108472589E-3,9.162709117E-3,-4.123218823E-3
1.455978533E1,-7.330167107E-3,5.497625098E-3,-4.123218823E-3
1.456949892E1,-7.330167107E-3,1.832541777E-3,-4.123218823E-3
1.457921325E1,-7.330167107E-3,-3.054236295E-3,-2.901524538E-3
1.458892668E1,-7.330167107E-3,-7.941014133E-3,-4.581354442E-4
1.459863944E1,-6.108472589E-3,-1.160609815E-2,7.635590737E-4
1.460835304E1,-3.665083554E-3,-1.404948719E-2,1.985253533E-3
1.461806736E1,-3.665083554E-3,-1.404948719E-2,7.635590737E-4
1.462778080E1,-2.443389036E-3,-1.404948719E-2,7.635590737E-4
1.463749356E1,-2.443389036E-3,-1.404948719E-2,1.985253533E-3
1.464720715E1,-2.443389036E-3,-1.282779220E-2,7.635590737E-4
1.465692148E1,-1.221694518E-3,-1.160609815E-2,7.635590737E-4
1.466663491E1,-3.665083554E-3,-7.941014133E-3,-4.581354442E-4
1.467634767E1,-4.886778072E-3,-3.054236295E-3,-1.679830020E-3
1.468606127E1,-6.108472589E-3,3.054236295E-3,-2.901524538E-3
1.469577554E1,-4.886778072E-3,6.719320081E-3,-2.901524538E-3
1.470548903E1,-4.886778072E-3,5.497625098E-3,-1.679830020E-3
1.471520179E1,-2.443389036E-3,1.832541777E-3,-1.679830020E-3
1.472491528E1,-0.000000000E0,-3.054236295E-3,-1.679830020E-3
1.473462965E1,2.443389036E-3,-5.497625098E-3,-2.901524538E-3
1.474434314E1,2.443389036E-3,-9.162709117E-3,-4.581354442E-4
1.475405590E1,1.221694518E-3,-1.282779220E-2,-4.581354442E-4
1.476376939E1,-1.221694518E-3,-1.527118124E-2,7.635590737E-4
1.477348377E1,-4.886778072E-3,-1.893626526E-2,1.985253533E-3
1.478319726E1,-1.099525020E-2,-1.649287529E-2,1.985253533E-3
1.479290997E1,-1.710372418E-2,-9.162709117E-3,1.985253533E-3
1.480262356E1,-2.321219631E-2,4.275931045E-3,7.635590737E-4
1.481233788E1,-2.443389036E-2,1.893626526E-2,-4.581354442E-4
1.482205137E1,-2.443389036E-2,3.237490356E-2,-2.901524538E-3
1.483176408E1,-1.832541823E-2,4.459185153E-2,-5.344913341E-3
1.484147767E1,-9.773556143E-3,5.192201585E-2,-6.566607859E-3
1.485119200E1,-0.000000000E0,5.070032179E-2,-7.788302377E-3
1.486090549E1,8.551862091E-3,3.726168349E-2,-9.009997360E-3
1.487061819E1,1.588202827E-2,1.404948719E-2,-7.788302377E-3
1.488033179E1,1.832541823E-2,-1.282779220E-2,-5.344913341E-3
1.489004611E1,1.588202827E-2,-3.848337755E-2,-1.679830020E-3
1.489975960E1,7.330167107E-3,-5.680879578E-2,3.206948051E-3
1.490947231E1,-1.221694518E-3,-6.536065787E-2,6.872031838E-3
1.491918590E1,-1.099525020E-2,-6.536065787E-2,9.315420873E-3
1.492890023E1,-1.588202827E-2,-5.436540768E-2,9.315420873E-3
1.493861372E1,-1.832541823E-2,-3.603998944E-2,6.872031838E-3
1.494832642E1,-1.588202827E-2,-1.282779220E-2,4.428642802E-3
1.495804002E1,-9.773556143E-3,1.160609815E-2,7.635590737E-4
1.496775434E1,-0.000000000E0,3.115320951E-2,-4.581354442E-4
1.497746783E1,8.551862091E-3,3.970507160E-2,-4.581354442E-4
1.498718054E1,1.466033421E-2,3.726168349E-2,7.635590737E-4
1.499689413E1,1.099525020E-2,3.237490356E-2,7.635590737E-4
1.500660845E1,1.221694518E-3,3.115320951E-2,7.635590737E-4
1.501632194E1,-1.099525020E-2,3.237490356E-2,-2.901524538E-3
1.502603465E1,-1.832541823E-2,3.726168349E-2,-4.123218823E-3
1.503574825E1,-1.710372418E-2,4.092676565E-2,-5.344913341E-3
1.504546257E1,-7.330167107E-3,4.092676565E-2,-6.566607859E-3
1.505517606E1,8.551862091E-3,3.359659761E-2,-7.788302377E-3
1.506488877E1,2.321219631E-2,1.404948719E-2,-7.788302377E-3
